loop,trig_cnt,accel_x_ms2,accel_y_ms2,accel_z_ms2,gyro_x_dps,gyro_y_dps,gyro_z_dps
0,218,-9.671614,1.18271,1.888531,22.105951,119.362059,-25.413963
1,436,-9.151723858633009,1.2514302790250653,2.1005674726383585,25.561475287192366,122.21309935132373,-16.501380926730512
2,654,-8.452107313796319,1.2251177270777598,2.076458161084072,29.056706211495317,118.44910849899999,-5.960533586209607
3,872,-7.908501509103344,0.9735243292059094,1.7653245390646939,31.59621161702061,101.57399896906423,2.809134981582554
4,1090,-7.593255155182304,0.5617589519090094,1.0600917863108257,34.13560959433251,73.89672138627466,8.051600688130883
5,1308,-7.633761750798531,0.10204672813461846,-0.0035610051134067344,31.945228995526158,32.097780916957284,14.443579214272745
6,1526,-7.917712440845964,-0.2167620579442363,-0.5332769266035899,25.95073288050608,-11.083941793720584,17.79159128852077
7,1744,-8.348350014584351,-0.3585216314536998,-0.7374497921038959,18.724763482783363,-49.141157693054836,21.737859335529542
8,1962,-8.802119474423925,-0.5902572724494982,-0.6370489319082129,9.058369632097522,-79.20804408052193,27.168496890252918
9,2180,-9.182534956302845,-0.8765144893482879,-0.17900444402542087,-0.8418990357471205,-93.57038209939574,28.613244987694927
10,2398,-9.381547191047012,-1.0771930889717178,0.05378233473631036,-13.229109783592904,-93.39572785819331,24.781533012911655
11,2616,-9.741856663755732,-1.0916685647549367,0.15172207002960458,-21.94595884187875,-83.10886450913492,22.37852848650237
12,2834,-10.163115206316949,-0.9002805252919734,-0.1254522957994486,-29.866443750724457,-64.58802213719716,11.29532932239558
13,3052,-10.725743021278603,-0.48183026833220666,-0.6471265838029605,-32.98462708647896,-47.49176512253296,-2.9066271918371616
14,3270,-11.301039004806391,-0.08890499506387978,-0.9894632591572283,-31.705157728526874,-22.04292461975055,-15.76907944162614
15,3488,-11.59724519946169,0.21347511226288135,-1.1528862430254518,-27.79225388515658,6.03391804110861,-26.277759782991218
16,3706,-11.588935807711422,0.3905120162336576,-0.7316339103472591,-19.482124960654467,36.09415846309717,-32.44913202316399
17,3924,-11.297917315564048,0.5474042517879553,-0.11349717282833771,-6.918383527750763,63.57813375877438,-31.892195309573236
18,4142,-10.725918457321777,0.8434602478875486,0.7604669298070519,3.4938656872612732,84.85521710642752,-26.819552992690355
19,4360,-9.656319157284939,1.011547627165507,1.3960157063584249,16.055349919184764,99.42103261556375,-18.350677295842136
20,4578,-8.75901419773402,1.0000639074994098,1.6755289137853486,23.23583309222488,104.22191668746218,-8.03958850199778
21,4796,-7.964418820479794,0.8123665779806266,1.513361482683591,28.169412500448395,90.71830094703118,1.665410060610899
22,5014,-7.601069077177428,0.3771336765650947,0.8847925411658653,32.13672347545296,65.62814130304767,9.618936894201019
23,5232,-7.705714552809512,0.01465836918421376,-0.043722852928934186,31.124925496927364,25.43670174940828,16.83348579793123
24,5450,-8.071785304102914,-0.213374082033459,-0.7408452483255918,25.46185022549669,-16.79964514156923,20.68315622406356
25,5668,-8.391561838561385,-0.39725786687701514,-0.9627402061503003,17.780283365150257,-54.120403026605885,23.676288704344245
26,5886,-8.848094578135287,-0.560319828220017,-0.684163923739086,7.953717812773315,-79.37789693834026,26.423814262107157
27,6104,-9.158513670384457,-0.7487291890273251,-0.217149129693687,-4.1603423854306065,-93.54580113634744,28.74288318133735
28,6322,-9.460226738361046,-0.9721541424797305,0.2291665438157871,-15.71124828652108,-97.10148745809552,26.391049522051862
29,6540,-9.807974788576468,-1.033346437570948,0.3139688838993731,-23.82889075264189,-86.78307904224161,20.47554185735114
30,6758,-10.288633269006004,-0.8602008157983256,0.0007045972091138664,-30.067038115173787,-68.50312131616298,10.410816274207573
31,6976,-10.8055551980309,-0.47948655890357406,-0.5214766820919157,-31.283249485569517,-46.16200575595059,-2.6692935897156325
32,7194,-11.334493517946731,-0.0049084766836802185,-1.1501748263253986,-29.298286195193292,-20.748908490583304,-16.536571975966975
33,7412,-11.558531877055856,0.23249871661284668,-1.058426691603891,-24.959385666791622,7.400422415567071,-27.88857347477731
34,7630,-11.632050105445034,0.4140500610609887,-0.7749350156054997,-16.321024615405705,31.40605041640859,-30.895558574984104
35,7848,-11.236734433198043,0.6907864143724914,-0.13326328217619232,-5.53387763612049,66.52541356562638,-32.02883559836485
36,8066,-10.564162491330826,0.8982362817041254,0.7862396428871403,6.42404578466941,90.95664404071806,-26.351666016788396
37,8284,-9.69035685817806,1.064440990422778,1.5379661327893832,17.26820753595243,99.79809644981104,-16.92323886611502
38,8502,-8.67390167243075,1.1340522459230262,1.7413521307264221,25.944485208215266,98.72733221251572,-7.6078838981202
39,8720,-8.04320574476281,0.8652832085228637,1.421438058922499,30.72305575911286,82.75695992529306,0.9520616053132454
40,8938,-7.844257293843244,0.47158814859067616,0.5082804588055104,32.307274139015156,55.566260768801925,10.259683179845004
41,9156,-7.891879656235534,0.12137289212580343,-0.24209166823354566,29.5920250856641,15.409425044507188,16.759767113872734
42,9374,-8.128169705909533,-0.14361371547376423,-0.4751863275749464,24.236134929734376,-24.422618602024144,20.175431804855855
43,9592,-8.546930112769935,-0.27241592180786167,-0.556236169773238,14.10417347977524,-61.61457807153663,23.43450149281053
44,9810,-8.871789394705967,-0.5979177502229258,-0.5680058971274047,1.9319786902706628,-86.47480962251962,25.490440863914927
45,10028,-9.181723133847195,-0.8989053526475034,-0.232041285864455,-10.487262982792066,-96.49168218059981,26.677248300188467
46,10246,-9.44308487291795,-1.0474333501304633,0.104392306897574,-17.875891495433684,-94.34614749997125,23.47404630791743
47,10464,-9.871640899606675,-1.0489099377748594,-0.03767957585521475,-25.867246110353236,-81.04201751170189,16.82441612825818
48,10682,-10.395838927313834,-0.7603690637890201,-0.16937392830434564,-31.137909570090244,-62.912570721623965,5.894473295481854
49,10900,-10.93713675322053,-0.41819999180084555,-0.7009744662910504,-32.70019905668286,-36.24139173619578,-5.674842318478939
50,11118,-11.369430744380178,-0.07320908360743517,-1.060783745861034,-31.729032145237763,-11.882400553916458,-18.323868144660924
51,11336,-11.71774370528702,0.27031748508770653,-1.0858040110990286,-27.43036471010129,14.880437818540383,-28.94724562180852
52,11554,-11.64153728493833,0.46271686939560586,-0.6664070286869963,-19.658868064189488,39.41034738654649,-32.54951508532447
53,11772,-11.088101078849933,0.7456534485155297,0.2207946589426697,-9.560197843220836,68.03885654338139,-33.50892063823877
54,11990,-10.22056174040378,0.9760941819082576,0.917490357475844,6.093334502807375,91.09843539749876,-28.305894418724435
55,12208,-9.31380583894659,1.0925371925996403,1.52177697606789,16.40594987426715,105.68908690171997,-18.997779693638634
56,12426,-8.479116439184862,1.108243166375308,1.5714341511912977,25.46838366215168,103.34316988806526,-8.205338939876555
57,12644,-7.894665523020867,0.796183455405975,1.1267680616918316,32.92029876260969,86.63678128072434,1.5592017777216416
58,12862,-7.752243187325735,0.348834297572284,0.538933215280417,33.510628323426836,54.86850308449067,8.7864473779095
59,13080,-7.842100170139175,-0.005150190096542273,-0.1603029998041825,30.404185039969125,15.041850405945453,14.970869496536544
60,13298,-8.195592107792852,-0.27572570046016726,-0.7395479805427975,23.19478597658949,-29.757955849255524,19.863294218285937
61,13516,-8.600590708122452,-0.3930286142741773,-0.6154369075663715,14.337317659479332,-67.9808868761275,22.44226635826326
62,13734,-8.9676974592139,-0.696401328815469,-0.4036547586255529,3.878405189548909,-90.88488030017915,24.124300121435986
63,13952,-9.317084019232178,-0.8729345894688478,-0.02644846382649213,-8.516673525256236,-99.4644865521566,26.265999528109425
64,14170,-9.64408645671504,-1.033288625387736,0.28764605203148014,-17.762285508913237,-91.67153291939674,22.764065735208042
65,14388,-9.931676010050582,-1.0160909501838593,0.16757346212871335,-24.742393345279055,-76.64643810359406,15.936686514070052
66,14606,-10.498696639646813,-0.6956548665512992,-0.27539646483179403,-31.43792554223509,-58.88823964728482,5.333724368630124
67,14824,-11.150580157745148,-0.2918050097572576,-0.7729507540860712,-33.25252085794064,-33.776544739652536,-7.251402111888126
68,15042,-11.60540298620144,0.01317547810362596,-1.092494821443599,-31.91492960207505,-10.021404279984488,-20.985920722050423
69,15260,-11.792873079575767,0.25701474829354365,-1.0941440967788125,-23.301104090686152,17.044558824223845,-30.460354813490085
70,15478,-11.70569585776385,0.47593021443816713,-0.5859662163700947,-12.307206482264585,43.086280957937895,-33.864002871008374
71,15696,-11.135086306535076,0.6960903158642534,0.19937948920975157,-3.921236597615975,71.53876701216515,-30.56572626125935
72,15914,-10.206252660602448,1.0336774263773336,0.9998004597851415,7.781439892279016,92.34494162899078,-21.21916587067853
73,16132,-9.370063068866964,1.162917706198622,1.4335952108334444,15.3777912768406,99.11581783210727,-13.893765612367876
74,16350,-8.448777508814826,1.0147400555556807,1.5061482506957335,23.375590769250742,98.1568251914668,-5.085156623469224
75,16568,-7.847215566675055,0.6599075200135721,1.0274468854449732,29.59524301220784,79.17377026512403,5.55841717619713
76,16786,-7.710829371429023,0.2261891789302592,0.28171969136259567,30.578826021422636,47.695336440230015,12.019805727780788
77,17004,-7.897601664018225,-0.04869470730055592,-0.43874146175557016,28.05620579144521,6.631861373696317,18.056239023468308
78,17222,-8.260919579064863,-0.28577499809847384,-0.898429216128057,22.67081679406217,-36.019340280019335,21.29819994317667
79,17440,-8.768846383481778,-0.43183896947612965,-0.9460898095932355,12.312048609369297,-67.5027886551672,22.348131317959858
80,17658,-9.083828072343012,-0.6791180770548851,-0.6204283348306385,3.1345765049936425,-86.42231253530659,22.65738788566343
81,17876,-9.441615547509247,-0.9097900896404749,-0.23014662815603815,-9.043463831980594,-94.57605878941547,24.76668668935178
82,18094,-9.716257213224406,-1.0570868788914392,0.027401084495294104,-17.824954509528517,-90.755584569904,22.2412806093948
83,18312,-10.10487368133417,-0.9618388871122854,-0.021132847751830226,-26.46366007438163,-77.98001557056455,15.632278903677214
84,18530,-10.49253841451643,-0.6383849421049366,-0.335718841181668,-30.29406740027948,-55.08038693044216,4.2307595843255665
85,18748,-11.04107072052747,-0.2159268832143842,-0.8431118868748235,-32.58788341968398,-31.840303136599335,-11.630207254246399
86,18966,-11.509267570256197,0.10705938640022811,-1.0769369128980788,-28.962654702224185,-4.798753667967585,-23.35755977284247
87,19184,-11.771028130039639,0.2553809306524137,-1.1053786189379224,-23.64342731734036,22.682836618625284,-31.706052365355227
88,19402,-11.53337488573272,0.4630050118017319,-0.47720321177979674,-12.194687052787698,48.26341578506911,-34.44341656532315
89,19620,-10.98432617041334,0.6481039269430768,0.3814357110327802,0.22393003736580397,74.1569462785762,-31.448722938132263
90,19838,-10.046477120954345,0.8352753801554978,1.1753141778763325,11.10254019477934,93.00814824237607,-21.566101895843058
91,20056,-9.067316897082195,0.9966991272210367,1.6247768847136983,20.307385960257115,101.47479853885275,-13.348892668893516
92,20274,-8.228186502293209,0.9508091566103407,1.6412581892092704,26.573861469460226,100.35499063388691,-0.755264208825686
93,20492,-7.790944793231382,0.588471419422218,1.029867115473343,31.721521541608382,75.83428658104023,6.744453904570976
94,20710,-7.653684516044523,0.15082226409816202,0.4275795044977465,33.93203714669188,38.76676263766057,10.779534605972444
95,20928,-7.910140933979721,-0.1731068317865676,-0.3433540847524862,26.659533708465435,-2.2951794453529004,17.725931683817933
96,21146,-8.358311071953294,-0.362935419404512,-0.8488535746012997,21.012322995885697,-42.50823396451489,23.091678966226972
97,21364,-8.725827861979937,-0.5477104327160229,-0.7232439409521857,10.833572522840734,-76.65230622483381,25.46002315466741
98,21582,-9.074987375290553,-0.7657142108973412,-0.33598721762728473,-0.6261018204380786,-93.5932880372464,28.813706762489126
99,21800,-9.430580293455604,-0.9340423870448334,0.03897349353411239,-12.344830322094696,-93.28861970724027,27.58421380955738
100,22018,-9.641319745317318,-1.0267805806859807,0.09895633800980745,-21.541849446462187,-88.42623446507571,21.346550882238546
101,22236,-10.16675300097389,-0.9076064769620685,0.03267115125614617,-28.17739509663335,-73.54187184985147,12.30829538813716
102,22454,-10.707434178924352,-0.6010070860794035,-0.4865954832911117,-32.35278097747671,-52.61263422746953,-0.1717495619098024
103,22672,-11.22555465351608,-0.23701631097583425,-0.9611168264062323,-31.692378379302138,-28.47239963225836,-12.364000290805253
104,22890,-11.719449283197156,0.06771000508590685,-1.2002035928793913,-27.208591868935734,-5.992786495340248,-23.967262165895896
105,23108,-11.740291145659217,0.2830394864596098,-1.0523068989917193,-19.71271791910049,22.848677072204477,-30.902044354376617
106,23326,-11.484118472377887,0.4976560810360704,-0.5094687488844005,-10.43314962988094,53.50160345672144,-33.283375218451646
107,23544,-10.859779050920604,0.7317283745168195,0.4300644584837543,-0.36066661317660653,80.08496965508475,-30.43111080463703
108,23762,-10.026911259486953,0.9904884882474659,1.2200920447182362,11.462550512306361,99.82483636747665,-22.209874678308505
109,23980,-9.041742993342158,1.047921894678674,1.7261514467249803,22.02532664966406,106.55603640726817,-11.372374014333383
110,24198,-8.325844631070025,0.8935482640214297,1.6157034485853177,28.925459109802027,97.47206674556644,-3.015190564178809
111,24416,-7.86878268313334,0.5274343660183389,0.925687110385963,32.28414013141445,69.29347139472583,6.398348021318364
112,24634,-7.7502286322370795,0.15209969000815615,0.08319763889949605,30.908336880711975,33.77689613801241,9.504593606542313
113,24852,-7.980259501280366,-0.11052686146256563,-0.567057231331531,26.570330533395055,-7.111172163443129,15.380416082387615
114,25070,-8.302568807348067,-0.31807109431430436,-0.8946808369393153,18.92948822602935,-46.224554153079154,21.355355527058634
115,25288,-8.7398501414919,-0.5617341702147245,-0.8129213171665506,6.943680486674381,-76.0872281671644,22.569816434263995
116,25506,-9.156622380378003,-0.8754035990463513,-0.46774082147778195,-2.456714580471168,-95.93501930676709,22.91783972680686
117,25724,-9.421471513268598,-1.0854749928073426,0.01755064411152063,-12.250617840317032,-98.09614563004426,21.89159238030582
118,25942,-9.747996053621023,-1.1112533964123892,0.14185865539041262,-23.58548871301605,-86.6207354853499,18.20042281734911
119,26160,-10.189474781647167,-0.9258629922471002,0.04270575005713649,-29.612013656221883,-70.85113989216131,11.140941875532086
120,26378,-10.577275302201569,-0.5040759411471343,-0.3939622665956884,-34.061044111214855,-42.10842481851979,-2.197373984132918
121,26596,-11.177672377107717,-0.15913212858394998,-0.7923844309910557,-32.36526163499309,-23.559526138445523,-14.55819590544509
122,26814,-11.5599601355708,0.12104625424800669,-1.1826511791156737,-28.54489899136705,0.8860925260540178,-25.746532021524246
123,27032,-11.706937021245766,0.3564840732116361,-1.0424079814442342,-22.299633977985483,26.807389520233105,-30.987994065973496
124,27250,-11.43871754877393,0.6431936060971004,-0.3293862812218308,-12.405069872027898,53.32747926260633,-32.185779412836744
125,27468,-10.816668619457426,0.949676046457598,0.458560210116266,0.8873255810709093,81.87147261841243,-27.965803794251386
126,27686,-9.931812404832076,1.1080959278784288,1.2670760597023363,13.410099807075637,98.85023206502845,-21.03639909912906
127,27904,-8.966740168511576,1.1068445807732035,1.4530759617480937,21.961256859505948,100.86228511435908,-9.583997016794541
128,28122,-8.114435310977623,0.9767156406303866,1.2972105335494655,28.38025699202331,92.7047864141075,1.244761131508815
129,28340,-7.7945153815770745,0.5675003549877984,0.9138624400511344,31.748873042260517,66.00413367387756,8.518360331894156
130,28558,-7.756698861310153,0.12459143675783213,0.08965649801215592,29.83181408788092,28.48075113149043,15.888895286858402
131,28776,-7.988728832074254,-0.15944691804862593,-0.6134354346646008,25.452490293213216,-11.111645566537007,18.369210976172614
132,28994,-8.314634700528499,-0.40791568127921685,-0.8583304606916954,20.031186680173008,-54.28596672690469,22.914403857039474
133,29212,-8.85228228804815,-0.5963864520441747,-0.6883312102681856,10.236868509991517,-87.97127877674666,22.967086295325867
134,29430,-9.198681512095952,-0.8364526998777017,-0.33873756584098846,-2.0197703682907466,-102.21634884286644,24.600964335295444
135,29648,-9.523031678014256,-1.039545604007902,0.11037081386229924,-11.677767755141286,-101.81040642466861,23.620573490736284
136,29866,-9.827923922228777,-1.0896999226720105,0.20681782087503853,-23.639306622592724,-88.67985640749134,17.918831778058763
137,30084,-10.307244927242657,-0.9368373463515824,0.04133889318853434,-30.106505039666416,-67.6288350545448,9.527883290401371
138,30302,-10.90878200547024,-0.575010813095344,-0.4303699920844183,-33.67847586526287,-47.91039231721122,-2.9466340406988394
139,30520,-11.390830690178051,-0.2012178992739604,-0.9736226081135704,-32.66380146473236,-27.801269683678477,-15.406204201338761
140,30738,-11.762136866452966,0.16036266256841386,-1.2530397719334627,-29.03926536572321,3.0459380639010583,-28.33088408552066
141,30956,-11.798038606329888,0.38209732468821855,-0.9693099834290126,-21.748903028693153,31.54836678659246,-34.06823091637273
142,31174,-11.32214160370449,0.6084941930295387,-0.01352771901328309,-11.863430761390552,59.16953633072304,-34.918759583636344
143,31392,-10.536441520421699,0.8852559628083734,0.837155927114024,0.19371443082389916,81.92054928298992,-31.02515892016827
144,31610,-9.54084580087303,1.0975394063067088,1.4559965534019395,13.532857862449687,99.92832106624385,-19.38283307440213
145,31828,-8.787728851766275,1.0732271529670658,1.7104738320252562,23.498396173016445,104.67244162480735,-9.844754124606801
146,32046,-8.106856308601785,0.9315593350250868,1.4828247565391455,30.847101005642557,91.19361223878212,1.0713383053089274
147,32264,-7.685171776729176,0.5193100750731943,0.8840483110561442,32.083548188986924,64.09980634757665,9.476164558986609
148,32482,-7.803905079516965,0.16447521678260107,3.53403894888249e-05,29.933893961858605,24.86565393879072,16.643613969522004
149,32700,-8.078826681236286,-0.09762058146028535,-0.6493616266568712,25.277904067203202,-19.924174321452398,18.951609317446763
150,32918,-8.431335997811342,-0.3259482419247405,-0.7083330556868538,16.90298564648566,-57.418606617151255,23.521642804461358
151,33136,-8.869530225804894,-0.6189033941658642,-0.4342834669684109,7.084287093835352,-88.0389684887402,25.67509013174607
152,33354,-9.211633202355385,-0.8004490749933002,-0.13875660653849597,-5.023977452254522,-100.83733193708804,25.346418750222764
153,33572,-9.54026548213506,-1.0793659717280804,0.10544888651053394,-17.507740316956465,-101.13705613051641,22.153068991392107
154,33790,-9.90059104904266,-1.1021083618861645,0.07611358400635745,-25.081846158373228,-87.43451366428052,16.772915780713042
155,34008,-10.36101597349962,-0.7837396084128423,-0.16181804741450626,-30.233873236202225,-72.4546474880391,6.774785522582011
156,34226,-11.003917477373149,-0.42668965313387625,-0.623373956136396,-33.34132882540246,-46.21319954316064,-6.527156594091467
157,34444,-11.423145646307438,-0.11987179210935206,-1.0892273292034522,-30.881109564548293,-19.155517483707936,-18.937134587258413
158,34662,-11.610769446915457,0.14623611379495915,-1.2287445101156982,-28.614040877973032,11.115601233055337,-29.22177862867671
159,34880,-11.692221704999413,0.4096321648450031,-0.7623762071630018,-18.674467057519593,34.98052274644276,-33.54738408986533
160,35098,-11.299988127328866,0.5756432121443944,0.03269340740050275,-9.786547042290707,63.7085872646478,-32.11884290685862
161,35316,-10.397746750246682,0.8611588110474144,0.692837710337011,2.0418347267658756,86.86194410186442,-25.697818978730034
162,35534,-9.438646869460186,0.9828389863087318,1.3594286188694495,15.160622610035604,104.03788655817007,-14.32677830817621
163,35752,-8.622831494983423,1.0442343090423016,1.7204587308047565,25.678997472867568,105.12014468852547,-4.078908446493157
164,35970,-8.060276338755335,0.7348617385341625,1.439682017799234,30.71182276708065,88.85119871145605,3.3497487949265325
165,36188,-7.810516356934029,0.3756462331582684,0.6190713852460547,32.765477298776055,58.91567180778951,9.880733696523333
166,36406,-7.91832662662543,0.05416896430183532,0.001259752504666256,30.039146010443005,21.149247351404,15.788405038160754
167,36624,-8.355528927247882,-0.2330653656402643,-0.6318170211545953,25.45314974556424,-21.730830499165577,19.77198522330834
168,36842,-8.63688766347448,-0.4514114359905743,-0.8263126278491094,15.056002222891,-59.51853747186619,22.55301138885442
169,37060,-8.962456732873376,-0.6838764458498696,-0.48983761508429224,5.785007837739956,-82.06659610851477,25.891975912512848
170,37278,-9.24664898417281,-0.8960493442673053,-0.04249958585240937,-6.5336523648631175,-91.93190818261998,28.484837158884844
171,37496,-9.426005785274755,-1.0748345336234657,0.26053942875513014,-16.527794605072184,-91.28766379248772,26.06602543023413
172,37714,-9.838034667296354,-1.0506491822365,0.36110111132834594,-25.02962718910861,-79.51653975814098,19.856624506506435
173,37932,-10.325181590924965,-0.7645314746635554,-0.06187369218124861,-32.08055147127132,-61.0560820152313,7.125241453238997
174,38150,-10.877542812361302,-0.41754119003499346,-0.5545423993978468,-32.482608447803386,-38.11924881959612,-6.127079356656084
175,38368,-11.368586576549683,-0.12111728977290437,-1.1072015860274782,-30.448618902817458,-12.971405200620104,-19.178243744962003
176,38586,-11.731012394959508,0.16889465474416276,-1.1931109695477358,-25.67842630863882,13.78071203606952,-29.243392780451785
177,38804,-11.58051270149188,0.40813853636134007,-0.7057488708437675,-15.850046033597337,39.33913132519861,-34.708874569284845
178,39022,-11.211089803333076,0.7497906974488859,-0.025828646355148477,-5.084480576601873,65.8152057755598,-32.94213590913847
179,39240,-10.423293985520283,0.8967650510949406,0.777065414445122,4.905478815151486,88.24577820875763,-26.56063929872106
180,39458,-9.495070523208284,1.080361375065633,1.3819724892829717,17.293964946964945,100.54216060110218,-16.017713135420905
181,39676,-8.685516787447842,1.0561085576909144,1.518126369470358,26.24307422357683,100.42924915221717,-5.777563432387579
182,39894,-8.04633708757985,0.7455539728202221,1.2707491202380214,32.43787552078012,84.25085230128387,1.8774765200446444
183,40112,-7.872166345476816,0.32239091841868783,0.5134519231160276,33.9025489064905,50.78708183770748,10.558029247135917
184,40330,-7.951218920001909,-0.09458160987899145,-0.2715834301917489,27.864329175932763,9.484416891142196,14.644819036481557
185,40548,-8.291186612489904,-0.31002276004953955,-0.765750184076175,21.805154695759075,-28.37268694050391,20.067184435290695
186,40766,-8.72269116886395,-0.4262926780976062,-0.9325607456522796,12.51286051512294,-61.20086032762257,20.416528944759794
187,40984,-9.005053072675514,-0.7077641843708763,-0.5901915301294801,2.2171740054268145,-82.56016646779109,22.831407851013587
188,41202,-9.300102790115535,-0.9246606127866006,-0.14811679427416818,-9.527783911364203,-93.74679257892373,24.47548806733251
189,41420,-9.542858418226933,-1.1200377030988842,0.12209097638211441,-18.876583436305033,-91.18314455444138,22.087218720242415
190,41638,-9.93605623634138,-1.0656228802842256,0.034788386787330025,-26.301125424250895,-80.04598073649836,16.86764445364397
191,41856,-10.419849348176424,-0.7970044730955277,-0.286453175057826,-31.132049899926322,-58.255051702791484,6.961604789742678
192,42074,-11.00059985745376,-0.3952778223611986,-0.8399285623413153,-33.52373729208069,-36.82842327722392,-6.630137420342235
193,42292,-11.477319740858862,-0.043476382078460274,-1.2442494003533198,-29.923756068194685,-12.221670453446421,-21.077972423196442
194,42510,-11.727036474570424,0.2038703883248965,-1.2727596030780584,-22.434427160695382,16.885547627552423,-30.104910245682127
195,42728,-11.587593842198066,0.4357859383447099,-0.7388046699524422,-12.422655495782537,47.625743983443954,-33.583115849933925
196,42946,-11.03367739936601,0.7085212576955968,0.07862664919521578,-3.313506654499717,74.48289638276191,-32.96539703244401
197,43164,-10.10586820125498,0.9880948338968765,0.9647430100899739,8.255654364307553,97.51312374604025,-26.03652667473036
198,43382,-9.275362645166943,1.0930996479500001,1.505370934525594,17.49237211705531,106.4854967891871,-15.095335533847543
199,43600,-8.499601387758068,1.067226844927206,1.4603500164857548,24.543166388984496,102.2296995978998,-4.787621077336004
200,43818,-7.930515816723791,0.7065781790069936,0.9785984428555163,29.422914180069938,80.308477135338,4.699649272980119
201,44036,-7.7967356878991385,0.33083879800598887,0.34034766395025207,32.34065664321439,48.73113612111706,11.95610191967015
202,44254,-7.898889368219636,-0.03791928416847207,-0.3821609023965995,27.17733408275312,7.482116192829935,15.468123713173995
203,44472,-8.23276555111519,-0.24526733218196672,-0.8873162669767712,20.163266025287005,-35.03741126752666,18.711727785138496
204,44690,-8.631823132863918,-0.4917996422338269,-0.8328333135388721,9.717338310264534,-73.10008472287939,23.134110811341294
205,44908,-9.07063122719104,-0.7404124412332693,-0.5831948903545356,-1.6444261843542716,-93.52098028664055,24.947675365652003
206,45126,-9.292770062723427,-0.9612747377181057,-0.12687255428580135,-10.651403839173202,-97.03129639515238,25.848452177584246
207,45344,-9.635442259781104,-1.0530747471809907,0.2872521162612853,-19.543848214681432,-87.89153694755683,23.584986890138723
208,45562,-9.976496429797642,-1.0055445917799755,0.06549014274666223,-27.388497652106867,-77.48614562997939,14.849147002218508
209,45780,-10.445341652545915,-0.7002744771754292,-0.29788982273319087,-33.39641290239485,-57.51989879222128,4.583389504093242
210,45998,-11.012302610312819,-0.27607362495182014,-0.693631908541348,-31.86452087863858,-35.07625519496347,-7.701989707370824
211,46216,-11.526869445804094,0.05349200662054954,-1.0793479128485461,-27.451374927344453,-10.755502735839496,-20.421421526558856
212,46434,-11.692268395591407,0.3082585125194287,-1.0482576654902407,-19.97228126387861,16.429157103296994,-28.334698899844078
213,46652,-11.497628312877437,0.4386204818686974,-0.4912157475290829,-10.959848398341254,44.981737275562715,-32.90770875980015
214,46870,-10.945435367682485,0.6400414973830363,0.451200290687501,-1.6999824231698408,70.87812532965425,-28.6093297179425
215,47088,-10.051873261532982,0.9486007295846819,1.3215127309610106,9.393800732251265,90.07685334801315,-20.455910969356296
216,47306,-9.080728265606531,1.0637593550983355,1.6235827048921663,21.14162807620165,101.77366850049822,-12.74265235623844
217,47524,-8.271150705334966,0.896722465917782,1.5416808502102348,27.05265517876646,95.29326480835525,-3.63985806847006
218,47742,-7.863713867458194,0.6180932191425296,1.0583144766944328,32.25887299590039,76.59475602043983,4.581096089026133
219,47960,-7.7567609133098685,0.24792307779880052,0.42197566832770717,33.489186400715134,44.286051420215536,12.266956398436061
220,48178,-7.895843765595005,-0.14255069272849885,-0.2584638584238297,29.62205221405931,1.6402279982690686,15.94204531934725
221,48396,-8.309516845342069,-0.31757390542896546,-0.6169367204470521,20.35901716342282,-39.23586324445357,19.100474629240946
222,48614,-8.762866544422021,-0.4903408568246291,-0.6486518320989272,10.255464882678506,-73.54263921978972,22.98499955886552
223,48832,-9.088193333685314,-0.7790222665826849,-0.3840565193806294,-0.6016557830466773,-91.71524330687846,24.06698796614054
224,49050,-9.346319093639458,-1.0410526663565072,0.23870162681777968,-12.531676429417367,-98.34263481568378,24.71423474980103
225,49268,-9.721121864048555,-1.0921114391758904,0.49033579030389934,-22.245171094134754,-90.18319916556553,20.537917053262557
226,49486,-10.113216309104589,-0.8964287201331488,0.29648967480620503,-30.108305658633256,-71.0482405288779,14.081271135716158
227,49704,-10.58928467043927,-0.5981578436795008,-0.23978088913723383,-34.22413776050618,-50.13488812191281,1.5879427239808752
228,49922,-11.268924930643056,-0.17018883392527923,-0.7944201692967787,-32.18018339972523,-27.557143926169292,-11.611715100740224
229,50140,-11.585909457180005,0.1383273087291047,-1.096961120802072,-24.52937606293656,-2.673656018588641,-23.493675958550604
230,50358,-11.627742169891008,0.3022372408349607,-1.061927592319508,-20.246554392426944,25.43989958229897,-30.66793118194281
231,50576,-11.376272465274987,0.4513321238247202,-0.3773666222860603,-9.177729291045331,52.487496892779575,-32.865551165613226
232,50794,-10.744687188240704,0.7364121100912004,0.4999855883873108,0.1424465091440279,77.3685936366514,-30.493433508018185
233,51012,-9.858466319427754,1.005877890514757,1.2453603007375686,11.770650135640242,93.1035624073952,-20.777498242569788
234,51230,-8.99098245336444,1.097459824725089,1.730571844171855,20.60666869317162,103.70304596919027,-10.566567311884658
235,51448,-8.247568328062082,0.9580595028886707,1.483456031318242,28.76416823943033,95.59988508842565,0.25342167900315715
236,51666,-7.84374144535779,0.5797327416117284,0.95660170431662,32.29542704984963,69.46055574350753,7.37250461096743
237,51884,-7.710794166310284,0.18268697071672302,0.1117007048631018,32.83841030664647,30.595139347497657,10.454148084077138
238,52102,-7.96672786596367,-0.11039945922159777,-0.5084733445638431,27.294478504600214,-9.70662997297493,13.93847209819441
239,52320,-8.34488045774689,-0.3810327461698243,-0.8169890324751654,20.21098039123766,-51.5586821595948,18.063488883235973
240,52538,-8.701679186422973,-0.5000172618233939,-0.8141254820498378,10.550911363590169,-82.38394209379496,20.5667790151412
241,52756,-8.969402736396319,-0.7354701267761709,-0.44426354902471626,-0.6458576493400088,-96.0334270251558,23.92298047558358
242,52974,-9.186738843083646,-0.9629976692528512,-0.23236539170112946,-12.331731740470588,-99.56129528256437,23.77485693566427
243,53192,-9.59589490403532,-1.0804653614045696,-0.05035829352516549,-20.392995789800906,-88.49537041907631,19.06123357586107
244,53410,-10.03303998892107,-0.8815178301503631,-0.05706304947831478,-29.178214755169392,-69.8548386805223,10.176367518069423
245,53628,-10.538620162483234,-0.5378184897003839,-0.6824834760325376,-32.45454749400502,-52.17786168214107,-1.6535467225392484
246,53846,-11.135781389297264,-0.16833316239916235,-1.2098789822347136,-33.156714114592965,-28.619562560487005,-14.821188778805297
247,54064,-11.49130986184352,0.15504603014126006,-1.381321599714612,-26.716997427932984,-4.018064784741558,-25.141371717284283
248,54282,-11.644826956061324,0.3581133394428352,-1.0418337283979384,-19.95947769128527,26.767856885465882,-32.188611127353965
249,54500,-11.227803092589,0.5421289923443748,-0.26901623763228666,-8.870881676701295,52.647531150738104,-31.62977705300624
250,54718,-10.680354112584046,0.7098552963344525,0.6379598013309438,3.506941911763562,78.73717313965696,-27.800092797480797
251,54936,-9.698792625762614,0.9988205364842427,1.2986812131011543,14.851936816148202,94.4171946648238,-19.960787648561897
252,55154,-8.88692517663719,0.9808260749748952,1.5501179710208313,25.069211805366756,98.78543715331918,-10.239501090030583
253,55372,-8.245144951728486,0.8610015903364594,1.4011360660590864,31.398097528691466,89.89652425878462,-1.7419483027693623
254,55590,-7.906923368427381,0.5342481893657558,0.8029383054594089,34.623061857596795,59.11410108482379,7.830389005098553
255,55808,-7.887876705516584,0.2274362953384017,0.0012880337442636725,32.979854590627255,26.060337547522117,12.279819086319357
256,56026,-8.061706032909994,-0.11761299628221678,-0.4962081815940206,28.664508930150443,-13.669069624546623,15.964647474985075
257,56244,-8.455591233366325,-0.3176469981549734,-0.9208749100290367,19.347636312525445,-50.17286933864588,18.593913752417706
258,56462,-8.757661785173662,-0.5617187470086065,-0.6884796090389737,7.5343245742771945,-78.42455568035388,23.06947270151692
259,56680,-9.042037304325929,-0.764336241672869,-0.17315638459813565,-3.1819609200069827,-96.43057198971651,26.660761830500597
260,56898,-9.453304665449014,-1.021601162176707,0.22407446591784275,-13.536810323931874,-93.91714781497222,25.248975974961954
261,57116,-9.885687826341934,-1.077921074921546,0.29409185857001163,-23.378477772668937,-81.82449604415123,19.691678551599647
262,57334,-10.37043766698557,-0.8503104926636639,-0.08323370848400635,-27.815741476820403,-65.11541362128717,8.67696966314999
263,57552,-10.786523627048492,-0.38863321250489646,-0.720027385589679,-30.33988184054869,-43.329313403524104,-3.0581862633823196
264,57770,-11.285633293844564,-0.02873260579558723,-1.1798220552162548,-28.426187746436774,-22.594600122570064,-13.78934940648943
265,57988,-11.562146138865364,0.17018762302396837,-1.2913302291820026,-22.964619629089366,3.00487381802359,-25.691056248551654
266,58206,-11.661686150742801,0.41013109836625994,-1.0142823671516772,-16.113263672975773,32.2026260504188,-32.46240374518258
267,58424,-11.362862928810971,0.5512300476168929,-0.3925946818118782,-7.8628635772330355,56.293616638795385,-33.53924265148422
268,58642,-10.610910484623957,0.8204635586812348,0.4823728780420059,2.3719636117770957,79.67542392298746,-29.43502317390604
269,58860,-9.757058939975122,1.065702732488312,1.1498454337727364,13.809986762935704,95.90830320945173,-16.72464698701394
270,59078,-8.930547620368305,1.088678666036519,1.4816174447439416,22.36448391918061,100.96494293015405,-6.864569582295871
271,59296,-8.263797220104632,0.8723996866161772,1.318912678354661,30.658813490659124,87.77689699809754,3.7151481939433424
272,59514,-7.897361523847087,0.40261482660504977,0.7292948766935019,32.88653465254863,59.16063017589747,11.13340677573687
273,59732,-7.917988749982595,0.08967430657125974,-0.049274442734078105,32.227763250321026,23.14560493179038,15.972632327308197
274,59950,-8.226517786889247,-0.14417819083464936,-0.6214890953174492,28.914761712365976,-17.787001896463416,20.070167009070513
275,60168,-8.614677164097827,-0.3687310402699762,-0.7957535331454438,18.015856456929505,-57.982088997927335,22.604989194036555
276,60386,-8.949090556164542,-0.5787370518230871,-0.5021841633820945,6.824833391378533,-82.89396034092533,24.89316658136145
277,60604,-9.24835146725604,-0.8331902142090665,-0.2837722910755014,-4.434198384462228,-97.15256687885723,25.010011128112456
278,60822,-9.631490033280564,-1.061155299012193,-0.04891731057077661,-14.27848007601049,-96.44706542978439,21.80478338712856
279,61040,-9.965433872589296,-1.0354118969314787,0.030054484498632975,-23.97784973652908,-85.17377498769362,16.91058872666591
280,61258,-10.47236617792636,-0.8059978291007687,-0.25168217689305433,-26.686857398011913,-66.4878558962248,7.088668518244486
281,61476,-10.889428576651428,-0.42993406683049484,-0.6878204228481604,-31.39430941742493,-40.54881221285271,-5.877048869723529
282,61694,-11.364436851107556,-0.018220883164864532,-1.1321100680368144,-30.171530727727607,-15.579233998052139,-17.600283922779553
283,61912,-11.750081105841318,0.23165699893875347,-1.2932325714247284,-25.84668452027816,8.64804534648593,-26.565995631771102
284,62130,-11.617298338229087,0.5116586043119291,-0.9016932246082094,-18.074367974829993,34.363116746796095,-30.540563218767293
285,62348,-11.307050990199926,0.6712466834563107,-0.1770718061611315,-4.923491295335229,60.28007107993703,-29.52872096429119
286,62566,-10.444779962860293,0.9008893479732898,0.7587956626299666,4.215057255111416,84.46143963590605,-24.767666894828196
287,62784,-9.67360888697168,1.098884665332435,1.4528087946628245,13.412278600967346,96.86003793418362,-16.777264455355763
288,63002,-8.77517227635065,1.0613265681681756,1.5717647372580852,22.051686413109074,99.90713939850578,-7.092242762963934
289,63220,-8.114296100917896,0.7923409336086255,1.3077980426249398,28.70735787401371,87.36622198024097,2.288331449870441
290,63438,-7.769491911479365,0.4500862488140895,0.5042277854732187,32.52248793019804,60.96866106009952,8.192623827077304
291,63656,-7.851935289163608,0.05574831467261665,-0.17976680260016398,31.187869771295475,18.737038635945865,15.241692602294503
292,63874,-8.210769544741222,-0.2080603962537224,-0.6149258560780462,27.51494705651622,-24.564990373067992,19.792656306476434
293,64092,-8.572078283091912,-0.4624300779126687,-0.8320404274649542,16.343188296641863,-61.90164406468651,22.22110340396897
294,64310,-8.930947269271467,-0.6132760997648202,-0.530711261928626,8.585061032400368,-86.98356423175211,25.77837091584586
295,64528,-9.214048846256775,-0.8205042135055436,-0.14388543103056317,-3.081030176085582,-94.29619294033435,25.5912782406836
296,64746,-9.524745661118496,-1.010339599481572,0.13969643789406877,-15.902604955823426,-89.19875247374443,23.30626365827458
297,64964,-9.791289810591486,-1.0231818783597435,0.135158443073766,-23.91358008772159,-78.76044435158289,16.100200198527048
298,65182,-10.346844403620409,-0.7483941896266653,-0.24713310469827782,-29.88044019379919,-64.8870746513438,5.4882875448775295
299,65400,-10.913446598763146,-0.381823836658401,-0.815740779211821,-33.02152625956421,-40.876962048830315,-5.295033896522938
300,65618,-11.495673348226234,-0.034018841737356975,-1.1075628111458244,-30.22023866961847,-15.512016945112528,-19.09709905365699
301,65836,-11.75014568971652,0.21333543755572595,-1.3270566714857643,-25.129750904953088,7.823285952686518,-27.455948662271872
302,66054,-11.61390067524604,0.37933441766845677,-0.7825910114248541,-13.050876571518835,36.10900575133232,-31.024008459784298
303,66272,-11.125460956464682,0.611875065028538,-0.07506215260827043,-3.7660659927807973,63.76487964421547,-33.03450823187167
304,66490,-10.306198189899655,0.8717462166016154,0.8593055749444433,6.839707397015047,93.01592322894238,-27.743819940037785
305,66708,-9.437389683668979,1.0838783013071907,1.6594668222335778,16.254000758316536,107.74591885072044,-18.0665451634788
306,66926,-8.498524055778484,1.0358308668953233,1.891911231967571,27.19405997672398,102.96691957601675,-3.436640863318644
307,67144,-8.00915154347075,0.7358663523771998,1.5359403131954563,31.08977267385592,83.64102404090548,4.832467804896
308,67362,-7.759511488084525,0.3569982742062819,0.6376733207074948,32.78393651027066,53.372116527499585,12.751220559624294
309,67580,-7.863248082381376,-0.04400981068977744,-0.15642008772028115,29.451583514322444,15.067180745395234,14.687916182904754
310,67798,-8.169432833539009,-0.3075248265187692,-0.566440787924687,24.35995170637986,-27.419814652702065,19.271792020026208
311,68016,-8.601327032857483,-0.4470665111830662,-0.688861455765398,15.871289115607214,-63.44528583740264,19.648332003532435
312,68234,-8.9935190377702,-0.6135979628574798,-0.3173171416660269,4.609319049592308,-87.45619584367347,22.90991015273653
313,68452,-9.252527395558607,-0.8686816704092628,-0.036666063593353726,-6.34113078980333,-94.26069007632776,23.310089225105497
314,68670,-9.5756246880322,-1.031382147799433,0.280974824815808,-17.7802188722115,-92.19622354040273,21.048996245286215
315,68888,-9.932897175649572,-0.9677680234333101,0.19258028289322637,-27.717244892454858,-80.65827825421157,15.618175178409809
316,69106,-10.501164099976853,-0.6789164914106819,-0.2392348580961579,-32.89252032711609,-60.050046122103026,6.793332825200212
317,69324,-11.012612534727777,-0.3068547124969089,-0.8778702328097963,-32.87620756587306,-34.29754249401762,-6.359717013834954
318,69542,-11.41809485072574,0.0481771852240816,-1.3111553377719019,-29.98083868872517,-8.686967715020366,-18.87315534507519
319,69760,-11.710425431125136,0.26791862946656564,-1.203033403291747,-21.955370048001562,19.363519320931438,-28.050020108365352
320,69978,-11.562043761635321,0.41521019411099547,-0.7785628567655792,-13.266551390193078,47.96210200464579,-31.95666019434844
321,70196,-11.010991659523215,0.6042406636997212,-0.03250344007137962,-1.2292465956125778,72.87464398632073,-31.671262514673014
322,70414,-10.144414455658394,0.9004222943268096,1.109785958214058,10.923523951559563,93.81536823653722,-24.321325721100543
323,70632,-9.218436958556413,1.0583763355615308,1.5036129211919678,21.369597148334737,104.44803664513935,-17.388221722876075
324,70850,-8.454319579612873,0.9520668311876022,1.64240096610319,28.351235096583117,103.12249231858516,-7.79792511253396
325,71068,-7.989152075867669,0.7009148279025229,1.1195824738382192,31.283369754235544,81.15952891163127,1.3636107737851901
326,71286,-7.773749248042879,0.3411262717676341,0.2590773847851984,31.942010575591283,47.54347402482956,9.094513370966396
327,71504,-7.881103076080212,-0.007039293203930541,-0.4566065850658101,27.76394688658349,2.6693498281738357,14.061089919911307
328,71722,-8.244250277785746,-0.21109046833762493,-0.8578435449047246,24.387091796661352,-37.46662272446652,17.88728168063439
329,71940,-8.626514150662356,-0.4636770190137044,-0.8022518810198346,11.876507429700345,-69.12955930462533,21.875365101331774
330,72158,-8.979630644764166,-0.695562227845397,-0.5533313420852991,0.27225436359672983,-87.29084812043823,25.2219595344516
331,72376,-9.328326426698528,-0.9348282687538773,-0.05691621423295601,-8.088884770034703,-93.21715100948471,26.01674910742842
332,72594,-9.659759646938861,-1.007310672139683,0.18589382316225006,-19.74247966953704,-91.31968497977405,21.6173867138716
333,72812,-10.061636354608616,-0.9058379126382621,0.15965399059299945,-26.120712372048782,-76.07536607601877,15.289735186863378
334,73030,-10.417060269893446,-0.578249751475068,-0.15750877728117602,-32.802335890922244,-57.132278789965746,2.799727162827484
335,73248,-11.161950838861692,-0.20949245899456254,-0.6315191156767785,-33.62055841208243,-32.76936792409916,-11.311662620642624
336,73466,-11.611623589547014,0.10606951687891164,-1.1346593871941384,-28.412900687685163,-10.86197875885862,-22.78828854354115
337,73684,-11.80309607489993,0.366695640796442,-1.0071949509564686,-24.136982754004926,13.06293736241048,-32.275288159728575
338,73902,-11.615147865582072,0.5212400050386239,-0.4951445400615785,-12.945322117333097,40.96515283817267,-36.559779401840125
339,74120,-10.989092716401778,0.7325001062079997,0.31033056111038126,-2.356204738390341,69.35308373545837,-30.45672915200109
340,74338,-10.206501926426911,0.9303010386062794,1.1674650662013963,11.166578705475338,90.76256317759555,-24.02951771112389
341,74556,-9.337605157736515,1.075188092240667,1.5302294891301305,23.314362930205103,105.60154111241663,-13.085399735698372
342,74774,-8.445952029238354,0.9547944433608805,1.609713024505656,29.683796163026628,98.9969122721528,-1.3108870169198816
343,74992,-7.899322274722722,0.7080380297144995,0.9510394896156169,32.50376469219412,75.01782218390504,7.417282605103921
344,75210,-7.811822776539384,0.305637435972125,0.13416389219938452,32.4895910508366,45.08381851089885,14.725771561141283
345,75428,-8.099584304281564,-0.024173149839871066,-0.4394245852051478,28.19051385866977,-0.10131209622826276,18.828756559999
346,75646,-8.404189219897052,-0.23961293404732484,-0.8050920903234356,23.912292217827563,-42.48931156603546,20.948175304040998
347,75864,-8.736173155776628,-0.4293770419919265,-0.8452359935943349,14.702326190143486,-76.869911592781,23.801503358577442
348,76082,-9.088989827268458,-0.7267647548455409,-0.35242425002613914,-0.3764003523353274,-95.95022772230398,24.73853917678349
349,76300,-9.324420479469135,-0.9173381003747176,0.10746327355604618,-9.688833431841353,-103.71097927801104,25.09146002494659
350,76518,-9.735493680628608,-1.0625392279842532,0.28959822371849797,-19.94104442622603,-91.15909086333534,19.07846029627812
351,76736,-10.17041354205364,-0.9906470133263264,-0.022273976778909466,-26.482233790213165,-74.27820318224542,13.64171148177374
352,76954,-10.583962072195444,-0.6279531738370183,-0.5154434328474711,-29.92831168602241,-54.35502341718227,0.29588212226600064
353,77172,-11.202881745757603,-0.21952408457913325,-0.8808223663362151,-30.729546379524393,-27.523770813011176,-12.517641218668683
354,77390,-11.634588832218878,0.19806705671558889,-1.0317122660226448,-27.131561225053304,-3.9326931806111354,-26.10851020272736
355,77608,-11.734772978692618,0.36012838507523526,-0.905478028651127,-19.812908530735292,24.47879467378117,-31.675763763527314
356,77826,-11.466733723718306,0.5111988644779523,-0.41837868430116976,-9.622346770402347,50.01707325593051,-32.69063201380802
357,78044,-10.798008017373675,0.7573177028502058,0.3649498758572708,-0.9296490731741063,74.01981925873861,-30.864631337397995
358,78262,-9.926207159393309,0.9811904525758653,1.0990057659153531,11.77880197168813,94.29955774808907,-21.943516786555758
359,78480,-8.973234343236154,1.1173123197551633,1.4309173334981624,22.305465558667585,98.63759549407352,-12.345870880285712
360,78698,-8.179717029346081,0.9754673233335382,1.4469674485396062,29.330491677840136,95.09648746634842,-3.822550191606748
361,78916,-7.80718543962304,0.6062695330393115,1.0627372900639038,33.90029118884558,73.41988589505266,4.212513289402333
362,79134,-7.631503496538668,0.2207821789798265,0.16642743683442596,35.7102396139818,33.84961967840965,9.962326714845604
363,79352,-7.93133667517335,-0.13181660539134593,-0.4511862647367101,30.412032506617077,-7.198591252565436,17.44790235299791
364,79570,-8.43042857340043,-0.27913094562883045,-0.8339313219712793,23.51537242621129,-42.95345729599549,23.48788849420442
365,79788,-8.81086215295595,-0.54209295833083,-0.6831565316819332,12.124966719867484,-78.11578475030609,26.306823536938722
366,80006,-9.18224185174208,-0.7314503504046364,-0.22728348616452348,-0.25840916213826226,-94.58098573802684,26.957453018647424
367,80224,-9.473997486127109,-0.8643498604376112,0.059618811470167454,-11.693790823893082,-95.3353017617347,25.42982673785385
368,80442,-9.809468808225182,-1.0460431493807518,0.3046796160038603,-20.755286196481762,-86.1458742024502,19.107459299142143
369,80660,-10.174393042542977,-0.875421997375961,0.03708386508740863,-29.77279576998489,-70.02596512256174,9.900242946459594
370,80878,-10.68765122762238,-0.5242046960516298,-0.475439974605058,-31.839585685744215,-48.968120162525395,-0.9592736078822632
371,81096,-11.199720477216841,-0.10558497647061538,-1.042376112448261,-31.887197864305683,-23.2400057893095,-13.929871039318622
372,81314,-11.539993563372278,0.19497690638508347,-1.2763295459881132,-26.392713485801465,1.4283736853742646,-24.279599136602286
373,81532,-11.557285703777962,0.4156383712185514,-0.8499380858042805,-20.76976787961473,27.50896219672629,-31.956915890056074
374,81750,-11.336806519795987,0.6035690442633441,-0.277522577110604,-8.837143515722428,57.267909829813355,-32.58391342695729
375,81968,-10.744506600109835,0.8548349271239131,0.6189197401354211,2.6998926522971143,81.53220686384249,-26.462858880321715
376,82186,-9.86159517545741,1.046238211567612,1.3890834252467001,14.123923000506501,100.17740905820057,-18.82125859130101
377,82404,-9.00216291887582,1.0470843418425073,1.6631019588239238,24.12445731032419,105.96959336412627,-11.005074053343614
378,82622,-8.217816344342205,0.8649256161742449,1.3900070487365008,32.78586404325167,95.02170673474963,0.10130412719426118
379,82840,-7.68515841859594,0.48192670273183885,0.7699123557455735,36.30257487578117,65.84042667406663,7.762938374226568
380,83058,-7.720417858494664,0.1488963185011204,0.05170828310105624,32.92146557829264,30.792882301409392,14.230575620809965
381,83276,-8.070211356812731,-0.16748982050853622,-0.6053072701377988,26.379942049535835,-9.664813025756587,17.626116633535194
382,83494,-8.464707649644293,-0.39989448634502567,-0.8614029949362493,20.302316494097063,-48.07989505602361,19.210016719519384
383,83712,-8.894572631984483,-0.5634586108019018,-0.7153452001590033,8.808733489764787,-79.73391907936158,21.37132539982284
384,83930,-9.186376584860414,-0.8323276436997309,-0.19838720422992584,-2.718375788321378,-96.73114567867007,24.888631491470463
385,84148,-9.388548076898596,-1.0748182359310479,0.020299422954709073,-14.320029938910835,-99.77976177955162,26.065699724140778
386,84366,-9.828420421026403,-1.1126268005294888,0.2692321924201687,-22.445085478994677,-89.14105141940419,19.57341039197293
387,84584,-10.262665496789648,-0.8989033832095703,0.10555320279358252,-29.389368812468987,-72.73439989575286,11.369930983735552
388,84802,-10.722818210445391,-0.5186492497353983,-0.3898389311462823,-32.292376217140905,-51.27055620745069,-1.7015781218127266
389,85020,-11.332636325700948,-0.15202986814077746,-0.9960199478427941,-30.8733439682222,-24.50806602301411,-16.75113705087295
390,85238,-11.732676804161525,0.1401323646561073,-1.1421981559979344,-26.027507026663613,-1.4806186932315697,-25.832242612028285
391,85456,-11.640542036708196,0.40773776977391585,-0.8338080684067677,-17.205005416668797,27.14352052178905,-32.090488815814055
392,85674,-11.365169694512453,0.6062249080430415,-0.2749250113727445,-6.490149243995932,55.82214250425945,-31.58143396234508
393,85892,-10.619136193686314,0.8344170022788288,0.6835143615131447,3.035113114300147,80.79147695866533,-27.24829648544844
394,86110,-9.647516218529814,1.0437929035244262,1.4026102877776263,14.805492070523037,93.25967365050963,-19.264634959026452
395,86328,-8.752556936310995,1.1068328342031333,1.7067934543486933,25.385875219824605,98.30259360934528,-8.488011281382288
396,86546,-8.121547580749088,0.8502886887312944,1.3630784382577845,30.369582119675478,86.95123435747335,0.26169922417488856
397,86764,-7.7970715855330095,0.39510860431630984,0.7490745457317818,33.00878390325837,61.216857632185636,7.395663390650128
398,86982,-7.858515682476407,0.08373248519279008,-0.04266823225729455,33.73390806038289,20.38455809365719,12.843075059098974
399,87200,-8.195511499381936,-0.21367433869306074,-0.6800783267878686,26.965396971569525,-18.895790904957273,15.954518678386512
400,87418,-8.51605506714383,-0.45133820647756884,-0.8704951744561561,19.701468393948563,-55.51371683099009,20.518334510145337
401,87636,-8.84754592068759,-0.6150409660934624,-0.5858310404617824,9.94834538097717,-84.69524324401067,23.697231038826793
402,87854,-9.13787496876043,-0.8364787774120166,-0.1324999071848098,-1.0803118539505654,-97.99396266830828,23.789492046207396
403,88072,-9.380776772495794,-1.046115999108898,0.1465284989715782,-13.18462280082922,-97.3360965099523,24.167201204332738
404,88290,-9.720955978412618,-1.0432783148181182,0.23773436146003085,-22.942791754683007,-83.02698086371788,15.774115606648465
405,88508,-10.291457163513734,-0.8106154500375256,-0.1129787488578155,-30.570841989598716,-63.56234196395714,5.785575431487899
406,88726,-10.8229592140063,-0.4219531933888599,-0.6177371129220253,-33.727570127908,-42.12542422619374,-4.530403539443014
407,88944,-11.313882046044492,-0.019860846256065323,-1.0717504043685857,-33.57486220608084,-18.57904710594112,-17.73797274579994
408,89162,-11.580607019802912,0.26747993813021304,-1.1504194018413143,-28.06545071821354,8.304560158009984,-28.361163615996016
409,89380,-11.619724151426036,0.3855240156307182,-0.7738217609870401,-18.49750598893973,37.57457173370748,-35.1958557012337
410,89598,-11.284729132203813,0.746712952720514,-0.12277388173097759,-6.876254767711686,65.05199833291461,-34.799959451294185
411,89816,-10.407094268261702,0.9511385526951316,0.7677535588020106,6.902014456753809,86.03605444169662,-28.320475305263507
412,90034,-9.521155825078093,1.0607499858847893,1.4521879053114755,17.570298925262883,100.90551596867164,-17.332574026773848
413,90252,-8.600812266656234,1.0627981868767837,1.626692427314038,27.18472255055407,100.45611340093491,-5.266688401090118
414,90470,-8.012202900978293,0.8316186539962009,1.4472089022210588,29.41655242824812,85.67021738684755,2.8226141416194093
415,90688,-7.659427109758247,0.4103885431705278,0.9131639460612619,30.12200282403841,57.16172686554209,9.199364922915777
416,90906,-7.753261665773458,0.023344973326346607,0.0025442534920774307,27.001590098138408,17.899092839896063,12.606528595635382
417,91124,-8.176390131371626,-0.21927087872915282,-0.5913229655276814,23.87167677240178,-26.701165777941874,17.75609790160552
418,91342,-8.545034409281312,-0.41992077375602843,-0.805849467642356,15.408840018936951,-60.5369445502436,21.02020585087775
419,91560,-8.866914663914502,-0.6470378872564495,-0.41412147066474236,4.971068816808993,-86.0144857701862,22.262509050157508
420,91778,-9.28131514698948,-0.8846594835866369,-0.0606103781366395,-5.953362521075984,-98.165012344803,24.092351033206604
421,91996,-9.59782226941765,-1.0578078368689618,0.20755521031220125,-14.494864841977027,-96.43823172028057,23.946715750813873
422,92214,-9.99757298156787,-1.0506708567101835,0.1278692094015516,-22.513651946745497,-81.96584185466217,17.692851727442008
423,92432,-10.418290026523293,-0.8176400491534705,-0.09193489798125137,-27.514119195660488,-62.566693895197915,7.127820861820728
424,92650,-10.909314800465374,-0.4113309752879215,-0.6591982827654883,-31.116018774720235,-40.25534833282721,-6.560670832988135
425,92868,-11.369950505612362,-0.05414813931952284,-1.119886665935228,-30.1627945200533,-17.84242475905969,-17.546536596280315
426,93086,-11.644265355989557,0.23830900244943365,-1.2067815294396913,-22.579007660512612,10.433693336467147,-26.31665463167521
427,93304,-11.597265536292364,0.4233635462018598,-0.8115860848841441,-14.22926313997704,39.34834021509591,-30.100427092788436
428,93522,-11.047107580869227,0.6515191224543552,0.08655618364236961,-6.992182142711824,65.60881974635916,-29.497478881905053
429,93740,-10.23743536090884,0.9248335609501247,0.9187929878590825,4.809518715398612,86.82060625438197,-21.451409749235225
430,93958,-9.276199842423859,1.1397321974204286,1.5148063201585977,15.537326162522257,101.48219221230241,-13.169125223555083
431,94176,-8.481806026175542,1.0662641033339828,1.5821257691955157,23.682328756585402,99.90217364755891,-5.431155426681769
432,94394,-7.899190464935738,0.7990150610927189,1.1467801200888137,27.668254365479427,83.75561161469776,3.7323681948842378
433,94612,-7.7169842298155,0.3293481326632978,0.3082272859573719,32.4360683562545,51.795146718094344,10.91848032646417
434,94830,-7.860219688015066,0.0033153267354213423,-0.459584920214512,29.440394315222754,8.93887957804931,14.243360635801128
435,95048,-8.241008995064867,-0.3070601255476558,-0.8863859939618407,22.63744504291381,-33.89517801454957,18.260479599458066
436,95266,-8.626441737739174,-0.5051535395985334,-0.7262478198600714,14.798400261232723,-65.37095193275172,21.519363377548753
437,95484,-8.927490312368977,-0.6782852788771343,-0.5309778343361498,3.03966631710456,-82.77116607848704,23.971024359449565
438,95702,-9.220294562435683,-0.9390322717999169,-0.028159011438342763,-9.222374660379833,-95.70171547172411,26.380234296200214
439,95920,-9.533523948639779,-1.1880781593681202,0.23222884896185747,-19.27351087597717,-90.69007212169986,23.84311838486345
440,96138,-9.909533003197803,-1.0771830493079533,0.18655893136360857,-28.389370616937533,-79.20256593466048,15.61029552981265
441,96356,-10.493765346497277,-0.7244299671551696,-0.13192734619542473,-31.897381799204958,-60.367544942083086,4.226150130991856
442,96574,-11.050245819644703,-0.2804538834162704,-0.6576216036734643,-30.845056589171083,-38.55627664532536,-8.900604360018946
443,96792,-11.581661182178209,-0.00868677953103636,-1.087297141805756,-29.070028671783486,-13.304441251192017,-23.044850347633833
444,97010,-11.770947873749376,0.2244883134544597,-1.0231871773869634,-22.230407377931417,12.057527332940122,-30.90211226570796
445,97228,-11.65680886863517,0.48723564075667813,-0.5854320013320398,-13.91200020393158,40.68133391831401,-35.903332994766615
446,97446,-11.0279002129908,0.7881935734659746,0.06541068806784778,-3.2135011233641073,68.25712283789682,-33.26223809103577
447,97664,-10.135387345825222,1.0515716971438984,0.9232076821787712,10.655655565118966,90.37393468731574,-25.403496965726053
448,97882,-9.210143429109744,1.1263757122798783,1.612211062364372,20.84520669612607,101.11943735087468,-15.07870182715212
449,98100,-8.464984025214068,1.0359353334533907,1.5335604065317738,28.08385901742173,97.21070374540271,-3.8807931625808383
450,98318,-7.873090231133457,0.7416108940453721,1.093846854115489,31.523181407432133,77.96689957543225,4.629565891137933
451,98536,-7.705447960470921,0.301048240513228,0.2910923979221549,32.62665161658567,48.17690380905529,13.172506976776999
452,98754,-7.841475479499981,-0.07448819684043945,-0.28349297566037324,28.492599806203387,5.092155558869521,17.490118244278587
453,98972,-8.300641531400473,-0.257144872230076,-0.7265140543409027,22.606667774880144,-37.41982945073263,21.532506797911786
454,99190,-8.653475036210486,-0.46852927463974625,-0.6647695039835659,10.092940894748589,-69.70621787574433,23.912334528961956
455,99408,-9.054391164374435,-0.6976777980193203,-0.332027055124394,-0.6359503094949055,-90.89777820989609,25.85242620194046
456,99626,-9.316928250300018,-0.905037995578865,0.011724078655254877,-9.38469359797056,-100.09082716580812,26.276147542138922
457,99844,-9.726292523673647,-1.0550733372868792,0.2916241695779003,-17.188756357004205,-93.09151279835032,21.908753115043048
458,100062,-10.022008849661148,-0.9631166358465462,0.16170144243990883,-24.823333728727334,-75.35034944263265,12.501001974291022
459,100280,-10.520510300154706,-0.6491845046897589,-0.3624951737744293,-32.13668806615629,-55.3848057314771,1.4197582088159884
460,100498,-11.112480370855344,-0.2611994280041026,-0.8919582856314232,-32.57170771903011,-29.031089334387477,-11.205360501427595
461,100716,-11.443944482207469,0.11131147859349311,-1.1276480652980951,-29.971163180452532,-5.430372865437267,-24.16070725191078
462,100934,-11.647600839865822,0.3098654846515775,-1.0275963116234017,-22.331113585322225,21.396132558688468,-32.37211410149702
463,101152,-11.546901684081908,0.4765887237275968,-0.4547037810352662,-12.80575539967154,48.6024839406531,-33.53032928454241
464,101370,-10.933571810795144,0.6620990869630485,0.33693837579898867,-2.5361228462094108,74.27304313031782,-29.865263447394018
465,101588,-10.048964022325436,0.9985553021654588,1.0956407183986432,8.900211530673362,95.28832812542984,-21.090946362756803
466,101806,-9.18473006421365,1.1335497165727841,1.6338948859476397,19.229994613311323,103.32084050054154,-10.694582302973837
467,102024,-8.355440821811829,1.0106476747391298,1.528784837612174,25.185262223706108,97.29266240979915,-1.7312544089205257
468,102242,-7.853462813485538,0.6306110591960128,1.0766418749380353,30.858391819802815,74.28717283723168,7.278644893150995
469,102460,-7.774938047159403,0.20797043882875021,0.32087590282477263,31.571295906506673,38.457238926109774,13.461919236934923
470,102678,-7.968731747116927,-0.12747885974800433,-0.5238920482339384,28.691358206896542,-1.8529703563219257,17.424462123652575
471,102896,-8.249973248508866,-0.42048239315262825,-0.7468188984315063,23.100044364289886,-43.692848210872114,21.834524204658216
472,103114,-8.71826288906602,-0.6089173892291679,-0.7108732601503666,14.81742466651374,-74.09804050588727,24.39613723666887
473,103332,-9.008956596060775,-0.8337410425307489,-0.24179663531465695,4.2294176082096815,-92.00990702878534,25.236264280882374
474,103550,-9.263860244070676,-1.0314902929810976,0.16523115382560938,-7.159754543426093,-96.15713526336451,24.1629580002084
475,103768,-9.531990864169604,-1.1073984368397105,0.33120940646571606,-17.785358719847096,-88.57291131267762,21.664555722806156
476,103986,-9.985634202708402,-0.9679160744633415,0.08729300690795483,-26.91457500948722,-73.59787635881364,14.573345150646757
477,104204,-10.558583257654687,-0.6209093518694149,-0.3811252267652884,-30.723922758263196,-51.35076091854609,4.542125278669037
478,104422,-11.201340722541108,-0.22869636154686895,-0.8517767831981538,-33.22976778064969,-24.681459112468534,-10.150040274649243
479,104640,-11.654916202690092,0.12489070517635342,-1.3240406737494745,-28.649274104154223,-2.4944961989038283,-22.809128437871216
480,104858,-11.748836771754291,0.35562961668984455,-1.0893024640546816,-18.703715359779927,24.639882316102387,-31.36758358347265
481,105076,-11.422589947492682,0.533831652043805,-0.4395292264832221,-14.174013082167054,53.0583928045488,-33.41948016436933
482,105294,-10.83740799826977,0.7475842208148997,0.481965921551215,-4.03211388912441,84.13193831932452,-28.094028139525843
483,105512,-9.930543182098232,1.0656089396769475,1.26311601434761,7.827324917036481,102.24179534953882,-22.190983051128196
484,105730,-8.973468949785122,1.1753938648374007,1.6966840459841745,17.380756847595627,107.40097753257753,-11.72074940348886
485,105948,-8.281404222642662,0.8952526272535342,1.4673926271539088,25.51564129196789,99.92380835286161,1.5320761045741413
486,106166,-7.802380667146573,0.524763986057494,0.8857168122267068,31.62188125761684,75.56521823695662,8.834821585571962
487,106384,-7.744983472490777,0.19879876387072398,0.3079015506842243,31.607106599198204,38.22647714157877,14.3905614231573
488,106602,-8.014234183738756,-0.19209278223862924,-0.36688648531481327,26.722593323790772,-2.189441571744183,18.186309040193716
489,106820,-8.300092059889145,-0.4019634531478503,-0.6312204418707861,17.668171654716076,-41.7439228427833,21.002430883263635
490,107038,-8.66553249054882,-0.586459855627276,-0.5313043689680331,9.177656524192908,-73.23258409833191,24.44140411310325
491,107256,-8.942321156392183,-0.8359990450624584,-0.10020498277115364,-2.15269402743861,-89.32321212346727,28.801120255152824
492,107474,-9.346387863017377,-1.1313053764050054,0.22254710244551135,-13.721893755930703,-95.03500048448798,26.625835003829703
493,107692,-9.725615488490115,-1.1034848086995153,0.39959558629086456,-21.483239537761683,-82.40720257561938,20.69630774091319
494,107910,-10.296558683266536,-0.8436252819372893,0.14079458551155916,-28.690586709841323,-71.09902175298784,10.319362805937645
495,108128,-10.727261761284874,-0.512644799101917,-0.5517963271283362,-33.28471451157763,-47.47554267804735,0.16584634508934215
496,108346,-11.235868011657548,-0.028032472546146492,-0.9356322134918607,-30.279389041549504,-21.52982932377633,-12.454382678862533
497,108564,-11.704868515310478,0.1520947004017444,-1.2336700503523588,-26.12551957908963,2.977510403583306,-24.04706964933036
498,108782,-11.76699485670634,0.36561727226410645,-0.9242161611907752,-18.80034863980404,28.96271670255693,-34.54022213418453
499,109000,-11.391942061992065,0.5286374032697055,-0.3648927912032759,-7.903660232903581,58.03275349160211,-33.86190663951878
500,109218,-10.664619233608395,0.7454793396131798,0.4955371757499615,2.22681689389934,85.28150077224245,-27.868807123754806
501,109436,-9.79491279208041,1.0256984439539032,1.2907482566820652,13.082998053494022,101.73578357272017,-18.37127609845346
502,109654,-8.893343343238406,1.0339720874315403,1.663466882764927,22.262197054174756,103.18830474880478,-9.515913038557745
503,109872,-8.196327758010737,0.8612869431343503,1.514002289057534,28.86016803702497,93.67239297240462,-0.37419814170666044
504,110090,-7.7889881389333535,0.5176689775613064,0.9206085182459802,33.831640627615876,66.98903584736462,5.540922734946246
505,110308,-7.791365427590534,0.16464388506407668,0.1148941863740367,32.82934732901003,26.298870501001822,10.922004839218049
506,110526,-8.021768739711707,-0.10126649150154321,-0.5838376860610319,28.078710438922073,-15.850613972565945,14.63502572393637
507,110744,-8.41476655335061,-0.31080619852765984,-0.7871787096401605,20.471695807550915,-50.08675470323788,20.343690625156345
508,110962,-8.827503981349468,-0.49701287308112374,-0.7445738075986013,9.669751814676957,-77.2736778836993,24.39460983572338
509,111180,-9.102764414409231,-0.703145204784112,-0.3615107659468801,-1.1923353517234165,-93.53816684671878,27.23251486525188
510,111398,-9.408306950524388,-0.9369153146604512,0.17088493119312526,-12.09803381577114,-95.61921847125555,25.17917302975968
511,111616,-9.80040290569021,-0.9752339684182287,0.3492705190933131,-22.37183251957889,-89.08580364642172,19.20208733540462
512,111834,-10.209834839208662,-0.8417925745199066,-0.11192018976748624,-29.679812546687774,-74.03214301352841,10.377485704211646
513,112052,-10.77358258924609,-0.47249860578378156,-0.4829155482822518,-33.58110431164057,-53.88325818403375,-2.2500491264118736
514,112270,-11.270414096834717,-0.15437902992392827,-1.0091580484047196,-32.452013630702645,-26.41872351806941,-16.272800319199995
515,112488,-11.487060515562757,0.12866671142773195,-1.1717086625544577,-27.64179605122075,-3.4958088287654405,-25.42966740330005
516,112706,-11.775000801607248,0.391937896006424,-0.9959016117150302,-20.547385336198687,26.957990696401172,-29.519559137659726
517,112924,-11.363804785473619,0.5844432358782059,-0.3233855520475828,-8.466958483179972,55.67823211475848,-30.064207773529954
518,113142,-10.742512454999845,0.8591641250990372,0.6132114979986105,1.6048310693443906,79.22177797859565,-25.86485982990576
519,113360,-9.794506051692048,1.0730963265405389,1.2278771813911673,12.29484322968817,100.90079878024879,-18.317853164101816
520,113578,-8.87420137865082,1.078927846973511,1.533803747618268,23.723772354844456,102.31891227478786,-7.033438591414322
521,113796,-8.216838505951635,0.8797933674932119,1.3044067156629628,29.77543452190347,89.61428048888637,2.546212599190625
522,114014,-7.926209086745628,0.4459570091820619,0.8372376540897648,33.02479314019945,61.29511874985584,10.078488143665794
523,114232,-7.911887890976475,-0.00982129668001186,0.03584963913944739,31.303009991105817,23.819112469158682,13.880200254108006
524,114450,-8.175795691022183,-0.1966993463679377,-0.5825327926288646,25.532436675896882,-17.592585949074177,17.459340067236298
525,114668,-8.477446626038542,-0.39204759926718735,-0.7512508584139695,16.478517658972418,-58.01225566526478,21.959974241375058
526,114886,-8.845141473990395,-0.5762568584220602,-0.5042125998433225,4.643311163182593,-83.99502471121667,22.342521742417087
527,115104,-9.143222813591038,-0.8834777557273523,-0.08937945523218138,-5.010382053971785,-97.63816069270783,24.493291930738927
528,115322,-9.386959313027585,-1.1387672116718792,0.2650260769464965,-15.502560447955338,-94.45427440666388,21.522387791739423
529,115540,-9.77607158499179,-1.069599628166317,0.37365835680761245,-25.294549845991355,-83.77698109458844,19.01728921469343
530,115758,-10.339869210295085,-0.8270047462529962,0.016098379076826264,-30.712303405501885,-67.02156073620037,10.026371682230547
531,115976,-10.813842723997023,-0.36673502034233524,-0.6041160609413516,-33.4121876951938,-41.761442231346116,-1.24487413455204
532,116194,-11.34031976499993,-0.08206477190306988,-1.0738805672764504,-30.293837491729544,-16.147241923460086,-14.2574470236171
533,116412,-11.560759409401193,0.1688024367816337,-1.2543133335377292,-26.4512148610671,9.31329690950481,-24.740990440633468
534,116630,-11.493470934282524,0.3809629908727824,-0.8722907791052373,-17.62543805427217,39.00826362414969,-32.16271133466493
535,116848,-11.148036298306822,0.6002271894822313,-0.11742584935872968,-4.580391083169486,63.36696680870203,-28.95798167156144
536,117066,-10.46107108858843,0.8320490499299155,0.708500071182073,6.95796883635027,86.50021191529434,-22.87030628966948
537,117284,-9.581980355682523,0.9760154144602597,1.365884378998969,17.380919616830475,98.00121348952894,-14.867953318028228
538,117502,-8.657271250352913,0.966564151764655,1.5287343003494482,24.38787004058931,99.73982841105615,-4.841277767095679
539,117720,-7.876678286847068,0.7879690046905996,1.1487171227491622,28.541659596358482,85.38849481605389,5.3712319582970025
540,117938,-7.636986047356656,0.37893223616764155,0.5965423867875412,32.94785238103265,59.134600136557935,9.977244832020304
541,118156,-7.743396887664478,-0.02360310570995111,-0.21925543731101793,29.36702954573676,18.396592257186093,13.155917818033402
542,118374,-8.049674708517799,-0.2519309497519713,-0.784885614069481,24.697344143886045,-20.83163663333412,18.005948472285535
543,118592,-8.519663541048114,-0.4392636876329843,-0.8707378780765097,15.195363263222632,-61.94032439194998,21.16815654362012
544,118810,-8.828446174867347,-0.6802721379890866,-0.7360520897553741,4.706163659731548,-84.40996317765567,22.224180180957976
545,119028,-9.16408701380138,-0.9039058665594903,-0.19933298528428778,-5.796758775392467,-94.68540361673759,22.40937704169153
546,119246,-9.454071444440675,-1.0278645800641746,0.12209209553653727,-16.127267584215105,-94.93091905073678,23.12634695017196
547,119464,-9.884048794000316,-0.9506773276515347,0.11100718424995196,-24.189740237254895,-82.91240932094462,19.20394831524897
548,119682,-10.476289554561632,-0.7001375077642096,-0.3710377149696532,-31.54664593053525,-59.431520399845866,9.091613970942749
549,119900,-11.098877503758587,-0.3326394016499473,-0.8629778916917608,-32.3624401593627,-34.09252025715497,-4.046600783799299
550,120118,-11.503453038275644,0.026450566130432007,-1.2962885956709038,-29.39100536151974,-9.387479522333951,-18.517518362594082
551,120336,-11.792877948630679,0.31032183830937077,-1.2580822645511482,-25.10846564643343,14.527778578823298,-29.124175642389396
552,120554,-11.691493060696084,0.4665064577735277,-0.8215849895792302,-13.934616789471754,43.0343289613026,-31.835847769406747
553,120772,-11.292182112446435,0.6788321559298445,0.07699983454024362,-2.8255109989397145,67.46915713135334,-31.727432021648035
554,120990,-10.383723996865902,0.9170806865979306,0.9672819715248462,8.083930535005655,89.27915550310128,-24.883149288689143
555,121208,-9.47901271916725,1.1501510290717334,1.5860712600264804,19.78683386501851,100.90085954531162,-15.873887875369293
556,121426,-8.617424399636146,1.0403753768392947,1.727074837119719,28.125642639859635,99.02282840021948,-5.858502652265281
557,121644,-7.995306843088344,0.7217187589153742,1.2635965708788919,34.318911102598946,81.01582191851332,2.5956319248615483
558,121862,-7.632224112787233,0.25131918082085225,0.43656446980919017,36.61969604085372,49.73992420593439,10.21508684999355
559,122080,-7.681384235180728,-0.08823026798469191,-0.32776919335647947,33.00117465400582,10.145382816249665,14.462222180961763
560,122298,-8.097858932495898,-0.3448199066316824,-0.7338995160454453,26.61317778367966,-31.177102311219514,18.289577237631885
561,122516,-8.50610855138468,-0.5168155043426093,-0.8116528019949644,16.329512164294023,-63.02574224224065,21.8603946227692
562,122734,-8.911894540287241,-0.721322309937075,-0.5344441972028025,3.6527027728387242,-88.72866805297448,25.652441287974458
563,122952,-9.27183653042786,-0.9536183575758251,-0.13120543017984626,-9.231754445867889,-98.31750847814585,27.71683050941735
564,123170,-9.600664705343267,-1.127531167050718,0.1341167056730777,-19.45600108303757,-93.22676225476872,23.81577950541143
565,123388,-9.976221614675154,-1.0623176059916917,0.13147862916505856,-26.806840580707252,-78.77978709462576,17.313061747318837
566,123606,-10.462838759723269,-0.6989127661088037,-0.21293719347605408,-29.913937178296543,-59.101708997329915,6.208669755415206
567,123824,-11.045277675326549,-0.3071233007044076,-0.68488374094756,-32.06304332894732,-33.02930991776823,-7.392161212688952
568,124042,-11.414006634640517,-0.01084830338276871,-1.1134239979082894,-30.00400626591312,-6.970900569264401,-19.59855612451355
569,124260,-11.683797886552528,0.21652660073928842,-1.1119075314031932,-22.602470321020316,20.090387837029414,-29.31270804271933
570,124478,-11.594501543680739,0.4271497872965129,-0.6276580255165969,-13.265282292760375,45.5239683725156,-31.174994325859725
571,124696,-11.099796511862717,0.7278749841248576,0.280528018491067,-1.4284676340166698,75.05986134614191,-29.027039415392956
572,124914,-10.268342368578772,0.9462096256039912,1.0224625378828618,10.323482867354695,91.63188005489917,-24.16903313344113
573,125132,-9.219289884322379,1.1295410213812023,1.5929978494909616,20.996263329364837,104.0706749937517,-14.322143535663981
574,125350,-8.503064346743418,1.077260320205011,1.6560308553677254,26.579837579578587,100.29555695933222,-4.6151924601663605
575,125568,-7.963498197604761,0.7239688455058955,1.221057922990354,31.17971951823578,78.21124697993979,4.9768848367546905
576,125786,-7.761092952562316,0.25712116316132827,0.47543952963207425,33.24248491178208,45.41114023075151,11.435645747716752
577,126004,-7.965799465626807,-0.1307839067430731,-0.2387145233646305,29.748007899792068,5.709170049049341,15.656670483642518
578,126222,-8.312168137458352,-0.31638989500560977,-0.6997620582409722,23.91843632398193,-36.270050856828725,17.7546522745704
579,126440,-8.681912527092422,-0.5411805542321321,-0.9168479972730268,12.70846634332812,-70.54531841816322,20.795332738317278
580,126658,-9.114783480477938,-0.757801714944009,-0.431527909503356,2.783578538194643,-91.16659731188156,25.052425090119595
581,126876,-9.40224800291149,-1.0233329360914984,0.03878181909447487,-10.063491303876164,-97.09519527911011,25.406942699901254
582,127094,-9.700154339513663,-1.1481663890246288,0.34026562317861136,-21.787295346984926,-90.82804054714312,21.907153503642277
583,127312,-10.108284181787706,-1.0203731912282075,0.2083562645917706,-28.778376603957362,-75.59581419013112,16.142978865327443
584,127530,-10.61125850389048,-0.6675872554013869,-0.38547430110423775,-32.156786172991914,-59.008560758932546,4.924097404510462
585,127748,-11.153769281163587,-0.2608671508855219,-0.9913059631069305,-32.57660985608573,-32.7089181799506,-8.300820474967292
586,127966,-11.579136324402088,0.06325985239053145,-1.1749347340713043,-28.278862445519728,-8.328284175394518,-21.98347576295035
587,128184,-11.794048171713609,0.28156753383377287,-1.1802972657532749,-24.140575011150077,18.871411240177498,-30.3291106094292
588,128402,-11.569732106282638,0.5181200220295494,-0.7035337315477354,-14.321322594989663,44.384843463763076,-32.99566958303919
589,128620,-10.981867144840471,0.7259593831253769,0.19352835178029792,-3.2765598544078482,69.81555057277905,-28.159084398324193
590,128838,-10.06120550652689,0.9664674781817029,0.9272591560372083,8.538846978696641,92.5512768237454,-20.960073962428844
591,129056,-9.074139052764586,1.1346867359805832,1.4726042793450222,18.64026534601701,101.22842066208642,-11.940970300516168
592,129274,-8.259892553126594,0.9795175035581132,1.3564944819570084,27.355093774342407,95.99813390761767,-2.723694714132341
593,129492,-7.934950052289175,0.6861418517232514,0.9755912778043574,30.400720121071515,75.21295409782448,4.32064621038513
594,129710,-7.883885985862223,0.18796580448287487,0.29960136346837873,32.32585603374418,40.17416301228248,10.858171826328016
595,129928,-7.933533896337214,-0.13965588559687248,-0.49302923001406473,28.808778209566945,0.07056908799867045,15.343546496395618
596,130146,-8.390591010328967,-0.36145953230535927,-0.7729500994873902,22.420814309647543,-43.843978221115655,17.9666743528432
597,130364,-8.814644658142795,-0.5334244048938065,-0.5487872521357211,11.953714208829181,-74.76881408290582,21.040282192278582
598,130582,-8.96977167870464,-0.7865847680644796,-0.2973171299144244,0.8334014472816875,-95.80510467673903,25.024069144032964
599,130800,-9.30232652447108,-1.0464193766201593,0.03547919633917135,-12.753603310252828,-100.4017745998116,22.444303516463098
600,131018,-9.667947748679385,-1.1464659434679707,0.18105458037768904,-22.607465013632314,-93.4055852223308,21.17177192701404
601,131236,-9.997255089353184,-0.9915987668362461,0.1257997669177303,-29.63886899495871,-76.5932907306602,12.165925984597232
602,131454,-10.50585079465657,-0.6073183224987015,-0.4492684718498664,-32.829812183763316,-55.43996597573886,-0.26605142637301604
603,131672,-11.089812338005098,-0.28559599200738084,-0.9713370505959709,-30.38502679469332,-29.711850131120016,-14.28303336784655
604,131890,-11.508437060748745,0.05590781318670135,-1.2525957990141192,-27.826011822580014,-3.6695376342334143,-26.015829304280437
605,132108,-11.690555114767069,0.3112188556539406,-1.0142180194341783,-22.114144379121267,22.8949908339046,-31.080924933602457
606,132326,-11.353780865217992,0.5233456774645996,-0.30147567410326126,-10.31203170698301,50.857686162621135,-35.46781060545561
607,132544,-10.773518784442338,0.7169952048662227,0.5075737883875169,2.724511337076555,77.18442260198198,-31.596905622602
608,132762,-9.980392572022962,0.8977495403016353,1.1105513712069095,14.895956452726328,97.64495897663092,-22.60000695479065
609,132980,-9.047668872762543,1.0240699013152712,1.5607988620986166,25.013272462390994,104.93486006745056,-14.124344213138096
610,133198,-8.222621182275558,0.8170667491025638,1.4440834105274842,29.178138240691695,96.31557239307661,-4.586395633715027
611,133416,-7.895618667036998,0.46678141853078,0.9667001139685638,32.40338629484301,73.45231511302298,6.199446727703233
612,133634,-7.802229104735199,0.13891137739115073,0.11026029943585947,31.97804796955699,34.406017594730514,12.829284101171451
613,133852,-7.970188044692772,-0.10699609780031158,-0.5285460762730638,28.836183156015785,-7.356282712369129,16.36633062224752
614,134070,-8.330654622779988,-0.28860015928749794,-0.6477334319305665,21.699030016915877,-48.850209860615685,19.027090743387625
615,134288,-8.81390428118065,-0.500035771579949,-0.6789809810235115,12.648318601930944,-78.89843051592126,23.45873889934809
616,134506,-9.12192492292326,-0.7479975587460869,-0.379195851805265,0.34990892404597496,-95.95594713384804,25.371907153635952
617,134724,-9.403263595602253,-0.9677701142909574,0.0026459297942355575,-10.430850875754164,-97.45739442238083,26.79805855259016
618,134942,-9.921383137671578,-1.0830698196116804,0.2748259861690984,-23.722514431649145,-85.49140216600907,21.78949055163657
619,135160,-10.390475815520809,-0.8811721388770528,-0.03639168791674907,-31.058010464078624,-66.68886165311967,12.10757777301774
620,135378,-10.880514388325059,-0.4526990695891921,-0.4227660708001931,-34.03721296116687,-48.31445478863843,-0.4522632181208426
621,135596,-11.251086371331535,-0.13848547216595308,-1.033937484435228,-31.361669566762785,-25.16172959930559,-13.679942139808839
622,135814,-11.606320818216858,0.1309631688033771,-1.423905548909464,-27.33486597109981,3.1393738734914507,-22.718639446031943
623,136032,-11.712138279582394,0.33309816377851453,-1.0118803966318044,-18.862657913191285,30.187706538962697,-32.981020026801886
624,136250,-11.432835762352102,0.5467938122636408,-0.46541256555916843,-9.370108930836711,60.3093818308582,-33.9891663280174
625,136468,-10.82791511385951,0.726028744923849,0.4506218875121648,1.2941441222245835,81.66650221174,-28.683540217254087
626,136686,-9.864593679942557,0.9880207590354195,1.2612956440775043,11.223466160527682,97.37917598999812,-20.233839834927515
627,136904,-8.931024112996404,1.0972701669713452,1.5618171570498927,20.5257575047927,105.5922414079533,-9.587045486442483
628,137122,-8.28594935846872,0.8871128145884426,1.3128270550856471,26.723573492239176,91.7064405126978,-0.9070935557297375
629,137340,-7.756393046674936,0.5569675337843429,0.8597644813691567,32.11486811354473,66.06714043994693,7.525050664641546
630,137558,-7.760889180603947,0.11633131818284514,-0.014105974023280399,32.449025307740406,26.705606670639078,13.338724197396026
631,137776,-7.996489479063061,-0.1319029275188583,-0.5766493731896117,26.030315670455227,-13.186431442629768,17.29323059435484
632,137994,-8.459932895039524,-0.41473568530315863,-0.7785338599635591,16.571485606093688,-54.980366478228746,22.901297425822378
633,138212,-8.903891667823764,-0.613304660510537,-0.6204701722420766,7.239237755618467,-84.27811924956909,24.359146745269058
634,138430,-9.15098374507161,-0.859023816738886,-0.22991533266752334,-6.108476682285403,-98.7665875390266,26.91293606364765
635,138648,-9.48693460309544,-1.0995398477374114,0.161264291603833,-15.154527295104197,-97.78144231718868,24.752906238685874
636,138866,-9.76513049174145,-1.052307158954004,0.33237609950746355,-25.77582680669998,-81.27077661014246,18.139136871914378
637,139084,-10.284248704270201,-0.8408467282109633,0.021567017536048283,-30.837534307547667,-62.76584938861642,10.425129709478906
638,139302,-10.84778273464829,-0.4714624066965879,-0.42296628126641483,-32.022202311878836,-40.65076962018087,-1.2416694450167363
639,139520,-11.302152715518831,-0.11839586056779722,-1.0456349826545963,-30.60375847745992,-19.221902411389586,-13.500360780770306
640,139738,-11.71121853222033,0.14618287074533143,-1.2415432726096804,-24.82619571951144,7.473248213948086,-25.29915684247118
641,139956,-11.713043875670559,0.41264860781205565,-1.0728410023023567,-16.37920626280289,35.98817635091518,-30.575750834614283
642,140174,-11.297805075734193,0.5746796256958416,-0.3529870878659862,-5.8938915940537875,60.80101568243547,-31.768755347088277
643,140392,-10.675457665921414,0.7867640905903671,0.5972444834425988,4.266493262937679,82.8962559407932,-26.958476909656405
644,140610,-9.707721671384698,1.0073610441305951,1.3421095026187544,15.055855566224869,98.59351973744853,-18.027474230904012
645,140828,-8.847596587606427,1.0260355696063619,1.4836751980302263,22.672008358176917,99.71562616067824,-8.306532800907473
646,141046,-8.085562275605612,0.8171313661413373,1.3017546093640668,28.240838907824426,88.74043779601233,3.0904405496776963
647,141264,-7.781559864458761,0.41309725679770465,0.5884131668631846,31.80037166537809,59.63862137058952,10.495251440557606
648,141482,-7.878166987809081,-0.007031043209919152,-0.09237190550087027,29.194536490170396,23.2976493455281,16.233913949560502
649,141700,-8.176639400861468,-0.2310190365951143,-0.5421978206815661,24.19603893669058,-15.53317369219586,18.980776874693
650,141918,-8.594047838544617,-0.4026267852642903,-0.7371484449261839,17.78604816495365,-52.629870425359854,22.48942194116303
651,142136,-8.893934135206843,-0.6003711186818442,-0.49127451432543234,6.546675372197315,-83.00678264452026,25.231051706765278
652,142354,-9.047599297847382,-0.8252299905080015,-0.17152043036354808,-3.0682357211101596,-99.58767893876639,26.002306257957063
653,142572,-9.375979182097112,-1.0651548023112318,0.11905339446082519,-14.643655399002458,-98.52750933289776,23.453626622849757
654,142790,-9.832287984774883,-1.1271972992709576,0.104537987572566,-23.994130953082433,-83.79751619540951,17.303733654303024
655,143008,-10.362347338008219,-0.7986628367934081,-0.25109867386890705,-30.006675750035164,-67.03828687983804,7.025314367175
656,143226,-10.856701660062377,-0.40161394221433044,-0.6089245038791291,-31.647062847902482,-43.59024295875783,-4.466345028499619
657,143444,-11.425694603953378,0.0021873242130885373,-1.0190500000167755,-29.759593988715803,-17.42392787723835,-19.23713331245171
658,143662,-11.790238449721977,0.24229182245770303,-1.139655841547027,-24.065184762848595,8.971759220646543,-29.192454395561366
659,143880,-11.661569690506477,0.4311422343785562,-0.7453902221624431,-14.622692379374595,38.87100631001325,-33.64662550521504
660,144098,-11.203189203399486,0.6442941654322375,0.04537463754380888,-2.189451865050687,62.987632041448634,-33.582915547285936
661,144316,-10.365348652301238,0.8979543220647354,0.8263052801588534,6.871816882087895,88.10304607986482,-26.35987464212045
662,144534,-9.359311251973999,1.0775351829901774,1.5364371024133758,18.918699625451808,99.05470711380896,-18.10711843884149
663,144752,-8.535813067253963,1.0379433535749096,1.6645380344758236,25.83496259952615,100.37818828892003,-8.405302552610843
664,144970,-8.035188594583222,0.8017057783734911,1.3391222718381102,32.34252220817838,87.00031948376034,1.8534817234751042
665,145188,-7.7287898104775845,0.3724148047573742,0.5977077925639159,34.0058278508931,59.10796766466787,9.799834986442798
666,145406,-7.837363540990084,0.014642811796160116,-0.13709617059593981,30.158246657985906,20.52280410511736,15.603314493381657
667,145624,-8.098462345796587,-0.18963375166820703,-0.5907042767655433,22.440306795695307,-22.044573460202677,17.453925733668793
668,145842,-8.570985709462155,-0.39517690742538214,-0.6521492645919926,15.004696822065622,-58.93618717945003,23.334348111306937
669,146060,-8.917943510000425,-0.6579232337932208,-0.5604094498867458,3.681332323608041,-84.47683982178813,23.764935649163537
670,146278,-9.204683743906006,-0.8941382019135505,-0.18846344785932362,-6.950495491398323,-94.90330703705187,24.457647248417075
671,146496,-9.47224578529378,-1.1026759174742424,0.19121422146084738,-15.578395944245575,-92.48623215423527,21.40173283909445
672,146714,-9.85428334278507,-1.0571421853885692,0.11631569969426886,-26.09524880863023,-81.11819309515062,16.97632319717699
673,146932,-10.296522122235453,-0.7334716524706881,-0.2107595586748921,-29.047961614365278,-63.61247255828103,7.182718300288286
674,147150,-10.886089837801952,-0.2953292659416935,-0.714234594017914,-32.682273301908495,-39.76364998870146,-7.27469927904864
675,147368,-11.448417588456238,0.06550555155592341,-1.1221949413562202,-29.40862387786484,-16.33297941601253,-18.289952308904553
676,147586,-11.732039580294197,0.20282743482707682,-1.2364304852018195,-25.42042293731791,8.256334087228694,-27.86384019044787
677,147804,-11.629232133476668,0.42609408691935485,-0.8459492259487458,-15.448451872828455,34.74465960160245,-33.337556277168254
678,148022,-11.165047611613195,0.6277186080828819,-0.020872073092534027,-4.621270828908029,64.59786613332732,-31.42320912330785
679,148240,-10.305920795412087,0.8753598007455846,0.9074239664854081,7.121012172083166,88.21177877437333,-24.68099116101644
680,148458,-9.508031405095165,1.1328753207245998,1.436367006182134,16.653617081400604,100.64452956091787,-16.64047805622585
681,148676,-8.515715235311257,1.039099636639568,1.5300283467384652,24.416192503882883,100.69862285252545,-4.343405626885609
682,148894,-7.9388552235069865,0.7201018097887701,1.2762580196545392,30.56264732588055,82.09158789605678,4.041010031040207
683,149112,-7.734928484853351,0.3415245007536593,0.5358677354629869,32.259973497490435,54.78474703407752,13.804455276222216
684,149330,-7.857130867477537,-0.04055638450367682,-0.30218563506170915,30.78949353981541,10.25646728864426,17.06376363553938
685,149548,-8.175213988983021,-0.2572833389639516,-0.7853585006837542,26.41631840196104,-29.261135218489642,19.601299013411275
686,149766,-8.540043229643778,-0.44938604597637966,-0.8593171514544173,15.81589763660456,-62.40761730239506,22.075778531370844
687,149984,-8.930279185898572,-0.634217540336018,-0.510628007935365,4.732573006975752,-87.85938291823206,27.486980147408133
688,150202,-9.202823790170687,-0.9950833021487737,0.020825489151504728,-8.520133114395483,-99.53411916705576,26.418431689728827
689,150420,-9.461480716344624,-1.1374084661802528,0.2767590642302962,-20.564810909538295,-92.3397836299387,23.185566983475482
690,150638,-9.95972021285985,-1.0369066339277626,0.22929515605136594,-27.7496872110716,-76.15187568211971,16.868730118175712
691,150856,-10.36001077832759,-0.7322253399854839,-0.18038800236513633,-31.214918351094273,-55.09860074505909,5.235174239025447
692,151074,-10.833489773955817,-0.3237332898801155,-0.7276513424789902,-31.92743443389612,-35.100775842802825,-9.925161030016211
693,151292,-11.2565873282461,0.06048754650463928,-1.1896273492790903,-29.187429034354818,-8.98991180313519,-22.462320685297307
694,151510,-11.499749455209832,0.2588420318030664,-1.0800479810868377,-23.669563596887876,18.216529626050182,-29.208287444072756
695,151728,-11.428134593075399,0.4303648910214268,-0.6009616220639347,-13.37385891977253,44.42226144181106,-33.58282084894293
696,151946,-10.85924457867478,0.7253922981226129,0.13818215007885482,-4.117623775816012,68.29138267877482,-32.43968585271311
697,152164,-10.118717866824923,0.961946806619873,0.8800433034813617,7.881636359765986,84.73044797806894,-24.456443624770394
698,152382,-9.123039823396695,1.0532343547397782,1.2513222322330506,18.62057242179797,99.69025910858004,-14.755116563509082
699,152600,-8.34570955164403,1.0307059962052179,1.5421377415863504,27.40624222479625,94.94619597711954,-4.142380709284426
700,152818,-7.918081763255267,0.7074333677884235,1.0899446529247903,31.267560730172157,80.10848402057609,4.224618758518718
701,153036,-7.847037869182222,0.3166284092932687,0.41629412089317197,32.32800211594705,45.375537410849205,10.255849749138434
702,153254,-8.008421682984096,-0.04618288732933218,-0.3694686728232853,29.032255558290842,2.2426397407429874,15.489571741488014
703,153472,-8.368557710443529,-0.23685187738423225,-0.745752572926602,24.219153631900873,-40.21330010283081,20.957702153913537
704,153690,-8.731631352154011,-0.41816546415581435,-0.6808699313221245,15.27546444142225,-72.00196981304231,24.210035582528757
705,153908,-9.061681258839638,-0.6455084308054098,-0.44930810033311264,3.868220539869684,-89.10702930297029,28.405888568290813
706,154126,-9.282324451803008,-0.8639474705708426,0.015911696730761038,-6.9231177252673035,-92.72211863341289,27.433319595374456
707,154344,-9.69740877755926,-1.0391799102886246,0.25280947531241094,-18.972621740963334,-90.97247281176054,22.914981470825424
708,154562,-10.134877655796604,-0.9197274674390766,0.26183169360723935,-26.198581638010847,-78.84792583732037,15.363795976406266
709,154780,-10.6424880175781,-0.6111107542492873,-0.28198417067573445,-29.963674923740385,-56.04877675206869,3.3435784166893967
710,154998,-11.116245904567945,-0.23007779286018665,-0.6821115296034657,-33.45883846111799,-31.68441850416177,-8.550091080388137
711,155216,-11.576323602182713,0.06315982931039071,-1.0597641642474012,-30.73734784358535,-7.528982471454473,-22.650953862949002
712,155434,-11.763245523114591,0.20215898031708232,-1.0665125733434984,-22.50538067017876,19.053139269911174,-31.50858353544622
713,155652,-11.509573138836943,0.4883684621172826,-0.5908023443063686,-11.328211010749396,43.90208483189253,-34.983729082394284
714,155870,-10.907856219903241,0.7361845100075928,0.2687538415528671,0.38106593713004955,71.09980575019046,-30.32694000539994
715,156088,-10.09095873199673,0.9556402854626408,0.9477226227206615,11.816134745507615,90.5577241090653,-21.32175271204988
716,156306,-9.09237977335457,1.0721226148891403,1.4984299950177293,21.42379993507855,100.5623771485178,-13.372933188763653
717,156524,-8.239770231359046,0.9355511836571158,1.5429284728805956,28.863577789550977,96.33882616472022,-2.808842509213795
718,156742,-7.7561517379565785,0.5803933106580497,1.1129079378351086,32.835194185383834,75.20504514889785,5.0423731637200975
719,156960,-7.697956151888556,0.22635286685578615,0.23334341529893998,30.810585230298877,40.2369650236564,12.183426548805485
720,157178,-7.938233972053707,-0.03402297579851077,-0.3422687638482581,29.354117456515972,1.8509354782421639,16.806190563361213
721,157396,-8.278119840112938,-0.29330300965965267,-0.9404789379069541,22.397604398563896,-41.016208074118815,20.04735175304391
722,157614,-8.832408383772973,-0.4559524213634766,-0.8375501900603937,11.586473781375949,-75.38026374806451,22.300191763464177
723,157832,-9.179338913247078,-0.7532496943556113,-0.5442109309319931,0.18415498751919834,-94.2778431913281,25.856411114938336
724,158050,-9.531923770727072,-1.0106321303942194,-0.1389537830644409,-10.565128300371287,-98.49304266942501,26.571430810474144
725,158268,-9.676482552745012,-1.1053240805758384,0.16028565023066466,-21.456518355632564,-90.85360410297454,22.3066154538344
726,158486,-9.962001878916078,-1.003761641736882,0.014437901497337424,-28.554714679769248,-75.89790823988967,14.23026267270585
727,158704,-10.523750037648941,-0.6340246688260041,-0.4738016382936007,-31.498825731328566,-55.81055678179677,1.6149931035998488
728,158922,-11.050272104359902,-0.17401504886545527,-1.0108129509479424,-31.03393638098291,-30.944646059443244,-10.604744527401262
729,159140,-11.509732333608886,0.18649786966844306,-1.1338030993315042,-28.67306982447915,-5.058449462508165,-23.93990266109904
730,159358,-11.686003201121967,0.2927602187658735,-1.1333801479810777,-19.953019743680255,23.60311090609709,-30.79396923879206
731,159576,-11.507333176310679,0.45718300621123187,-0.5138121286237453,-8.782638272926214,51.69270365142624,-32.76882285344727
732,159794,-10.796108781236303,0.7404888096928284,0.38068986349212186,2.137103382509423,76.84949385992165,-27.209093727100587
733,160012,-9.932625046549134,0.9601192684123989,1.232325225016083,13.747929808776265,94.87765168036165,-18.91553834641885
734,160230,-8.947169003889918,0.9350453617999531,1.503389232749411,23.16033803846385,100.68731910943305,-7.614483465118086
735,160448,-8.20353626399402,0.8329391242561366,1.4449407112038661,29.20496283884106,92.39073874985687,1.0078183897203896
736,160666,-7.746101707720223,0.4572148132940788,0.9230040292073237,32.11438029821991,69.92080664857797,7.190051465860646
737,160884,-7.715875887295703,0.06966565011337139,0.1566782915951701,31.597120514467854,31.24087006213481,13.280730017395086
738,161102,-8.132359979718192,-0.20128717900722864,-0.6128950253559823,27.86317301610332,-9.668057545910635,18.23926904014807
739,161320,-8.471006431841086,-0.38273763308019104,-0.7831190501732862,19.719346869356997,-48.20313670073016,22.96064298496733
740,161538,-8.786443813974694,-0.4843206334964551,-0.6418305816591245,9.242372922643911,-75.86640696057952,26.19925920231516
741,161756,-9.129648992858709,-0.7307721805453058,-0.28274980528776816,-1.1264445122276499,-93.2064296911071,27.02180797265791
742,161974,-9.317477170602046,-0.9658831964438673,-0.004876345998814757,-12.049673739514436,-96.9812279612771,26.27661556011222
743,162192,-9.663077304140833,-1.0429794698826051,0.04200462202336699,-23.613091323974448,-85.36112625609806,21.34325391646466
744,162410,-10.036187569499074,-0.8641908794144284,-0.13928446180351212,-31.88878439783589,-68.44694174040671,12.88023652046325
745,162628,-10.506048346983508,-0.5275660521947192,-0.5517807566619216,-36.253152473251475,-49.04181824925482,0.5430635771225685
746,162846,-11.132713859761559,-0.18027495233884072,-0.905445723420081,-32.342698999995534,-27.12494467099772,-13.07045509869616
747,163064,-11.588806314004005,0.17764565734442833,-1.1395933994552427,-27.00031894163557,-2.26471360523243,-23.322455922729343
748,163282,-11.711863463596135,0.4347579989829582,-0.858344895853755,-20.100348318542025,27.315540852059385,-30.778995569136338
749,163500,-11.421377218335055,0.6298748642004349,-0.25624297287385966,-9.673907288258217,54.03071530404374,-33.200890886270244
750,163718,-10.733422669961707,0.8567635080304177,0.6629800774189285,0.20828750328660028,79.70327585881748,-26.61771184954216
751,163936,-9.862292587306413,1.021308504503193,1.2931551777263806,12.89551164203453,94.96638049778878,-18.565012718836364
752,164154,-8.965228630288987,1.0573230579526758,1.6139427391578562,22.01914211416536,100.53163398288129,-8.808059825265595
753,164372,-8.210469100351949,0.8570798938588844,1.4765590045818937,28.40167091662366,90.29671904495711,0.5411902936773689
754,164590,-7.928592130676353,0.46785332467814394,0.8021369836358639,30.702401904904317,65.0148435525324,7.098658773179465
755,164808,-7.925334183683091,0.14202186856012572,0.20092445608497034,31.689922754231972,28.98522110407196,14.145402705185
756,165026,-8.11703911911268,-0.1552307554374665,-0.46448421237847115,26.56529900760998,-17.082923566329903,16.97471369857593
757,165244,-8.525368540987564,-0.3336615578931866,-0.7815936519349145,16.613749675801568,-54.13443695367883,21.01415210423737
758,165462,-8.830014267437196,-0.5332515930805144,-0.443398423444085,6.179797942836455,-79.25073080852553,25.086341031006356
759,165680,-9.189020629215483,-0.8040457359769663,-0.17696575763950262,-4.399104244306059,-95.4270721475403,25.851990316071333
760,165898,-9.468391094677834,-1.0690278566458078,0.2516345014902795,-13.781247399905522,-97.71587543320882,25.755631623046987
761,166116,-9.857986559567017,-1.1652657058562526,0.3218861032300011,-22.490041579490786,-88.30897848485915,20.898593021786894
762,166334,-10.15684423567098,-0.8057253109327986,-0.04496165660334506,-28.859801779146984,-71.9891730509871,14.320378530334256
763,166552,-10.74305136959793,-0.41948984152951346,-0.5345727472730395,-33.25014065715885,-48.88361375252751,-1.3627402423307124
764,166770,-11.315847941676317,-0.07700868684253176,-0.995086924038624,-34.47661401897086,-23.528544322411573,-12.06000398228531
765,166988,-11.724211774408003,0.19888251488885894,-1.2101185453971917,-31.591034863214933,1.4581044174698832,-25.232211546780825
766,167206,-11.688901711124528,0.38135037734574506,-0.9345125558390752,-20.62030340657691,30.45959622226988,-32.131223867328885
767,167424,-11.290750821616452,0.5322163488721365,-0.24235189919166877,-7.814160868593884,54.413652832996945,-33.40968187902742
768,167642,-10.57495323755931,0.8155405418694901,0.6124802999403068,4.078020504024398,78.7270100915001,-26.614993470254362
769,167860,-9.652174297274417,1.1051566491973623,1.4034830396923317,15.47621038362133,99.25044146963123,-18.733218873729925
770,168078,-8.779099961790065,1.0379151576331553,1.7303195453758529,26.195306953787203,101.4726223247063,-9.68717885070901
771,168296,-8.043813982269167,0.796324875710134,1.4026859933217164,33.27773024358893,88.57339264925592,0.06366655058763371
772,168514,-7.657576710339443,0.4549438219069577,0.658257980371324,36.33188721315305,57.99246422716,8.976870047239267
773,168732,-7.7150598082434385,0.06237642196884169,-0.1466284537769419,32.18735302638108,24.45309230156301,14.24453879779055
774,168950,-8.078658580666788,-0.17428602199286197,-0.589992385992438,26.941211523473257,-16.562830849812606,19.243753957508883
775,169168,-8.476199297830686,-0.35933284081317235,-0.7927786449530517,17.01004169263311,-57.41693144578094,22.74480160654941
776,169386,-8.900542622734722,-0.5815752384750983,-0.6056856884505312,7.79377500380372,-83.32037891751796,25.501233842888254
777,169604,-9.223891028621827,-0.850177779186841,-0.21399233452882604,-3.6270154510048336,-99.50940143120587,26.436969479716083
778,169822,-9.48597399847563,-1.0393233980065997,0.055671568536691585,-15.277503452033976,-98.16740988371197,24.00322679108846
779,170040,-9.907516797733367,-1.0930578937997286,0.14089719797220268,-23.81960158215385,-85.2324781846375,17.400376933418276
780,170258,-10.31613111534302,-0.8473165291158593,-0.17878190522685633,-31.080110756070738,-67.09566411353926,8.746875029938815
781,170476,-10.861341585882244,-0.4540400139330265,-0.7398547821032754,-29.85023965346146,-48.29253671331828,-6.479623279972401
782,170694,-11.399290967624658,-0.0690247786344988,-1.0036958687285331,-28.62834219872582,-20.886088329220495,-17.69603511963399
783,170912,-11.702887736024461,0.11801266423712728,-1.121744603443574,-23.78456995615871,10.82594052452922,-28.86701705614307
784,171130,-11.6079484950094,0.28884418706317905,-0.6737224320000363,-15.680451738081194,39.18593420190595,-32.99978559070238
785,171348,-11.173035125593275,0.5504042425456861,-0.04400747749061851,-5.663985361487123,63.720219382624336,-32.44475909823361
786,171566,-10.531615708405527,0.8397573023437437,0.88001135422485,6.93286460479394,89.27913129343756,-26.13307084599238
787,171784,-9.586552234336635,1.0354648167770726,1.5301211401600268,17.871762800979887,103.19589254686794,-18.30588275380941
788,172002,-8.611316645856874,1.0526248920171417,1.7696418888033836,26.017204268223995,102.70326310610314,-5.237941100927033
789,172220,-8.069408153160717,0.7307194396016246,1.5480598182658518,31.599575400788527,86.5947237095383,2.630640473338434
790,172438,-7.90949565131283,0.4361738559848957,0.8189466492394633,33.82174702155881,58.64625672472954,8.469830475319458
791,172656,-7.90953900324964,0.10288179306691547,-0.19067200515435667,32.073730577221696,20.04345272987949,14.009986242130125
792,172874,-8.247817712615989,-0.18016540036701734,-0.7359778279896683,26.217693877261752,-23.800183580614977,19.015536050713173
793,173092,-8.63756844448833,-0.40429641353739576,-0.7424863559803347,16.755089928948845,-59.43520767762326,20.72443455615917
794,173310,-8.884755145953067,-0.6829118155236005,-0.5008365736112329,5.506876184242358,-86.47139710408995,23.62793983144641
795,173528,-9.13817800033175,-0.8543027908131975,-0.11457399198018309,-6.363720153691984,-100.7478934172591,27.09048662352966
796,173746,-9.535522147961267,-1.0856667779450926,0.19933975485956412,-16.05566488244893,-93.75801732184705,27.010165321899752
797,173964,-9.854645851399743,-1.068351739532269,0.13708095595934358,-25.13698736727831,-79.61088592453217,20.52080643826992
798,174182,-10.308376401383233,-0.8597569378731781,-0.2382388987788476,-29.0474447607644,-62.08277730249263,8.756205665264867
799,174400,-10.721557637998533,-0.43328660908563427,-0.6237476949073814,-29.358698032499053,-37.82803357560811,-5.512991836459861
800,174618,-11.428856267973533,-0.088107544232362,-1.0154096454697905,-27.672696607880386,-11.196968486822438,-19.98936018812855
801,174836,-11.698334721170093,0.10491040027004614,-1.1698544535660351,-22.123904276807117,10.02441545850365,-28.553025826565495
802,175054,-11.52373889221473,0.2877487417181326,-0.768142087540711,-12.05015149967031,39.62881837907278,-32.741849332658205
803,175272,-11.084849369736508,0.5118294601306491,0.008598291602635255,-1.0184906104034877,66.85623367707329,-30.57328628477322
804,175490,-10.332898684757483,0.7890935289910135,0.8419637225801725,7.793378203654131,86.50134046744378,-24.336856799018733
805,175708,-9.413023240239275,0.9696200763249345,1.5205227561990156,16.910098693129044,101.03702984428062,-14.335735273110515
806,175926,-8.461994017784766,0.975950622630296,1.6954193791973515,25.62063264534711,97.38151599173513,-3.553238153924985
807,176144,-7.824446843082067,0.7063981246937276,1.4373303876398262,32.04354480595002,85.3088348310131,4.399896333120637
808,176362,-7.723473718680085,0.3261205529306954,0.5786157665373811,33.37148559418714,52.70035365647212,10.934973173570459
809,176580,-7.865322173096624,-0.05221741787274803,-0.23573866612687544,31.999969947299874,11.987241879530757,13.95983456841942
810,176798,-8.319837457601809,-0.2838964184598022,-0.6918064994361631,23.66605831527617,-33.18283494127739,18.88934055397594
811,177016,-8.489319674362939,-0.42498405397927785,-0.8389345055682449,14.462500385525036,-67.32684354208801,20.81348693009035
812,177234,-8.976274046361768,-0.6641008304634466,-0.46060002586643456,3.9158459171851607,-90.9151358310896,24.603261476828216
813,177452,-9.248263438201493,-0.9599590380627026,-0.14308455961709793,-6.7860834329914965,-96.57145555782255,25.924695859794024
814,177670,-9.49393714760581,-1.048719051355496,0.04189379884975619,-17.012604004359034,-90.0563826225417,24.50394161298484
815,177888,-9.822419731128182,-1.0176465005506512,0.09986382996622695,-24.767962538467394,-78.39525269694902,17.22350567459162
816,178106,-10.439720041817045,-0.7510370767413397,-0.2430510376275215,-29.167003253461626,-58.71329406308949,7.614548045810665
817,178324,-10.905392023136354,-0.3776619579043336,-0.7743316475768585,-31.764022498489815,-34.081358703687954,-5.727147710905145
818,178542,-11.465673436078099,0.021959575664910413,-1.248911193600422,-27.882289671606138,-14.272866883609154,-19.52667353218718
819,178760,-11.752079921351546,0.2803445465808022,-1.17355272608658,-24.675182150350423,11.397839254540397,-29.87923796631387
820,178978,-11.542041125696187,0.5253491163736501,-0.622859496368589,-13.18332025683063,39.60755228306488,-33.055436704984025
821,179196,-11.02383409878257,0.6881539923264657,0.1488793994854627,-2.887609537020298,68.69063972786392,-30.25184723132785
822,179414,-10.23510552027432,0.9214758037723397,0.8467239317710193,9.043017433909831,90.37742818020956,-23.30825355850834
823,179632,-9.255987202097169,1.0561520681196876,1.3787134249214963,18.444080857751615,101.14335202751084,-13.325252559243422
824,179850,-8.475662050676041,0.96567180742231,1.3873876083309682,26.133758663812962,94.85257754603397,-4.22528661690715
825,180068,-7.908739022642165,0.6747081088618978,1.001483100240478,30.887076578269628,78.83380782829278,3.0730934144551227
826,180286,-7.729984561270422,0.2542391431298776,0.33049065089951857,31.859180521830933,45.03962362967709,10.410746464276333
827,180504,-7.939858404400906,-0.11182763214034336,-0.40528024667636886,27.547763039869594,4.932235211922588,14.595319371256632
828,180722,-8.354321112611037,-0.29695409051915733,-0.7661592413679732,21.350768744385583,-36.493266046548285,19.83212962338869
829,180940,-8.731836538601598,-0.4689997803143702,-0.849659774311809,13.046691466278439,-70.11199078086975,23.592483665007613
830,181158,-9.072308709755795,-0.7338599490985078,-0.5769091310562166,1.7923313841185529,-91.80270659299202,24.20229311573146
831,181376,-9.278270164272577,-0.9350203223801532,-0.2598809774528016,-11.893989996037977,-101.06211994653127,25.09577516035041
832,181594,-9.447916874646735,-1.1218593893271225,0.04460172622960368,-19.528604936392856,-94.73889348168991,23.34185524428744
833,181812,-9.856395722367534,-1.006847348356161,0.07048055878060576,-26.238430284945487,-81.17700573130763,15.184132303694765
834,182030,-10.458199901375393,-0.6742639378014442,-0.42964054379894945,-32.279412381707246,-58.7265531035618,3.5959079212465674
835,182248,-10.952069739764223,-0.26318131476088025,-0.7955642822725713,-31.16284468394924,-31.93023416206384,-13.925988585718677
836,182466,-11.499009050789892,0.07997143554013908,-1.2452372477286846,-28.87369996875636,-5.35476686038778,-24.71181697116053
837,182684,-11.725681921544977,0.3600569920029673,-1.1664750040711112,-20.720847965750472,21.022876971066346,-32.18262181009202
838,182902,-11.559288444191134,0.4920197490767404,-0.6124002922636878,-13.208052055526771,49.66815463517402,-34.287649838815966
839,183120,-10.994872644615796,0.7591384243619693,0.16586473644869082,-4.052299603946844,75.84512874782699,-32.3766780550133
840,183338,-10.19685674727578,1.0002380415189809,1.1038025718421633,7.409231960748889,93.42492510772817,-22.003223574741018
841,183556,-9.29761179386217,1.1408041268634712,1.6207232264031726,17.64826762129653,102.45564187239857,-13.098459382549647
842,183774,-8.488044448230559,0.9937453355795515,1.5226158072006701,24.300380898792646,98.31706718636782,-3.593292284959368
843,183992,-7.91530852796519,0.6437896971652155,1.240945004980306,30.486838664146667,73.74668414575231,3.452718131474948
844,184210,-7.844953887690959,0.22640090100335541,0.27488239582816665,30.05666370747939,39.900655936037865,8.585018410929276
845,184428,-8.016986536186863,-0.07791276231878519,-0.4943282439709352,27.966699054341824,-0.9934569339057688,15.556864818143636
846,184646,-8.320825411270146,-0.30214164668745375,-0.8387695829549805,21.610865413730494,-40.54525781533753,17.553381697245438
847,184864,-8.661150229391447,-0.5176599565637562,-0.6720000134462379,11.994539706644312,-74.11607307615718,21.708992303883857
848,185082,-8.941769908851189,-0.7826003182040032,-0.46542744837793154,0.38165154499631804,-90.41928628898057,26.336983015935694
849,185300,-9.224872396650795,-1.093268396609325,-0.0400813464565577,-11.391902986115584,-96.36275683492252,24.616212822347535
850,185518,-9.610226652847668,-1.2018052433446522,0.3591552392371514,-21.027119168363015,-90.29909559526394,19.64220705245695
851,185736,-9.98966735940739,-0.9965264101502529,0.23658947396655838,-27.912263869349815,-75.00587867938586,11.343343138898225
852,185954,-10.585802483113978,-0.6498243949655955,-0.22875085856915262,-32.593194507183966,-52.919122009230755,1.1444556225887546
853,186172,-11.163707924167037,-0.19990112471867727,-0.7699869718751129,-31.98349149001108,-29.05434896212737,-11.901489100371878
854,186390,-11.635648787513514,0.07276206136151747,-1.084868879350644,-27.094245566765043,-3.7117480537438894,-23.286199169037673
855,186608,-11.772018253698525,0.26282787016371384,-0.9731990512941424,-19.71911841744895,22.44389854324503,-31.952356396452984
856,186826,-11.536454831131643,0.48642195751662753,-0.5143345445606292,-9.922230843343884,51.34000623979041,-33.45432759449676
857,187044,-10.91470291241162,0.7545974490552673,0.2811808795189291,0.06130237993308185,78.54241801675268,-30.989481846896382
858,187262,-10.036722008298671,0.9742924871479203,1.168743390593797,9.710175876897427,95.69115323014525,-23.33171325096447
859,187480,-8.97755254946055,1.0624179576202688,1.5573613337402956,20.3486305381023,104.64926280462582,-14.67850101298197
860,187698,-8.303516959546625,0.9235087964345539,1.4247146901382095,26.2482006097703,94.69450581761444,-3.290146362722954
861,187916,-7.846701455500139,0.6481666447776097,0.7654979799508911,29.10451440487506,68.83924447542401,6.547079992509252
862,188134,-7.837840171502945,0.16969780679834745,0.12420749939016529,29.193270417930687,35.94131960536187,12.650178323874009
863,188352,-8.082818646897849,-0.09086747462825456,-0.45483702180889607,27.828055702857274,-6.931043653387228,16.537586588571337
864,188570,-8.343678171719814,-0.2638163368125323,-0.7526850848178257,19.2518724984427,-48.48549060384581,18.60796979153655
865,188788,-8.803905097762764,-0.49577975453299006,-0.7505442478530227,10.402660044752135,-83.08698202296068,21.530919328245712
866,189006,-9.163934079307749,-0.7351621248113871,-0.3028174038230469,-2.4151815323514665,-97.26242106292248,23.096204027567794
867,189224,-9.419410942991371,-1.0332517024100218,0.09536539427898871,-11.382383234310936,-94.95869882182078,24.76141516378832
868,189442,-9.799273293006262,-1.1185120084469504,0.16261998863152916,-22.09460443853664,-90.193406802119,19.713873331198283
869,189660,-10.132581504953986,-0.8447190412044359,0.009476087960957308,-28.766317258358242,-71.10388444460926,9.451091532061515
870,189878,-10.715558421010835,-0.4767241151472988,-0.48428338762319756,-32.66860159103861,-47.85459707784495,-4.054855572196567
871,190096,-11.173516337934814,-0.146663995536156,-0.9299320789419165,-31.9958385828407,-22.929540157383283,-14.859955059677326
872,190314,-11.647634889333423,0.17330288822963869,-1.1338714345847192,-25.828620473027023,1.0968883623706773,-24.58342922524138
873,190532,-11.688513179904563,0.34314727032744885,-0.8618783843364859,-19.058216148998625,30.125264105508098,-31.951352270408936
874,190750,-11.387970512027154,0.5472999379788408,-0.17819380429426313,-9.16685353666793,58.09509058448401,-32.36496843254055
875,190968,-10.767073803351765,0.8348113599612298,0.7415547352692122,2.6790438135447197,82.76516967027838,-28.935494031433322
876,191186,-9.769087898666681,0.988903979331861,1.4240411442217185,15.290791749552897,97.96032622793585,-19.38643325096494
877,191404,-8.911294922717769,1.0850368246852284,1.6087572256774891,23.44651974697426,101.84897124154482,-9.132504487760892
878,191622,-8.291380479431192,0.9497703233007941,1.4609849234753685,29.267578405182626,94.85466388807968,0.26592881903664534
879,191840,-7.864100001497749,0.5675803054358525,0.9668936635524112,32.60053493372337,66.20080029507535,7.881934497139649
880,192058,-7.808686433157351,0.16306542606342922,0.09125971403992028,30.76945624500212,25.86439997489775,13.882270943489555
881,192276,-8.111888277377632,-0.1570413086050529,-0.501117068638523,27.63812131919113,-16.74365822283569,17.380436924176944
882,192494,-8.497023405696773,-0.33391452812624445,-0.8472292904082679,18.427317915481083,-53.060536324516654,20.23312689706377
883,192712,-8.916669113136585,-0.5478955794840482,-0.7389155970403846,7.981049905890599,-78.65560191891,23.33598035106285
884,192930,-9.213396575745985,-0.826252770710825,-0.4182689649035145,-2.944206455455669,-92.24478399698526,26.753624075418323
885,193148,-9.317900244872598,-1.0540980212178916,0.032227927409100465,-15.177651886323781,-90.8469819895195,26.458521050836175
886,193366,-9.649101241807873,-1.064234420110655,0.15259996001211482,-26.918165013594997,-80.25231778518538,21.494115627060747
887,193584,-10.12712212900849,-0.8918069082988498,-0.014606945186085296,-31.611615519029478,-64.28405058122497,10.126976619175847
888,193802,-10.764512969902379,-0.5089915560379206,-0.5314116948215167,-34.92041579837815,-40.405980248882464,-2.8788118165184464
889,194020,-11.29577354076844,-0.11159201437734384,-0.8968958696082661,-33.76991495791342,-18.55388760760824,-17.421831036536645
890,194238,-11.596087495789389,0.18151334001599057,-1.1049282242913723,-27.560791270773283,9.93734035304314,-27.861289624779737
891,194456,-11.693035870075855,0.34969946634793336,-0.7733461930790007,-18.243701277158415,36.344226453876715,-34.305527645467734
892,194674,-11.300335326557772,0.589069600002724,-0.11927408746690016,-7.958012739198965,63.07015138503398,-33.36722694533196
893,194892,-10.617664062236015,0.8295714374599652,0.5816533445145073,4.183619738959623,85.5419684069904,-25.928979109751776
894,195110,-9.792951619271674,1.0502751430177706,1.36497919246704,14.09382594788899,101.63541470418122,-17.05426391607078
895,195328,-8.817935056158818,1.062741761094499,1.39433067101707,23.525105074000084,104.05550718669073,-8.093526127698254
896,195546,-8.209478571653456,0.8602008584081962,1.2658678807476138,31.683901766719295,89.29572806369436,2.630576911248335
897,195764,-7.8516206197313885,0.45222181475426804,0.6948755380613705,34.6251681544408,60.78243513472562,11.204928927706781
898,195982,-7.8615109887757955,0.0333207504711463,-0.15190535366301317,33.66785122085599,21.76386349248248,15.571883668091644
899,196200,-8.125965528229123,-0.21861415097490866,-0.6106161280569451,26.923471579732098,-21.70006937664329,16.29041533478189
900,196418,-8.515509891044115,-0.408961995835491,-0.7009790087140259,17.332821182252033,-56.15321102159964,20.07483269846706
901,196636,-8.784087870168007,-0.6488138762389825,-0.5611499148172795,7.654380214464666,-80.79153055994581,24.483706079470405
902,196854,-9.213066039200184,-0.8441518920689606,-0.16112786528620887,-5.886295026301015,-95.70812369100815,25.431648222197925
903,197072,-9.546859001232583,-1.0004059473070461,0.21272487845352972,-14.858560689570226,-96.79650243282967,22.077618343973402
904,197290,-9.848303762211117,-1.0259215913090616,0.30326574128525563,-23.244358795965447,-84.37534463094464,18.15409088867502
905,197508,-10.297611895753446,-0.7904988808525147,0.1118614271837245,-28.16276438451514,-67.61609508209708,6.54847475423378
906,197726,-10.760759574870237,-0.43123431512807575,-0.4942684071319263,-31.853903554526216,-43.61118306309781,-5.9613351561787145
907,197944,-11.376040304655255,-0.13159105698164802,-1.1743370841330525,-31.673956936891816,-16.228632602567128,-19.52780871997037
908,198162,-11.69547264326637,0.19830504562847617,-1.1448106999475427,-26.551329994682824,10.87259177101635,-29.592066020584944
909,198380,-11.788368944552918,0.42758408128276704,-0.7976798718743364,-18.548384055377127,37.99719352096538,-33.873568370891476
910,198598,-11.313431468976203,0.5944849759972695,-0.08298971401862865,-6.886697538882405,65.92134446157608,-33.100840925680686
911,198816,-10.58741349435126,0.8765575520713902,0.8761116962667462,4.101208460188209,89.07209853272242,-25.49901142143119
912,199034,-9.550639716357562,1.1197990817940482,1.5193138994916258,16.93220336350391,105.02541895718264,-17.316846663758728
913,199252,-8.651079133586464,1.0950675134784398,1.6337219431781544,24.998991666701773,100.45628829893244,-6.051133837510971
914,199470,-7.982770779933985,0.8663338816185819,1.414646846093537,29.995692551047433,85.73259951117814,4.595368022855757
915,199688,-7.677684652499547,0.4189471299765519,0.5003961596795088,31.98145843594809,54.464221009733166,10.807772766158429
916,199906,-7.737513859556374,-0.005432245872963315,-0.19493194719767115,28.84627670296181,20.82318874942292,15.388033552321604
917,200124,-8.063411614145659,-0.28058221817126777,-0.8678271009605572,22.70561678997731,-24.14059483085142,20.334376189950916
918,200342,-8.560738954491747,-0.4139949857240488,-0.8811121645710299,14.655160741921412,-65.46716683884566,22.399975536111523
919,200560,-8.869414157042135,-0.6121000298149508,-0.5819080840622992,2.813809627488004,-88.46043544110597,25.26826636444917
920,200778,-9.228382746203096,-0.8612023477113668,-0.2009158975801818,-9.928008542570543,-99.58723789174223,25.31331803668736
921,200996,-9.458658212561957,-1.0270296505447323,0.13432366498224724,-19.727297398281994,-94.90709104714148,25.131028618993387
922,201214,-9.907047416940742,-1.0384750619659413,0.23664945196278733,-26.628591036881833,-82.71455801259422,19.598727190380675
923,201432,-10.344338934339046,-0.8046878708988963,-0.11220071511359767,-31.658084515806635,-59.771751171549,8.986053991001212
924,201650,-10.873485725559885,-0.3914706433505223,-0.6159909455100298,-34.69856500604344,-40.677603639119965,-4.417672975026139
925,201868,-11.367054653545392,-0.044852271872268756,-1.2144931527166176,-32.896559630291264,-14.17106132911599,-17.88964021147347
926,202086,-11.709046720484409,0.17473538680128312,-1.2034228824086943,-26.11938747962796,12.100815840895528,-28.792791604772205
927,202304,-11.627578963024138,0.39695326400168407,-0.8171161924939677,-14.568478543650917,38.802139123996945,-33.156529861239775
928,202522,-11.244648600521948,0.593281657328104,0.06011777625492498,-3.213646105353046,66.59491900181034,-32.441927685743906
929,202740,-10.389629755777696,0.8344274889359905,0.9894615097800274,4.620987053912368,88.2264218893749,-26.384303818551363
930,202958,-9.359674191769328,1.0261083826659871,1.6528806480406169,17.713739420999577,102.15274360257003,-18.06620053973124
931,203176,-8.569290197031862,0.9781820798973978,1.7466767952640905,26.467161334683254,98.21640517858992,-5.92658237756657
932,203394,-8.046275593929641,0.6989085799353467,1.3270892765809106,31.343717619714415,84.98784362017369,4.4710272748226
933,203612,-7.884846840559772,0.2759227912573192,0.6556931396513793,32.843103019786724,54.18175647104131,10.817251865007442
934,203830,-7.887989423658154,-0.015676428206286785,-0.0868522722526548,29.422950614419037,14.191479521435873,13.575692452597423
935,204048,-8.230960144470016,-0.27353397235382565,-0.6818282774761362,22.36523163124945,-32.254143735981415,19.437812760299046
936,204266,-8.631930252596224,-0.45910713638783807,-0.7172124076917606,15.032885813515476,-63.9480038970409,22.12292081059522
937,204484,-8.971702566756383,-0.7144821084860875,-0.39027424568598335,3.9977681837603996,-85.76779457064875,25.775406877993255
938,204702,-9.230381573703166,-0.9322923052662258,0.0008057906792111602,-8.921183229753053,-94.9675791261365,28.12399380803244
939,204920,-9.57632420385355,-1.1144727757990063,0.2959077093216057,-16.939702391426266,-93.61889285975218,21.745724263634397
940,205138,-9.991211060078859,-1.0315074372900028,0.19222930515305003,-25.92314308170026,-80.39885065218233,14.560037569234327
941,205356,-10.5141769444072,-0.7129048177763082,-0.16742553840613456,-32.928754744628066,-56.89018632754355,4.714030672817033
942,205574,-11.005256929380328,-0.32723445168111276,-0.7003995365536779,-34.792127365562244,-31.49514213415277,-6.701883420832473
943,205792,-11.494927724573182,-0.03361495031150541,-1.1251896062750029,-30.420942610060465,-8.738357937588034,-20.838974977745668
944,206010,-11.719760123475258,0.18641440491067485,-1.0140153400859768,-22.60277122257667,18.673188641478415,-30.82491995471557
945,206228,-11.578737876662213,0.44752599592106734,-0.7390495873265182,-13.319665936004565,48.241667808533904,-32.021452426096936
946,206446,-11.108739171590127,0.6926858977538648,0.1851587487179207,-1.1623636055479274,69.56382571615754,-32.516618969552766
947,206664,-10.246573802512897,0.9640108795802003,1.0060692920015581,9.138053699663311,93.57895409508014,-22.95518492012919
948,206882,-9.328897768963502,1.107474135956508,1.4616742262202977,21.20839969697836,101.0632843854895,-14.599107408441387
949,207100,-8.53687514941591,0.9737401882950841,1.639540705740332,30.990792809207008,98.67703648617906,-4.631706401051838
950,207318,-7.935809960061771,0.638050203795502,1.2716319580371322,34.087687313722434,80.2569720580613,3.3874547050832664
951,207536,-7.784038994256847,0.19687621338078565,0.47636873309207584,35.031396377149534,43.38943948540195,9.073277679986635
952,207754,-7.963211345825115,-0.1122011300124901,-0.28538240680112004,30.896193610305346,4.186151570736953,14.436543050960005
953,207972,-8.39285958671553,-0.29913519509637554,-0.6306625633449926,23.919499515802165,-39.809183116090644,18.9463142363376
