Timestamp,Acceleration_X,Acceleration_Y,Acceleration_Z,Gyro_X,Gyro_Y,Gyro_Z,time_s,acc_mag,gyro_mag,acc_sq,gyro_sq,Energy,is_active
2025-11-22T17:45:00,0.0602789689682921,0.2129670387904371,-10.372844220608386,0.0544955622839117,-0.2836585138252209,0.0109372196467197,0.0,0.6141164505168997,0.2890528352183616,0.3771390147954757,0.0835515415477733,0.23821777701574806,0
2025-11-22T17:45:00.009615,0.0627479291332308,0.2196460584879761,-10.358377465125097,0.0609559419768053,-0.2811953991290289,0.0135253558216114,0.009615,0.6032968483088074,0.28804411919654727,0.3639670871793401,0.08296941460371472,0.23821777701574806,0
2025-11-22T17:45:00.019231,0.0651905749821599,0.2261169169931715,-10.344059805822862,0.0670719774348771,-0.2786007652751317,0.0161911544269119,0.019231,0.5927729274595891,0.2870177521523535,0.3513797435290113,0.08237919005058982,0.23821777701574806,0
2025-11-22T17:45:00.028846,0.0676379741964939,0.2322829613174439,-10.329971959398952,0.0728682497633272,-0.2759087778879285,0.0189329365604837,0.028846,0.5825809363693342,0.2859963140076882,0.3394005474209702,0.0817938916259842,0.23821777701574806,0
2025-11-22T17:45:00.038462,0.0701205306835731,0.2380504908698058,-10.316183369128757,0.0783730932239645,-0.2731488259491597,0.021752631863638,0.038462,0.5727392038195175,0.2850014032454779,0.3280301955918148,0.0812257998518915,0.23821777701574806,0
2025-11-22T17:45:00.048077,0.0726668328111741,0.2433312164267437,-10.302750318479546,0.0836172768873666,-0.2703442531036923,0.0246560126805344,0.048077,0.5632481089269723,0.28405243026869964,0.31724843220981047,0.08068578314155447,0.23821777701574806,0
2025-11-22T17:45:00.057692,0.0753025946227892,0.2480444242550396,-10.2897145353256,0.088632556343626,-0.2675113850456069,0.0276526552077881,0.057692,0.554091006306822,0.28316557084692656,0.3070168432701066,0.08018274051306579,0.23821777701574806,0
2025-11-22T17:45:00.067308,0.0780497155346177,0.2521188018752112,-10.277102318535068,0.093450172626853,-0.2646588943907109,0.0307555969910793,0.067308,0.5452359770829172,0.28235292081078206,0.29728227070556335,0.07972317189037977,0.23821777701574806,0
2025-11-22T17:45:00.076923,0.0809254810899023,0.2554939253511665,-10.264924189330324,0.0980994066753027,-0.2617875140550325,0.0339806835815308,0.076923,0.536638221901346,0.28162187940894856,0.2879805812054383,0.07931088296182837,0.23821777701574806,0
2025-11-22T17:45:00.086538,0.0839419278514047,0.258121429548972,-10.253175050231617,0.1026063033432137,-0.2588900804325938,0.0373456266864328,0.086538,0.5282428852301213,0.28097477300419144,0.2790405457962431,0.07894682306475691,0.23821777701574806,0
2025-11-22T17:45:00.096154,0.087105396824417,0.2599658852152237,-10.241834822202508,0.1069926651914274,-0.2559518678665082,0.0408688232706964,0.096154,0.5199880976930097,0.28040871916659577,0.270387621742395,0.07862904978465077,0.23821777701574806,0
2025-11-22T17:45:00.105769,0.0904162993273603,0.2610054016570428,-10.230869522624756,0.1112753900905185,-0.2529511690200718,0.0445680063122845,0.105769,0.5118080425365487,0.2799157257730795,0.2619474724050936,0.07835281353506984,0.23821777701574806,0
2025-11-22T17:45:00.115385,0.0938691151287882,0.261231968453775,-10.220232737917854,0.1154661942894927,-0.2498600796962155,0.0484588153617351,0.115385,0.5036358864648458,0.2794830195839467,0.25364910613523106,0.07811075823576075,0.23821777701574806,0
2025-11-22T17:45:00.125,0.0974526340099906,0.260651540688771,-10.20986743119349,0.1195717248174742,-0.2466454563206803,0.0525533886581557,0.125,0.49540645200891914,0.2790935992797354,0.2454275526920655,0.07789323715891754,0.23821777701574806,0
2025-11-22T17:45:00.134615,0.1011504378818039,0.2592838569974217,-10.199708008525002,0.1235940195655625,-0.2432700223882797,0.0568590818624699,0.134615,0.48705854028254425,0.2787270002267627,0.23722602166216278,0.07768874065540979,0.23821777701574806,0
2025-11-22T17:45:00.144231,0.1049416012052895,0.2571619649580263,-10.189682554268323,0.1275312305626817,-0.2396935982115999,0.0613774060877426,0.144231,0.47853684182692474,0.2783602374092166,0.2289975089856872,0.07748442177051544,0.23821777701574806,0
2025-11-22T17:45:00.153846,0.1088015658427964,0.2543314232154545,-10.179715144446272,0.1313785116754847,-0.2358744141366583,0.0661032536913069,0.153846,0.46979340617605037,0.27796887006093784,0.22070584448649544,0.07726669272295454,0.23821777701574806,0
2025-11-22T17:45:00.163462,0.1127031284691149,0.250849156841024,-10.169728157763544,0.1351290009921859,-0.2317704529899172,0.0710244539024382,0.163462,0.46078867748437763,0.2775281298182891,0.21232620529780177,0.07702186284043713,0.23821777701574806,0
2025-11-22T17:45:00.173077,0.1166174693710962,0.2467819581290114,-10.159644518650236,0.1387748786735902,-0.2273407692024586,0.076121679442193,0.173077,0.4514921359400039,0.27701408334872657,0.20384514881566698,0.07673680237353524,0.23821777701574806,0
2025-11-22T17:45:00.182692,0.12051515300263,0.2422046448965775,-10.149389821258389,0.1423085082163586,-0.2225467513031277,0.0813687108409577,0.182692,0.4418826080665461,0.27640483919472353,0.1952602393116928,0.07639963513026098,0.23821777701574806,0
2025-11-22T17:45:00.192308,0.1243670426621658,0.237197911080648,-10.138894299075242,0.1457236505291962,-0.2173533182423722,0.0867330496115724,0.192308,0.43194832592250515,0.275681825968722,0.18657935626725475,0.07600046916944872,0.23821777701574806,0
2025-11-22T17:45:00.201923,0.1281450910821031,0.2318459309359311,-10.12809461956861,0.1490166987815946,-0.2117300570279521,0.0921768458205965,0.201923,0.42168682627023085,0.2748311562946573,0.17781977944985985,0.07553216447025836,0.23821777701574806,0
2025-11-22T17:45:00.211538,0.1318229907932581,0.2262338062184471,-10.11693548909097,0.1521878522522209,-0.2056523160822443,0.0976580735568345,0.211538,0.4111047801024665,0.27384505986774205,0.16900714022309732,0.07499111681396722,0.23821777701574806,0
2025-11-22T17:45:00.221154,0.1353766886390695,0.2204449679046904,-10.105371046246274,0.1552421351382916,-0.1991022665853956,0.1031318663672077,0.221154,0.40021782517389615,0.2727233303956981,0.1601743075869233,0.07437801494212112,0.23821777701574806,0
2025-11-22T17:45:00.230769,0.1387847836089192,0.214558653686805,-10.093366006776767,0.1581901598218439,-0.1920699357917639,0.1085519273573446,0.230769,0.3890504414152677,0.2714746909612516,0.15136024596541464,0.07369850783250706,0.23821777701574806,0
2025-11-22T17:45:00.240385,0.1420288320851271,0.2086475784900839,-10.080896508405514,0.1610485377125317,-0.1845542005887611,0.1138719517359509,0.240385,0.37763586904271906,0.2701179480272574,0.14260884958764966,0.07296370584645614,0.23821777701574806,0
2025-11-22T17:45:00.25,0.1450935789981133,0.2027758990728007,-10.06795059827125,0.1638398684118334,-0.1765637002441411,0.1190470264516655,0.25,0.3660160311040821,0.26868278179312743,0.1339677350251844,0.07219043723209333,0.23821777701574806,0
2025-11-22T17:45:00.259615,0.1479671215218644,0.1969975489153222,-10.054528314423282,0.1665922843302197,-0.168117588790347,0.1240349867981361,0.259615,0.3542413953411818,0.2672100125538988,0.12548696617326746,0.07140119080905476,0.23235857610044103,0
2025-11-22T17:45:00.269231,0.1506410008773183,0.1913549921841149,-10.040641336293696,0.1693385718256884,-0.1592460184208682,0.1287977101330662,0.269231,0.34237070101327044,0.26575119270924197,0.11721769691231822,0.07062369642638466,0.22686495050249814,0
2025-11-22T17:45:00.278846,0.1531102146534796,0.1858784208540187,-10.02631221051322,0.1721149207583154,-0.1499902380973827,0.133302318346165,0.278846,0.3304704855169339,0.2643674063658625,0.10921074179779804,0.06989012554861307,0.22172885506489928,0
2025-11-22T17:45:00.288462,0.155373150185706,0.1805854010464003,-10.01157319155508,0.1749593776565149,-0.1404022050641359,0.1375222479746732,0.288462,0.31861437232887235,0.2631272158193336,0.1015151182545213,0.06923593170483418,0.21694081861847653,0
2025-11-22T17:45:00.298077,0.1574314544627886,0.1754809658373585,-9.99646477050285,0.177910098592468,-0.1305436399307844,0.141438131824254,0.298077,0.3068821243966789,0.26210377761775017,0.0941766382742187,0.06869839024149503,0.21249052272212024,0
2025-11-22T17:45:00.307692,0.159289865674096,0.1705581471975112,-9.981033994582216,0.1810035111251078,-0.1204845089798136,0.1450384273043765,0.307692,0.2953585110950976,0.2613712557620878,0.08723665007631289,0.06831493333865071,0.20836737665428887,0
2025-11-22T17:45:00.317308,0.1609560254204297,0.1657989282957062,-9.965332688679156,0.1842724925893346,-0.1103009808274946,0.1483197367502448,0.317308,0.28413205501848143,0.2610007705089309,0.08073102468902536,0.06812140220625561,0.20456106386421877,0
2025-11-22T17:45:00.326923,0.1624402713719621,0.1611755750940262,-9.949415668964624,0.1877446572942092,-0.1000729606427972,0.1512867929849779,0.326923,0.2732937062986133,0.26105621526026623,0.07468944990243272,0.06815034752601445,0.2010620370111738,0
2025-11-22T17:45:00.336538,0.1637553917586059,0.1566522801654827,-9.93333900498567,0.1914408308067894,-0.0898813420205407,0.1539521138424495,0.336538,0.26293545873774404,0.26159032990530384,0.0691350554616279,0.0684295006999657,0.19786194190884138,0
2025-11-22T17:45:00.346154,0.1649163182638022,0.1521870318075513,-9.917158368050984,0.1953737833814351,-0.079805133337765,0.1563353508377001,0.346154,0.2531489045689315,0.2626414218309464,0.06408436788445,0.06898051646138113,0.19495395498650828,0
2025-11-22T17:45:00.355769,0.1659397454644765,0.1477336129636079,-9.900927510915796,0.1995472883548592,-0.0699186158182179,0.1584623715499631,0.355769,0.24402373241911196,0.26423106616170516,0.05954758198375435,0.06981805632495142,0.1923330239191624,0
2025-11-22T17:45:00.365385,0.1668436847699947,0.1432436359130163,-9.88469694244767,0.2039555478735631,-0.0602886804853823,0.1603641281524518,0.365385,0.2356461890996626,0.26636299311497796,0.05552912643719394,0.0709492441011698,0.18999600634902164,0
2025-11-22T17:45:00.375,0.1676469746295857,0.1386685252585529,-9.868512866718808,0.2085829820318637,-0.0509724765534671,0.1620753766731794,0.375,0.22809752498846605,0.2690231987822826,0.0520284809058639,0.07237348148305153,0.18794170662024484,0
2025-11-22T17:45:00.384615,0.1683687679398842,0.1339613703182269,-9.85241643635628,0.2134043280593403,-0.0420154834084392,0.1636333206038065,0.384615,0.22145241826501616,0.2721811376497855,0.049041173555423666,0.0740825716923315,0.18617081491378978,0
2025-11-22T17:45:00.394231,0.1690280076910939,0.1290785784377331,-9.836443335218869,0.2183849768065676,-0.0334500860322234,0.1650762542707217,0.394231,0.2157773469977822,0.27579172589912876,0.046559863477401306,0.07606107607442017,0.18468575712822083,0
2025-11-22T17:45:00.403846,0.169642895592771,0.1239812734815783,-9.820623674306336,0.2234814994979649,-0.0252946930867276,0.1664422705757407,0.403846,0.21112888040509173,0.2797978405038515,0.04457540414110753,0.07828683155061872,0.18349046741887756,0
2025-11-22T17:45:00.413462,0.1702303606493201,0.1186364003964392,-9.80498216408571,0.2286423684118434,-0.0175534053256308,0.1677680747675781,0.413462,0.2075519047004839,0.28413303500776305,0.04307779314479875,0.0807315815827227,0.18259009834652146,0
2025-11-22T17:45:00.423077,0.1708055395802878,0.1130175184706179,-9.789538510890496,0.2338089098762897,-0.010216232968719,0.1690879229098434,0.423077,0.20507787444519215,0.2887242688579802,0.042056934586958,0.08336170342757523,0.18199068557793402,0
2025-11-22T17:45:00.432692,0.1713812813333908,0.1071052882575458,-9.7743079705831,0.2389165167219418,-0.0032598657658975,0.1704326946163222,0.432692,0.20372326018343043,0.2934945179752735,0.04150316673976569,0.08613903208153813,0.1816987844795757,0
2025-11-22T17:45:00.442308,0.1719676833084421,0.1008876722618833,-9.759301982337938,0.243896096866116,0.003351003711356,0.1718291149714251,0.442308,0.20348841529314485,0.29836517900764253,0.041407535158515384,0.08902178004426257,0.18172109469656395,0
2025-11-22T17:45:00.451923,0.1725716640736614,0.0943598760746996,-9.744528805119357,0.2486756824624529,0.0096618278790373,0.1732991491079655,0.451923,0.20435708677575065,0.3032582085412952,0.041761818915471684,0.0919655410476757,0.18206408640692637,0
2025-11-22T17:45:00.461538,0.1731965823882178,0.0875240606207293,-9.729994090305556,0.253182102282414,0.0157258906796901,0.1748595960397096,0.461538,0.20629673950561242,0.30809796961515784,0.042558344730646507,0.09492435888098272,0.18273363906037782,0
2025-11-22T17:45:00.471154,0.1738419214726202,0.080388862352824,-9.715701339701466,0.2573426320648404,0.0216016500903271,0.1765219035981324,0.471154,0.20925975958076998,0.3128127938793315,0.04378964697980165,0.09785184401459313,0.1837347006150725,0
2025-11-22T17:45:00.480769,0.1745030603514008,0.0729687670960059,-9.701652211981342,0.2610865680857478,0.0273498928309881,0.178292210706337,0.480769,0.21318547429803658,0.3173362964919286,0.04544804645167882,0.10070232507121324,0.18507097297344635,0
2025-11-22T17:45:00.490385,0.1751711476931236,0.0652833930146769,-9.687846652343405,0.2643467043853671,0.0330308701254815,0.1801715972526477,0.490385,0.2180028113997987,0.32160849329148844,0.04752522577821621,0.10343202295722137,0.18674462772086997,0
2025-11-22T17:45:00.5,0.1758330856141055,0.0573567446417795,-9.674282836816095,0.2670607276064737,0.0387015692614468,0.1821564980526261,0.5,0.22363335008779067,0.3255767704793972,0.05001187527148834,0.10600023347579408,0.18875605540703758,0
2025-11-22T17:45:00.509615,0.1764716282784113,0.0492164963285753,-9.660956952119731,0.2691725688076041,0.0444132514348829,0.1842392296081183,0.509615,0.22999449615573278,0.3291967533680966,0.052897468261929384,0.10837050242809543,0.19110365128844628,0
2025-11-22T17:45:00.519231,0.1770656021364702,0.0408933456561841,-9.647862871598315,0.2706337580970663,0.0502093664709189,0.1864085843090138,0.519231,0.23700252955869025,0.3324331087711378,0.05617019901721785,0.11051177180724313,0.19378364039513232,0
2025-11-22T17:45:00.528846,0.1775902575716315,0.0324204510313584,-9.634991819188455,0.2714048067405867,0.0561239384611496,0.1886504526326762,0.528846,0.24457531552503584,0.3352602852543076,0.05981708496417083,0.11239945886879972,0.19678994478382258,0
2025-11-22T17:45:00.538462,0.178017761613053,0.0238329466324477,-9.622332119613564,0.2714565940587771,0.0621804931216399,0.1909484331813732,0.538462,0.2526345354774683,0.3376631462230715,0.06382420851591618,0.11401640031726334,0.20011409573039635,0
2025-11-22T17:45:00.548077,0.1783178349899405,0.0151675203396809,-9.609869116964244,0.2707716781827601,0.0683915628479341,0.1932843905149389,0.548077,0.26110736610197494,0.33963739957699374,0.06817705663271077,0.11535356319142251,0.2037451931473034,0
2025-11-22T17:45:00.557692,0.1784585258816355,0.0064620412651192,-9.597585320324768,0.2693454060545706,0.0747587678637911,0.1956389316550454,0.557692,0.26992759396768884,0.3411897019464996,0.07286090598518549,0.11641041271434124,0.20766991339337376,0
2025-11-22T17:45:00.567308,0.1784071022738088,-0.0022447769232851,-9.585460811819525,0.2671866897826905,0.081273446259934,0.1979917916058595,0.567308,0.27903619197213514,0.3423373333530776,0.07786119643031025,0.11719484980729616,0.21187256484879716,0
2025-11-22T17:45:00.576923,0.1781310358783705,-0.0109136962898831,-9.573473927629712,0.2643183440481089,0.0879177911268974,0.2003221347622219,0.576923,0.2883814074681629,0.3431073923317028,0.08316383617331859,0.11772268267266102,0.2163351886010041,0
2025-11-22T17:45:00.586538,0.1775990419577439,-0.0195052853853618,-9.561602193690184,0.2607769255680751,0.0946664307705515,0.2026087879646358,0.586538,0.297918428291379,0.34353552797938053,0.08875538991560553,0.11801665898407174,0.22103770001925274,0
2025-11-22T17:45:00.596154,0.1767821348260231,-0.0279802915070404,-9.549823467525824,0.2566120610865822,0.1014883500775926,0.204830426502552,0.596154,0.30760870811351854,0.34366428199304205,0.09462311730726784,0.11810513871779313,0.22595806633453142,0
2025-11-22T17:45:00.605769,0.1756546633063749,-0.0363000844829868,-9.53811721305273,0.2518852824828259,0.1083490156128781,0.2069657377516767,0.605769,0.3174190463315286,0.34354114938217883,0.10075485097401711,0.11802052131882851,0.23107251545037083,0
2025-11-22T17:45:00.615385,0.1741953009094292,-0.044427198050884,-9.526465822623148,0.2466684048564789,0.1152125583974124,0.2089935834633925,0.615385,0.3273205233082864,0.34321648196988874,0.10713872497881048,0.11779755349578697,0.23635577154966794,0
2025-11-22T17:45:00.625,0.1723879715953142,-0.0523259886664029,-9.51485590079714,0.2410414942285301,0.122043891405539,0.2108931686781653,0.625,0.3372873836224442,0.34274136307782666,0.11376277915087384,0.1174716419644466,0.24178131329752311,0
2025-11-22T17:45:00.634615,0.1702226865449413,-0.059963416330007,-9.50327943017496,0.2350904855896242,0.1288106756321004,0.2126442099531144,0.634615,0.34729594133798936,0.3421655835968131,0.12061447086984015,0.11707728659814769,0.24732165074403364,0
2025-11-22T17:45:00.644231,0.1676962528573102,-0.0673099217097556,-9.491734742837036,0.228904534143437,0.1354850761773873,0.2142270914133623,0.644231,0.35732356143515837,0.3415358521643745,0.1276801275567054,0.11664673831364547,0.25294861765727544,0
2025-11-22T17:45:00.653846,0.1648128008928317,-0.07434033713561,-9.48022722290894,0.2225732090476259,0.1420452601975181,0.2156230091722381,0.653846,0.3673477562638777,0.34089436987845645,0.13494437403210532,0.11620897141482987,0.2586336767680242,0
2025-11-22T17:45:00.663462,0.1615840725039855,-0.0810347462655688,-9.468769676300768,0.2161836554587032,0.1484765900769254,0.2168141221326139,0.663462,0.3773454252103723,0.34027787798282544,0.14238956992719667,0.11578903424449463,0.26434823570008403,0
2025-11-22T17:45:00.673077,0.1580294207488197,-0.0873792098050961,-9.457382328000044,0.2098178447450083,0.1547724675899131,0.2177837369553004,0.673077,0.3872922582431005,0.3397172365063724,0.14999529329504044,0.11540780077952657,0.27006397068504595,0
2025-11-22T17:45:00.682692,0.1541754890560148,-0.0933662933102249,-9.446092440304104,0.2035500122005046,0.1609347903686043,0.2185165543968557,0.682692,0.3971623181547523,0.3392375255824246,0.15773790696205667,0.11508209876328618,0.2757531534837933,0
2025-11-22T17:45:00.692308,0.1500555587887429,-0.0989953506406365,-9.434933577809296,0.1974443680143623,0.1669739885922799,0.2189989960377895,0.692308,0.40692781028455893,0.33885860117837574,0.16559024278298598,0.11482515159256551,0.2813889747999354,0
2025-11-22T17:45:00.701923,0.145708575412375,-0.1042725278295766,-9.42394457003028,0.1915531698656023,0.1729086144087981,0.219219617413397,0.701923,0.41655904193569665,0.3385959930081968,0.17352143541838547,0.11464724648120686,0.28694585564065717,0
2025-11-22T17:45:00.711538,0.1411778842169362,-0.109210464615847,-9.413168237468694,0.1859152510597419,0.1787644570838344,0.2191695989672085,0.711538,0.42602456863032784,0.3384619990553326,0.1814969330766569,0.11455652480453196,0.29239973698382493,0
2025-11-22T17:45:00.721154,0.1365097279655991,-0.1138276912536992,-9.402649954014963,0.1805550880917444,0.1845731598640485,0.2188432905454632,0.721154,0.43529152090260237,0.3384668033866589,0.18947870816970072,0.11455977699478322,0.29772833764276563,0
2025-11-22T17:45:00.730769,0.1317515792540424,-0.1181477446938515,-9.392436124795603,0.1754824642868556,0.1903703376146497,0.2182387668688656,0.730769,0.4443260971221513,0.3386194325199697,0.19742568058380344,0.1146631200801463,0.30291137016350195,0
2025-11-22T17:45:00.740385,0.1269503924286773,-0.1221980533810315,-9.382572669522554,0.1706927539870855,0.1961932485831201,0.2173583341951553,0.740385,0.4530941873578117,0.33892838845010675,0.2052943426174358,0.11487245249738645,0.30793070506894427,0
2025-11-22T17:45:00.75,0.1221508596361319,-0.1260086573272466,-9.373103612765757,0.1661678196910169,0.2020781475222969,0.2162089184532126,0.75,0.4615620648026774,0.3394018538924286,0.213039539664911,0.11519361842561746,0.3127704750716091,0
2025-11-22T17:45:00.759615,0.1173937492774209,-0.1296108409794091,-9.364069880934345,0.1618774773450133,0.2080575140638824,0.2148022637743209,0.759615,0.4696970631986074,0.3400474369152058,0.22061533117739657,0.11563225935260085,0.3174171129147624,0
2025-11-22T17:45:00.769231,0.1127143996891563,-0.1330357673458506,-9.355508380743132,0.1577814419416211,0.2141573842767237,0.2131548779854451,0.769231,0.47746816739985887,0.34087148703054565,0.22797585088017966,0.11619337067041545,0.3218593187967328,0
2025-11-22T17:45:00.778846,0.1081414340138369,-0.1363132133977441,-9.34745139073967,0.1538316254549241,0.2203950026336918,0.2112876824412422,0.778846,0.4848464763622068,0.3418780644139081,0.23507610564084794,0.1168806109274003,0.32608795564893306,0
2025-11-22T17:45:00.788462,0.1036957498778675,-0.1394705078435932,-9.339926254550974,0.1499746332758665,0.2267769665130085,0.2092253572564074,0.788462,0.49180553306401364,0.3430676803287423,0.24187268235237863,0.11769543328614411,0.3300958731875888,0
2025-11-22T17:45:00.798077,0.0993898233207734,-0.1425317500419673,-9.332955337260838,0.1461543009594409,0.2332979821444163,0.2069954091444398,0.798077,0.4983215365031885,0.344435955684759,0.24832435374289863,0.11863612756847326,0.3338776651167755,0
2025-11-22T17:45:00.807692,0.0952273562478217,-0.1455173439550292,-9.326556195890422,0.1423141262097485,0.2399403065040958,0.2046270155024298,0.807692,0.504373455308093,0.3459723640372961,0.25439258241942486,0.11969687667755533,0.3374293681893488,0
2025-11-22T17:45:00.817308,0.0912032883871697,-0.1484438322901378,-9.320741912493997,0.1383994679251793,0.2466739097693669,0.2021497116733914,0.817308,0.509943061132837,0.3476592245468453,0.26004192559752837,0.12086693641251378,0.34074811647189623,0
2025-11-22T17:45:00.826923,0.0873041811953443,-0.1513239826733252,-9.315521535284178,0.1343594005205668,0.2534573485081255,0.1995919953220917,0.826923,0.5150149032403885,0.34947108695522916,0.2652403505597067,0.12213004061766934,0.3438317681896566,0
2025-11-22T17:45:00.836538,0.0835089615297746,-0.1541670605086343,-9.310900567811016,0.1301481403438954,0.2602392921083195,0.1969799309443275,0.836538,0.5195762540467389,0.3513746160251841,0.2699594837692414,0.12346412078684557,0.34667852515149356,0
2025-11-22T17:45:00.846154,0.0797899939309875,-0.1569792101940299,-9.306881443321595,0.1257260104820668,0.2669605977508406,0.1943358469274605,0.846154,0.523617060937898,0.35332904192018555,0.27417482650524233,0.12484141186423624,0.3492865656008805,0
2025-11-22T17:45:00.855769,0.0761144357866251,-0.1597638551587163,-9.303463924497583,0.1210599713535031,0.2735567814362141,0.1916772159456355,0.855769,0.5271299375160113,0.3552871858743591,0.27786597102563404,0.1262289844465214,0.35165371039850757,0
2025-11-22T17:45:00.865385,0.0724458156929199,-0.1625220283725779,-9.30064537556931,0.1161237992069476,0.2799606915772926,0.1890157903405875,0.865385,0.530110221423871,0.3571969968641511,0.28101684685806555,0.12758969456876834,0.3537771398854662,0
2025-11-22T17:45:00.875,0.0687457593009976,-0.1652525661947235,-9.298420863284166,0.1108980236801914,0.286105178281301,0.1863570349289247,0.875,0.5325561195258337,0.3590034667841632,0.2836160204444141,0.1288834891630478,0.35565317495385806,0
2025-11-22T17:45:00.884615,0.0649757732713491,-0.1679521365014503,-9.296783061422346,0.1053697263418295,0.2919255785388656,0.1836998736054185,0.884615,0.5344689500233655,0.36065075377330097,0.28565705853907875,0.13006896619725017,0.35727713143197176,0
2025-11-22T17:45:00.894231,0.0610989915953411,-0.1706151187627628,-9.295721966395533,0.099532265731414,0.2973618942342284,0.1810367491593074,0.894231,0.5358534694302054,0.36208434460822414,0.2871389407003881,0.13110507261036722,0.3586432527061366,0
2025-11-22T17:45:00.903846,0.0570817889112796,-0.1732333994849754,-9.295224475249324,0.093384961966888,0.302360602403219,0.1783539835324402,0.903846,0.5367182423858484,0.36325311898053203,0.28806647170975436,0.13195282844908457,0.3597447219987806,0
2025-11-22T17:45:00.913462,0.0528951715946633,-0.1757961786691012,-9.295273919359808,0.0869327639475075,0.3068760864443884,0.1756324115175433,0.913462,0.5370759835359407,0.36411122181888944,0.288450612091098,0.1325769818544445,0.3605737526496068,0
2025-11-22T17:45:00.923077,0.0485158728117701,-0.1782898889718029,-9.295849670621797,0.0801859227782548,0.3108717043438841,0.1728482448262266,0.923077,0.5369437857321911,0.3646196847579388,0.2883086290364172,0.13294751451297868,0.3611217516260062,0
2025-11-22T17:45:00.932692,0.0439271048521886,-0.1806983050218146,-9.296926929171162,0.0731596870268358,0.3143205148601096,0.1699741122091627,0.932692,0.5363431574762648,0.3647477548787408,0.2876639825716094,0.13304092468908196,0.3613795483309899,0
2025-11-22T17:45:00.942308,0.0391189565611554,-0.1830028753449962,-9.298476764846496,0.0658740179854043,0.317205672199074,0.1669802193485617,0.942308,0.5352998230392076,0.3644738925828591,0.28654590054580703,0.13284121837450152,0.36133767806459266,0
2025-11-22T17:45:00.951923,0.0340884573246168,-0.1851832607946979,-9.300466437827971,0.0583533063156704,0.3195204872821311,0.1638355789176634,0.951923,0.5338432754447752,0.36378640308602367,0.2849886427376061,0.13234054707026688,0.36098670758573537,0
2025-11-22T17:45:00.961538,0.0288393550131755,-0.187218027016683,-9.302859988613722,0.050626057183096,0.3212681501742288,0.1605092736745254,0.961538,0.5320060986104808,0.3626836761115678,0.28303048895874455,0.13153944891780064,0.36031758910888045,0
2025-11-22T17:45:00.971154,0.0233816697782369,-0.1890854238746328,-9.30561907015537,0.042724497988096,0.3224611169083952,0.1569717287572233,0.971154,0.5298230872635791,0.36117402768634377,0.2807125037975101,0.1304466782751758,0.35932202865385166,0
2025-11-22T17:45:00.980769,0.0177310875084391,-0.1907641916086703,-9.308703986196742,0.0346840605125166,0.3231201849462927,0.1531959764132676,0.980769,0.5273302015277653,0.35927516635940304,0.2780771414433136,0.12907864516257672,0.3579928549545049,0
2025-11-22T17:45:00.990385,0.0119082480734045,-0.1922343504047644,-9.312074890224643,0.0265427075523012,0.3232733121553205,0.149158890452146,0.990385,0.5245634037912043,0.3570133390743174,0.275166764597014,0.12745852427699356,0.3563243761354287,1
2025-11-22T17:45:01,0.0059379694972944,-0.193477942963686,-9.315693090861116,0.0183401052773627,0.3229542631630999,0.1448423449809449,1.0,0.5215574332083386,0.3544222347093711,0.2720221561348706,0.12561512045638454,0.35431271299038214,1
2025-11-22T17:45:01.009615,-0.000151564315774,-0.1944797028896777,-9.319522408336352,0.0101166702433981,0.3222011787270551,0.1402342185911418,1.009615,0.5183445706272023,0.3515417224936259,0.2686810938986987,0.1235815826537855,0.35195609973676717,1
2025-11-22T17:45:01.019231,-0.0063296357794476,-0.1952276178430349,-9.323530532329285,0.0019125386482114,0.3210551538837004,0.1353291425352613,1.019231,0.5149534354484706,0.3484164841948448,0.26517704068018216,0.12139404645869652,0.34925514519023115,1
2025-11-22T17:45:01.028846,-0.0125638388674066,-0.1957133477744467,-9.327690337214234,-0.0062334805437609,0.3195588926554341,0.1301289037194962,1.028846,0.5114078432180841,0.345094586654289,0.2615379821049725,0.11909027373809457,0.34621304881306547,1
2025-11-22T17:45:01.038462,-0.0188209374934845,-0.1959324462322421,-9.331981110452526,-0.0142848951539447,0.3177554961521771,0.1246424624214391,1.038462,0.5077257450119458,0.3416260484842385,0.25778543214793537,0.11670835700295527,0.34283576664273,1
2025-11-22T17:45:01.048077,-0.0250677375547415,-0.1958843245594868,-9.336389640598007,-0.0222083823610732,0.3156874326356876,0.1188856038704817,1.048077,0.5039182725592369,0.3380614650900876,0.25393362541908543,0.11428555417885652,0.33913212196374387,1
2025-11-22T17:45:01.057692,-0.0312719655632095,-0.1955719089463704,-9.340911095746035,-0.0299744313083343,0.3133957168985496,0.1128802820742252,1.057692,0.49998892928565986,0.3344507437333195,0.24998892940822057,0.11185729998377056,0.33511385549498246,1
2025-11-22T17:45:01.067308,-0.0374031343079558,-0.1950009752074185,-9.345549612473397,-0.037557727197232,0.3109192914445244,0.1066537265433086,1.067308,0.4959329889319563,0.3308419653704192,0.2459495295109839,0.10945640605016166,0.3307956104827309,1
2025-11-22T17:45:01.076923,-0.0434333641001029,-0.1941791968116735,-9.35031852282479,-0.044937267291994,0.3082945697030492,0.1002373815274574,1.076923,0.4917371742160225,0.32728035742393924,0.24180544850595884,0.10711243235554142,0.3261948496794445,1
2025-11-22T17:45:01.086538,-0.0493381226827404,-0.1931149915119351,-9.355240175016046,-0.0520962441516286,0.3055550841820718,0.0936657457521737,1.086538,0.48737967973261836,0.32380735021232904,0.23753895221626964,0.10485120005152991,0.3213317035953179,1
2025-11-22T17:45:01.096154,-0.0550968511959592,-0.1918162867998466,-9.360345342526584,-0.0590217719910994,0.302731177080806,0.0869751782091482,1.096154,0.48283057973937227,0.320459696015291,0.2331253687314583,0.10269441677021272,0.31622875219999663,1
2025-11-22T17:45:01.105769,-0.060693453575918,-0.1902893369905302,-9.365672255394648,-0.065704556445717,0.2998496668676178,0.0802027265316145,1.105769,0.47805262975245777,0.3172686382254867,0.22853431681324046,0.10065938880145475,0.3109107450431843,1
2025-11-22T17:45:01.115385,-0.0661166334999102,-0.1885377151735379,-9.371265318359535,-0.0721386072547423,0.2969334194779183,0.0733850206915543,1.115385,0.4730024381645096,0.31425912162004654,0.22373130650957074,0.09875879552140321,0.3054042674214259,1
2025-11-22T17:45:01.125,-0.0713600641820546,-0.1865615774753552,-9.377173594641492,-0.0783210686845982,0.2940007628273312,0.0665572656869282,1.125,0.4676319600054699,0.3114490455253805,0.2186796500185574,0.09700050795867053,0.29973736267956497,1
2025-11-22T17:45:01.134615,-0.0764223782084254,-0.1843572627192714,-9.38344912894973,-0.084252203915822,0.2910647282778985,0.059752367578921,1.134615,0.4618902557763192,0.30884859614938615,0.21334260838111357,0.09538745534344661,0.29393912284885026,1
2025-11-22T17:45:01.144231,-0.0813069709904711,-0.1819172529007177,-9.390145167474872,-0.0899355283187394,0.2881321763720474,0.0530002320201431,1.144231,0.45572545921726876,0.3064597443532387,0.2076856941787905,0.09391757490905242,0.2880392614121842,1
2025-11-22T17:45:01.153846,-0.0860216202508523,-0.179230481234913,-9.397314321272727,-0.0953780512031411,0.2852029278326702,0.0463272726148719,1.153846,0.4490868962754594,0.3042760241681374,0.20167904040632523,0.09258389888356895,0.28206768286443495,1
2025-11-22T17:45:01.163462,-0.0905779341141646,-0.1762829387838111,-9.405006722043314,-0.1005905636674515,0.2822690411703775,0.0397561511802598,1.163462,0.4419272861971922,0.30228268997553853,0.195299726285615,0.09137482465884754,0.276054063738105,1
2025-11-22T17:45:01.173077,-0.0949906526814701,-0.1730585053100247,-9.413268230992433,-0.1055879056929134,0.2793143618315786,0.0333057451952027,1.173077,0.4342049418381998,0.30045730348421446,0.18853393151671446,0.09027459121700535,0.2700274589017488,1
2025-11-22T17:45:01.182692,-0.0992768404863978,-0.1695399200844287,-9.422138769821606,-0.1103891542461856,0.276314442202836,0.0269913077953524,1.182692,0.42588588240410835,0.29877076001770325,0.18137878483112602,0.08926396704155602,0.26401594539500645,1
2025-11-22T17:45:01.192308,-0.1034550158651074,-0.1657098122113456,-9.431650842739852,-0.1150176853844564,0.273236906419788,0.0208247609564132,1.192308,0.41694578043797315,0.29718873742109664,0.17384378382503052,0.08832114564994553,0.25804631403358635,1
2025-11-22T17:45:01.201923,-0.1075442653548928,-0.1615517227994437,-9.441828312849436,-0.1195010702954951,0.2700423003387394,0.0148150498701969,1.201923,0.40737167995145873,0.29567352853555084,0.16595168562647372,0.0874228354766632,0.2521438166466234,1
2025-11-22T17:45:01.211538,-0.1115633858967512,-0.1570510675695968,-9.452685487600302,-0.1238707685022398,0.2666854245823625,0.0089684906612288,1.211538,0.39716343917956226,0.2941861940995039,0.15773879742093785,0.086545516798751,0.24633197423876657,1
2025-11-22T17:45:01.221154,-0.1155300864410333,-0.1521960018746387,-9.464226554800716,-0.1281615852497092,0.2631171081077736,0.0032890614226451,1.221154,0.38633486816581153,0.2926889516837939,0.14925463036069497,0.08566682243775824,0.240632448764236,1
2025-11-22T17:45:01.230769,-0.1194602689456804,-0.1469781574301903,-9.476445390226424,-0.1324108691117858,0.2592863457688423,-0.0022213930341955,1.230769,0.3749145504296677,0.29114769782382016,0.14056092012387986,0.0847669819481105,0.23506497872337265,1
2025-11-22T17:45:01.240385,-0.1233674024127069,-0.141393225409411,-9.48932572998624,-0.1366574433738715,0.255142690843511,-0.007563057168238,1.240385,0.3629463627291486,0.28953453913839083,0.1317300622183187,0.08383024935408037,0.2296473764996582,1
2025-11-22T17:45:01.25,-0.1272620033756531,-0.1354413707172753,-9.502841671989884,-0.1409402878337465,0.2506387631877964,-0.0127381413423045,1.25,0.35048973495771185,0.2878301836010673,0.1228430543107271,0.08284621459182412,0.22439558319838657,1
2025-11-22T17:45:01.259615,-0.1311512379677947,-0.1291274782163069,-9.516958451776487,-0.1452970088359276,0.2457327126034289,-0.0177509554183879,1.259615,0.33761971339326663,0.28602601846400727,0.1139870708717515,0.08181088323837263,0.21932377480354429,1
2025-11-22T17:45:01.269231,-0.1350386584712987,-0.1224612461733632,-9.531633434096626,-0.1497621529603434,0.2403904652297621,-0.0226080055388881,1.269231,0.32442689437041317,0.2841256766769683,0.10525280979083122,0.08072740014714513,0.21444451205378362,1
2025-11-22T17:45:01.278846,-0.1389240774542689,-0.115457147115153,-9.546817269368448,-0.1543654408843582,0.2345875781099985,-0.0273180409497149,1.278846,0.3110172779871546,0.2821458780564891,0.09673174720653901,0.07960629650426722,0.20976892584893322,1
2025-11-22T17:45:01.288462,-0.1428035672977926,-0.1081342721455044,-9.562455175365582,-0.1591300258771406,0.2283105457485226,-0.0318919823715435,1.288462,0.2975120558162478,0.28011634899668836,0.08851342335601015,0.0784651689752345,0.20530693014411688,1
2025-11-22T17:45:01.298077,-0.1466695592660382,-0.1005160697248075,-9.578488312236525,-0.1640709051529677,0.221557451675062,-0.0363426873150024,1.298077,0.2840472983572277,0.2780786889204881,0.08068286770403993,0.07732775723173758,0.20106745466489556,1
2025-11-22T17:45:01.307692,-0.150511011968781,-0.0926299899269086,-9.59485522039483,-0.1691936155326383,0.2143379270337152,-0.040684537613239,1.307692,0.27077344839732653,0.2760841504015026,0.07331826035697965,0.0762224581029195,0.19705868984269206,1
2025-11-22T17:45:01.317308,-0.1543136268957746,-0.0845070486120295,-9.611493288089948,-0.1744933247409934,0.2066724469690027,-0.0449328652307887,1.317308,0.2578544495369121,0.2741904139337647,0.06648891714598396,0.07518038309316923,0.19328833589174577,1
2025-11-22T17:45:01.326923,-0.1580601035278807,-0.0761813264534772,-9.628340211852745,-0.1799543990129898,0.198591048845607,-0.0491032657044925,1.326923,0.24546623738147044,0.2724575583619779,0.0602536736942164,0.07423312110857058,0.18976384702716584,1
2025-11-22T17:45:01.336538,-0.1617304383008444,-0.0676894112641795,-9.645335408445272,-0.1855504965106899,0.1901315879244377,-0.0532108782701983,1.336538,0.23379419785586136,0.2709435458694626,0.05465972695106565,0.0734104050483176,0.18649266079457896,1
2025-11-22T17:45:01.346154,-0.1653022732393307,-0.059069781485258,-9.662421330573054,-0.1912452008783386,0.1813376612644553,-0.0572697220115637,1.346154,0.22302908084843034,0.26969963906379296,0.04974197090409568,0.0727378953111402,0.18348240185212503,1
2025-11-22T17:45:01.355769,-0.1687512922888064,-0.0503621215301391,-9.679544633921818,-0.1969931656481166,0.1722563382689456,-0.0612921577662482,1.355769,0.2133608144697326,0.26876622181653403,0.045522837151187656,0.07223528198953437,0.18074104982665123,1
2025-11-22T17:45:01.365385,-0.1720516539727349,-0.0416065614197751,-9.696657144957832,-0.2027416975575746,0.1629358374973121,-0.0652885020841235,1.365385,0.2049698106458554,0.26816948292799114,0.04201262327619782,0.07191487157386613,0.17827706228345364,1
2025-11-22T17:45:01.375,-0.1751764467411911,-0.0328428439432663,-9.713716587234329,-0.2084326810562173,0.1534232807181051,-0.0692667712692499,1.375,0.19801582565452305,0.26791933711596083,0.03921026720964247,0.07178077120065587,0.1760994461371997,1
2025-11-22T17:45:01.384615,-0.1780981607034361,-0.0241094380686172,-9.730687034432204,-0.2140047380029608,0.1437626363501775,-0.0732325029333903,1.384615,0.19262530219504906,0.2680088113923837,0.037104507045733974,0.0718287229839583,0.1742177733118234,1
2025-11-22T17:45:01.394231,-0.1807891795655347,-0.0154426300280328,-9.74753906807264,-0.2193955075982707,0.133992939331853,-0.0771886043004585,1.394231,0.1888791985604793,0.26841493471665334,0.03567535164884897,0.07204657717894528,0.17264213842922574,1
2025-11-22T17:45:01.403846,-0.1832223006300037,-0.0068756267691431,-9.76424962791796,-0.2245439108031456,0.1241468531904981,-0.0811352066502716,1.403846,0.1868041080801606,0.2691009676572278,0.03489577479562432,0.07241533079405636,0.1713830575692186,1
2025-11-22T17:45:01.413462,-0.1853712874234061,0.0015622983658393,-9.780801559575265,-0.2293922454455008,0.1142496310204297,-0.0850695415777654,1.413462,0.18636935126768317,0.27001964255047145,0.03473353509193708,0.07291060736308437,0.17045130819308507,1
2025-11-22T17:45:01.423077,-0.187211454194833,0.0098465907918294,-9.797182894010174,-0.2338879652598257,0.1043185269086749,-0.0889858743334586,1.423077,0.18749138651715103,0.2711169879971881,0.035153020018123725,0.07350442118066743,0.16985771186690396,1
2025-11-22T17:45:01.432692,-0.188720277677364,0.0179580967704003,-9.813385934789697,-0.2379850318593701,0.0943626934887381,-0.0928755266949453,1.432692,0.19004478339704675,0.2723362935240517,0.036117019696430414,0.07416705677041845,0.1696128636675038,1
2025-11-22T17:45:01.442308,-0.1898780286989665,0.025883595788995,-9.829406262024968,-0.2416447785237374,0.0843835754888888,-0.0967270047003635,1.442308,0.19387716358523155,0.27362181974100536,0.03758835455985463,0.07486890023837924,0.16972681482389634,1
2025-11-22T17:45:01.451923,-0.1906684129462367,0.0336161306994123,-9.84524176612272,-0.2448362746712881,0.0743757807319755,-0.1005262209792717,1.451923,0.19882481067648347,0.27492195121302826,0.039531305340539495,0.07558207925877869,0.17020871801117796,1
2025-11-22T17:45:01.461538,-0.1910792047222181,0.0411550927113054,-9.860891797564737,-0.2475362266585329,0.064328375395902,-0.1042567727657013,1.461538,0.20472619554911933,0.27619159664432175,0.04191281514401625,0.07628179805693971,0.17106644766561835,1
2025-11-22T17:45:01.471154,-0.1911028497191005,0.0485060395006459,-9.876356479370404,-0.2497284947746798,0.0542265059183657,-0.1079002220600452,1.471154,0.21143189679100496,0.27739375077162226,0.04470344698064217,0.07694729296714889,0.1723062103944046,1
2025-11-22T17:45:01.480769,-0.1907370063255263,0.0556802442349488,-9.891636195466956,-0.2514033422553496,0.0440532095360157,-0.1114363392498531,1.480769,0.21881062017129227,0.27850023962825043,0.047878087499745536,0.07756238347299291,0.17393216244137136,1
2025-11-22T17:45:01.490385,-0.1899849934319275,0.0626939817160635,-9.906731246810288,-0.2525565495960076,0.033791260588468,-0.1148433065244309,1.490385,0.22675182936069596,0.27949176211377463,0.05141639211842218,0.0781156450894628,0.17594605181433678,1
2025-11-22T17:45:01.5,-0.1888561140450253,0.0695675589979842,-9.921641657724075,-0.2531885216837998,0.0234249165333317,-0.1180979079469528,1.5,0.23516583504196895,0.2803573970639413,0.05530296997098655,0.07860027008846844,0.17834690205742046,1
2025-11-22T17:45:01.509615,-0.1873658246830693,0.0763241049906852,-9.936367117622355,-0.2533034907378502,0.0129414617601206,-0.1211757470867657,1.509615,0.24398219613411312,0.28109375933041386,0.05952731203042484,0.07901370153450463,0.18113075300881698,1
2025-11-22T17:45:01.519231,-0.1855357226762093,0.0829881564647097,-9.950907051509876,-0.25290888399644,0.0023324804374492,-0.1240515365464884,1.519231,0.2531471443603475,0.2817039719082083,0.06408347669779862,0.0793571277888606,0.1842904714427413,1
2025-11-22T17:45:01.528846,-0.1833933309210608,0.0895841145276878,-9.965260814199734,-0.2520148887194887,-0.0084051846267881,-0.1266995020342231,1.528846,0.26262057061850735,0.28219658942061426,0.06896956411199041,0.07963491508062674,0.18781564145075128,1
2025-11-22T17:45:01.538462,-0.1809716693386932,0.0961346828387936,-9.979427993523458,-0.2506342098082804,-0.0192688049485353,-0.12909393112541,1.538462,0.2723729560870586,0.2825845661457432,0.07418702720760274,0.0798540370237779,0.1916925411148089,1
2025-11-22T17:45:01.548077,-0.1783086083040504,0.102659418851861,-9.99340879278468,-0.248781978099434,-0.030249453379525,-0.1312098684771022,1.548077,0.282382501583855,0.28288430787621605,0.07973987720075586,0.08002353164260578,0.195904208802097,1
2025-11-22T17:45:01.557692,-0.1754460021788737,0.1091735209891586,-10.007204448625894,-0.2464757370452104,-0.0413319416175811,-0.1330239252797958,1.557692,0.29263260395260104,0.28311478775702187,0.08563384089607985,0.08015398304670354,0.2004305993102019,1
2025-11-22T17:45:01.567308,-0.1724286063869263,0.1156869412998181,-10.020817631149605,-0.2437354198061385,-0.0524949119639209,-0.134515147988794,1.567308,0.30310974731005874,0.2832966566845107,0.09187551891436767,0.08025699568862152,0.2052488269327591,1
2025-11-22T17:45:01.576923,-0.1693027923281018,0.1222038688570896,-10.034252772329523,-0.240583230805369,-0.0637109989597372,-0.1356658838322542,1.576923,0.31380182025890213,0.28345125571989227,0.09847158239780032,0.08034461436918376,0.2103334892415353,1
2025-11-22T17:45:01.586538,-0.1661150913938764,0.1287225864106734,-10.047516274425147,-0.2370433690266695,-0.0749470360728068,-0.1364625820444051,1.586538,0.32469683390257087,0.28359945929750713,0.1054280339463537,0.0804286533138384,0.21565706212218436,1
2025-11-22T17:45:01.596154,-0.162910622582573,0.135235667658207,-10.060616551734356,-0.2331415764091162,-0.0861643521912877,-0.1368964796583703,1.596154,0.3357819884912057,0.2837603502639624,0.11274954379510821,0.08051993638192663,0.22119035344791657,1
2025-11-22T17:45:01.605769,-0.1597314835800095,0.1417304571440606,-10.073563853364409,-0.2289045487308256,-0.0973192374479788,-0.1369641404338483,1.605769,0.34704301058589043,0.2839498233348665,0.12043885119651845,0.0806275021719019,0.2269029997313862,1
2025-11-22T17:45:01.615385,-0.1566152035308839,0.1481897589432042,-10.086369817442646,-0.2243592812495949,-0.1083636434306551,-0.1366678350987097,1.615385,0.35846366479017,0.28417928047443763,0.12849619897479936,0.0807578634509691,0.2327639873244885,1
2025-11-22T17:45:01.625,-0.1535933595952248,0.1545926543838997,-10.099046734704745,-0.2195324248026456,-0.1192461365705922,-0.1360157564113101,1.625,0.37002534837329365,0.28445458797298806,0.13691875843877732,0.08091441261888241,0.23874217759828317,1
2025-11-22T17:45:01.634615,-0.1506904468685458,0.1609153787356881,-10.11160654671571,-0.2144497121599053,-0.1299130711548256,-0.1350220533096583,1.634615,0.38170670657873046,0.2847754202565615,0.14570000984718104,0.08109703998230122,0.2448068143134155,1
2025-11-22T17:45:01.644231,-0.1479230655770752,0.1671322148189609,-10.124059651062408,-0.209135496791543,-0.1403099062429514,-0.1337066585949279,1.644231,0.3934832499696784,0.2851350493376286,0.1548290680067004,0.08130199636077191,0.2509279912852264,1
2025-11-22T17:45:01.653846,-0.145299458084615,0.173216394772795,-10.13641361617198,-0.2036124348825022,-0.1503825644783858,-0.1320948875218076,1.653846,0.40532699525651567,0.2855205748230345,0.16428997308367546,0.08152199864727604,0.2570770598527391,1
2025-11-22T17:45:01.663462,-0.1428193991353473,0.1791410178819141,-10.1486719157947,-0.1979013342639833,-0.1600787253697921,-0.1302168024583063,1.663462,0.4172061719594957,0.28591353948693604,0.1740609899210963,0.08174655206194774,0.2632269590369545,1
2025-11-22T17:45:01.673077,-0.1404744200594455,0.1848799851606852,-10.16083278137583,-0.1920211808565205,-0.1693489716912619,-0.128106364147221,1.673077,0.4290850355342986,0.28629084624807827,0.1841139677194703,0.08196244864544079,0.2693524565745942,1
2025-11-22T17:45:01.682692,-0.1382483321636217,0.1904089345794367,-10.17288825105048,-0.185989324492835,-0.1781477682955864,-0.1258004147286928,1.682692,0.440923815965054,0.2866258894794923,0.1944138114851848,0.08215440051991013,0.2754302954422326,1
2025-11-22T17:45:01.692308,-0.1361180057735818,0.1957061494024209,-10.18482347802158,-0.1798217657198433,-0.1864343243518717,-0.1233375565031031,1.692308,0.4526788239428966,0.28688983524568673,0.20491811764632398,0.08230577756729728,0.28143924691283917,1
2025-11-22T17:45:01.701923,-0.1340543576131861,0.2007534046601803,-10.196616350065089,-0.1735334529377793,-0.1941734318468871,-0.1207569989426664,1.701923,0.4643027346642387,0.28705301551689943,0.21557702941669046,0.0823994337173453,0.28736007680530207,1
2025-11-22T17:45:01.711538,-0.1320234970575069,0.2055367066538579,-10.208237458637129,-0.167138495693234,-0.2013363598445487,-0.1180974402204236,1.711538,0.47574506218342233,0.28708641891365627,0.2263333641919084,0.08241861192466733,0.2931754362559013,1
2025-11-22T17:45:01.721154,-0.1299879781904274,0.2100468725811526,-10.21965043517162,-0.1606502292169693,-0.2079018239718887,-0.1153960302069958,1.721154,0.486952822042225,0.28696325260534117,0.23712305089488686,0.08234790834583684,0.29886969228582105,1
2025-11-22T17:45:01.730769,-0.1279081003946402,0.2142799030088752,-10.230812646636634,-0.1540811095633938,-0.2138569761385001,-0.1126874412553728,1.730769,0.49787136439256996,0.28666052044896706,0.2478758954821192,0.08217425398407266,0.3044287165566129,1
2025-11-22T17:45:01.740385,-0.1257432012714046,0.2182371197638775,-10.24167621897567,-0.1474424548799719,-0.2191983053369146,-0.110003064192252,1.740385,0.5084453515545766,0.28616052959011046,0.258516675517457,0.08188784869529249,0.30983965226990023,1
2025-11-22T17:45:01.75,-0.1234528960157006,0.2219250634661184,-10.252189337347344,-0.140744069698581,-0.2239323233700653,-0.1073703480026141,1.75,0.51861984934992,0.28545222058242425,0.2689665481397337,0.08148297023543699,0.3150906783670323,1
2025-11-22T17:45:01.759615,-0.120998232204937,0.2253551570028635,-10.26229775227584,-0.1339938031916068,-0.2280759196962831,-0.1048122964700932,1.759615,0.5283414906514521,0.28453221597982736,0.2791447307437984,0.08095858193039113,0.32017078687339373,1
2025-11-22T17:45:01.769231,-0.1183427396752676,0.228543146330212,-10.27194640124999,-0.127197103688886,-0.2316562874698332,-0.1023471163354025,1.769231,0.5375596519654133,0.283405488537748,0.2889703794211763,0.08031867093331961,0.32506958412250014,1
2025-11-22T17:45:01.778846,-0.1154533592311821,0.2315083381059804,-10.281081045370373,-0.1203566381098413,-0.2347103448661684,-0.0999879939417539,1.778846,0.546227572523584,0.282085563715684,0.29836456098500724,0.07957226525679521,0.32977712089121963,1
2025-11-22T17:45:01.788462,-0.1123012360576244,0.23427266657179,-10.289649828787493,-0.1134720417876384,-0.2372836140288437,-0.0977429770460926,1.788462,0.5543033508417098,0.28059420399551704,0.3072522047543476,0.07873310731587783,0.33428375138699107,1
2025-11-22T17:45:01.798077,-0.1088623679041223,0.2368596338428734,-10.297604690305883,-0.1065398467675737,-0.239428578307479,-0.0956149527707208,1.798077,0.561750771342849,0.27896057472866276,0.3155639291042858,0.07781900225294584,0.33858001740332466,1
2025-11-22T17:45:01.807692,-0.1051181018503748,0.2392931765975261,-10.304902579149855,-0.099553608423532,-0.2412026043623355,-0.0936017275300892,1.807692,0.5685399318736863,0.2772199500359531,0.32323765413493594,0.07685090069793635,0.34265655216770696,1
2025-11-22T17:45:01.817308,-0.1010554718831628,0.2415965206677972,-10.311506445570773,-0.0925042258580792,-0.2426655732107614,-0.0916962213804197,1.817308,0.5746476581843515,0.27541207170121806,0.3302199310567593,0.07585180923875688,0.3465039984187569,1
2025-11-22T17:45:01.826923,-0.0966673636025875,0.2437910905554126,-10.31738599585787,-0.0853804391434901,-0.2438774012628029,-0.0898867878589089,1.826923,0.5800577072411951,0.2735793136672177,0.336466943729912,0.0748456408666259,0.3501129367869924,1
2025-11-22T17:45:01.836538,-0.0919524896354489,0.2458955356416004,-10.322518221062609,-0.0781694782496855,-0.2448956379413114,-0.0881576654857001,1.836538,0.5847607768490115,0.27176481522890067,0.3419451661410594,0.07385611479639852,0.3534738230974527,1
2025-11-22T17:45:01.846154,-0.0869151671962867,0.2479249181364857,-10.326887722738054,-0.0708578288863315,-0.2457732967533738,-0.0864895597764174,1.846154,0.5887543491931357,0.27001072064239423,0.3466316836938328,0.07290578926182506,0.3565769360006128,1
2025-11-22T17:45:01.855769,-0.0815649078256261,0.2498900915676574,-10.330486861095745,-0.0634320737157665,-0.2465570260648919,-0.0848603385374225,1.855769,0.5920423986907611,0.26835661373353964,0.35051420184751014,0.0720152721345322,0.3594123386288165,1
2025-11-22T17:45:01.865385,-0.075915850152103,0.2517972935733577,-10.33331574002011,-0.0558797636673966,-0.2472856784672109,-0.0832457951880645,1.865385,0.5946349904843987,0.26683818538396276,0.35359077190838095,0.07120261717900607,0.3619698594583178,1
2025-11-22T17:45:01.875,-0.069986080318425,0.2536479774954798,-10.335382024458168,-0.0481902689324844,-0.2479893034292988,-0.0816204075169673,1.875,0.5965477852098775,0.26548613439946317,0.35586926003881014,0.07048288755836982,0.3642390983720482,1
2025-11-22T17:45:01.884615,-0.0637968888061638,0.2554388999338365,-10.336700571884167,-0.0403555565270342,-0.2486885594211506,-0.0799580111854875,1.884615,0.5978014540644292,0.2643252808232923,0.35736657848154585,0.06986785408231234,0.3662094642642957,1
2025-11-22T17:45:01.894231,-0.057372008999613,0.2571624628391496,-10.33729286429411,-0.0323708509191553,-0.2493945151494734,-0.0782323234415859,1.894231,0.5984210070940997,0.2633738646998597,0.35810770173151657,0.06936579260694,0.36787025041221233,1
2025-11-22T17:45:01.903846,-0.0507368752705919,0.2588072879046206,-10.337186250271367,-0.0242351556485115,-0.2501087936710326,-0.0764172851036375,1.903846,0.5984350510000062,0.2626430141913113,0.35812451026537995,0.06898135290349736,0.3692107531066637,1
2025-11-22T17:45:01.913462,-0.0439179299926255,0.2603589832185247,-10.336413032325003,-0.0159516322331146,-0.2508240152858976,-0.0744872286484263,1.913462,0.5978750086477319,0.26213639283160145,0.3574545259655255,0.06871548844676367,0.3702204374879318,1
2025-11-22T17:45:01.923077,-0.0369420021114241,0.2618010423066044,-10.335009445698784,-0.0075278361267772,-0.2515245113647799,-0.0724169173756861,1.923077,0.5967743327755847,0.2618500678942815,0.3561396042597443,0.06856545805623983,0.3708891521311391,1
2025-11-22T17:45:01.932692,-0.0298357754115657,0.2631157929942643,-10.333014567703176,0.0010241960292556,-0.2521873001347478,-0.0701815232837114,1.932692,0.595167727116661,0.26177266766639684,0.35422462340121225,0.06852492953718185,0.3712073909042547,1
2025-11-22T17:45:01.942308,-0.0226253606456687,0.264285302642509,-10.330469184918645,0.0096880152063417,-0.2527833238620571,-0.0677566119244183,1.942308,0.5930903677226934,0.2618859005766904,0.3517561842854397,0.06858422492086418,0.37116659725697065,1
2025-11-22T17:45:01.951923,-0.0153359792756137,0.2652921627810585,-10.327414647284211,0.0184429877688238,-0.2532789374955445,-0.065118184790769,1.951923,0.5905771194884897,0.2621654858427357,0.3487813340633218,0.06873074196715764,0.3707595025095926,1
2025-11-22T17:45:01.961538,-0.0079917584297922,0.266120114917227,-10.3238917566852,0.0272646825922973,-0.2536376162429682,-0.0622428066321298,1.961538,0.587661770484572,0.26258250183079346,0.3453463564890618,0.06894957026771865,0.36998048599529526,1
2025-11-22T17:45:01.971154,-0.0006156303046779,0.2667545176017431,-10.31993975737048,0.036125420627534,-0.253821822724842,-0.0591078282971512,1.971154,0.5843763367523401,0.2631051103131273,0.34149570295608445,0.06922429907288287,0.3688259413420829,1
2025-11-22T17:45:01.980769,0.0067706764686917,0.2671826737664808,-10.315595496081286,0.0449949870581393,-0.2537949448289013,-0.0556917083815828,1.980769,0.58075049616867,0.26370056743118025,0.3372711388001564,0.06953798926352645,0.36729463026236664,1
2025-11-22T17:45:01.990385,0.0141465752109851,0.2673940344105711,-10.310892794640925,0.053841480606575,-0.2535231833690045,-0.0519744348186018,1.990385,0.5768111847429581,0.26433738179488564,0.332711142844575,0.06987425141417514,0.3653880035887544,0
2025-11-22T17:45:02,0.0214925213690924,0.2673802799865824,-10.3058620369586,0.0626322302697157,-0.252977246005455,-0.0479380442736087,2.0,0.572582346074699,0.264987432445091,0.3278505430364064,0.07021833935384166,0.36311046944968245,0
2025-11-22T17:45:02.009615,0.0287899084320717,0.2671352691150722,-10.30052993184498,0.0713346811463381,-0.2521337081999423,-0.0435672292912133,2.009615,0.5680847854902026,0.26562783553877883,0.3227203235054495,0.07055814701301653,0.36046959055814576,0
2025-11-22T17:45:02.019231,0.0360209813532689,0.2666548478006763,-10.29491938620478,0.0799171696150218,-0.2509759376064208,-0.0388500116962956,2.019231,0.5633360611522843,0.26624236827653947,0.3173475177945702,0.07088499866550046,0.35747619653414797,0
2025-11-22T17:45:02.028846,0.0431687679133378,0.2659365323210097,-10.289049418512466,0.0883495663118232,-0.2494945288603392,-0.0337784499429279,2.028846,0.5583503519238252,0.26682231818061386,0.31175511549345947,0.07119414947927674,0.3541444027953687,0
2025-11-22T17:45:02.038462,0.0502170085304485,0.2649791041857847,-10.282935059666537,0.0966038240772357,-0.2476872373687148,-0.0283493429035365,2.038462,0.5531382697445267,0.267366698795407,0.30596194545596883,0.07148495162475388,0.3504915341775276,0
2025-11-22T17:45:02.048077,0.0571500547819865,0.2637821726424783,-10.27658721819576,0.1046544917909639,-0.2455584238075609,-0.022564895816697,2.048077,0.547706618467535,0.26788183342305427,0.29998253991314194,0.07176067667809699,0.34653795799969306,0
2025-11-22T17:45:02.057692,0.0639527120529345,0.2623457626898506,-10.270012519250542,0.1124792349483425,-0.2431180366955197,-0.0164333229643085,2.057692,0.5420581304920035,0.2683803498114155,0.29382701683248585,0.07202801216489775,0.3423068368263996,0
2025-11-22T17:45:02.067308,0.0706100250850077,0.2606699754343692,-10.26321315508183,0.1200593597226594,-0.2403801839061279,-0.0099693682424076,2.067308,0.5361912334012215,0.26887965890879795,0.2875010387763232,0.07229627097491152,0.3378238152506952,0
2025-11-22T17:45:02.076923,0.0771070392210494,0.2587547486645029,-10.256186801895511,0.1273803008336132,-0.2373613783679097,-0.003194722558133,2.076923,0.5300999091468706,0.26940002084892134,0.2810059136775204,0.07257637123339926,0.3331166574830515,0
2025-11-22T17:45:02.086538,0.0834285963999143,0.2565997260246644,-10.24892665735483,0.1344320234282699,-0.2340785826406346,0.0038616930842629,2.086538,0.5237737047399117,0.26996233894294286,0.2743388937769722,0.07287966444754436,0.3282148533502157,0
2025-11-22T17:45:02.096154,0.0895592293437176,0.2542042281351696,-10.24142163480202,0.14120930084694,-0.2305472162675349,0.0111636210752233,2.096154,0.5171979358366824,0.2705858680897846,0.26749370483372503,0.0732167120099023,0.3231492096646323,0
2025-11-22T17:45:02.105769,0.0954832018654064,0.2515673095358756,-10.233656724287927,0.1477118469807688,-0.2267793208524759,0.0186675872030804,2.105769,0.5103541001948781,0.2712860647301385,0.2604613075857237,0.0735961289167649,0.31795144219976657,0
2025-11-22T17:45:02.115385,0.1011847183569422,0.2486878806850243,-10.225613508301604,0.1539442923862979,-0.2227820839287463,0.0263233011686408,2.115385,0.5032204960823654,0.2720728179410209,0.25323086767738195,0.0740236182623679,0.3126537810926441,0
2025-11-22T17:45:02.125,0.1066482976674088,0.2455648751383004,-10.21727080586907,0.1599159998368137,-0.2185568888874862,0.0340743898385978,2.125,0.49577302541351315,0.272949271343335,0.24579089272766796,0.07450130472685752,0.30728859976994677,0
2025-11-22T17:45:02.134615,0.1118592785689548,0.2421974496284407,-10.20860541105808,0.1656407243536385,-0.2140989892411154,0.0418595032012051,2.134615,0.4879861522158496,0.2739113812288876,0.23813048475443035,0.075027444766717,0.30188807487903974,0
2025-11-22T17:45:02.144231,0.1168044027439393,0.238585215336939,-10.199592889205483,0.1711361304856552,-0.2093978235264524,0.049613811004585,2.144231,0.47983398231193164,0.27494827494933877,0.23024065058132712,0.07559655389761719,0.29648388245884943,0
2025-11-22T17:45:02.153846,0.1214724152792877,0.2347285047847406,-10.190208392782274,0.176423177940884,-0.2044379116794075,0.0572708798632275,2.153846,0.47129142622159903,0.27604338631256187,0.22211560842998893,0.07619995112690627,0.2911069335665517,0
2025-11-22T17:45:02.163462,0.125854631731701,0.2306286779179626,-10.180427455297329,0.181525383265542,-0.1992002120552011,0.0647648826662603,2.163462,0.4623354022249538,0.2771762603097774,0.2137540241505098,0.07682667927931347,0.28578715041946706,0
2025-11-22T17:45:02.173077,0.1299454343772258,0.2262884658530543,-10.170226720404932,0.1864679743636521,-0.1936637753466624,0.0720330412151937,2.173077,0.45294603452884513,0.2783248504383249,0.20516011019540575,0.07746472237151592,0.28055328164231763,0
2025-11-22T17:45:02.182692,0.1337426686343627,0.2217123408858927,-10.159584573188562,0.1912769763010265,-0.1878075175488909,0.0790181513694378,2.182692,0.4431078071866294,0.2794680904085184,0.19634452878974315,0.0781024135565838,0.2754327526468303,0
2025-11-22T17:45:02.192308,0.1372479137501833,0.2169068832243521,-10.148481663596966,0.1959782885137704,-0.1816119528979153,0.085671008302651,2.192308,0.43281064645198947,0.2805885112897072,0.18732505568218902,0.07872991266777414,0.2704515450070416,0
2025-11-22T17:45:02.201923,0.1404666058015365,0.2118810921471163,-10.1369013402464,0.2005968217419591,-0.1750607632910215,0.0919525477563397,2.201923,0.422050918272522,0.2816746825255907,0.17812697761467905,0.0793406267758923,0.26563409738905164,0
2025-11-22T17:45:02.211538,0.1434079996724129,0.2066465753945206,-10.124830030868962,0.205155749269246,-0.1681421087095592,0.0978355432516879,2.211538,0.41083233860865465,0.2827232634624817,0.16878321044665626,0.07993244370287585,0.2610032202669108,0
2025-11-22T17:45:02.221154,0.1460849677312637,0.2012175574448798,-10.112257600880488,0.2096758955808786,-0.1608495991765164,0.10330573954929,2.221154,0.39916679787873843,0.2837404633934244,0.15933413252876563,0.08050865056671522,0.2565800170575582,0
2025-11-22T17:45:02.230769,0.1485136419880948,0.1956106737363496,-10.099177698942706,0.2141752525845772,-0.1531828708035186,0.1083623487668564,2.230769,0.38707510005270085,0.2847427424141742,0.14982713308080836,0.08107842935754475,0.2523838052167848,0
2025-11-22T17:45:02.240385,0.150712912383972,0.1898445513101697,-10.085588077372044,0.2186685925775865,-0.1451477495285534,0.1130178784505482,2.240385,0.3745876206690216,0.28575665070568185,0.14031588555847885,0.08165686342252906,0.2484320324837865,0
2025-11-22T17:45:02.25,0.1527037994767939,0.1839392041493361,-10.071490867147975,0.2231671432430162,-0.1367560373215505,0.1172972987993532,2.25,0.3617448992625871,0.2868177886267987,0.13085937214249932,0.08226444387276698,0.24474018636569259,0
2025-11-22T17:45:02.259615,0.1545087271023951,0.1779152883019525,-10.056892787435103,0.2276783055071426,-0.1280249966125674,0.1212365954302031,2.259615,0.3485981939117672,0.28796896122283455,0.12152070079854606,0.08292612262775839,0.24132169927418504,0
2025-11-22T17:45:02.269231,0.1561507269707444,0.1717932676673954,-10.041805270551617,0.2322054262457274,-0.1189766236059638,0.1248807982816493,2.269231,0.33521003149648365,0.28925768913219424,0.11236576521587356,0.08367001072209712,0.23818785680259114,0
2025-11-22T17:45:02.278846,0.1576526102533184,0.165592538380334,-10.026244484179808,0.236747667548106,-0.1096367890390214,0.1282816183445401,2.278846,0.3216547853036139,0.29073330941835623,0.10346180090871396,0.08452585720534966,0.23534772118459799,0
2025-11-22T17:45:02.288462,0.1590361447716231,0.1593305541498099,-10.010231234788783,0.2413000218779865,-0.1000343051025223,0.1314948484042141,2.288462,0.30801930606752936,0.29244393977736743,0.09487589291032233,0.08552345791250851,0.23280808479985307,0
2025-11-22T17:45:02.298077,0.1603212845120636,0.1530219947586452,-9.99379073984322,0.2458535034446035,-0.0901999725545559,0.1345776881383091,2.298077,0.29440362768908823,0.2944335822379646,0.08667349599649528,0.08669113434948028,0.23057346911553614,0
2025-11-22T17:45:02.307692,0.1615255053241531,0.1466780281042731,-9.97695226240486,0.2503955164245055,-0.0801656706166706,0.137586145873578,2.307692,0.2809217612948113,0.2967396113215437,0.07891703596897892,0.08805439692726082,0.22864618268205483,0
2025-11-22T17:45:02.317308,0.162663295301448,0.1403057283221499,-9.9597486129363,0.254910379389399,-0.069963553258753,0.1405726563012865,2.317308,0.26770256699069334,0.2993908348708045,0.07166466437340666,0.08963487200463731,0.2270264479344433,0
2025-11-22T17:45:02.326923,0.1637458286453856,0.133907719862418,-9.942215538442992,0.2593799778880171,-0.05962540235823,0.1435840344236189,2.326923,0.25489062990260325,0.30240624411035566,0.06496923321214586,0.09144953647693202,0.2257126009018638,0
2025-11-22T17:45:02.336538,0.1647808305034564,0.1274821089928764,-9.924391030363225,0.2637845162022222,-0.0491821722458736,0.1466598567527899,2.336538,0.2426469423864743,0.30579449085556143,0.05887753864950498,0.09351027063761204,0.22470136113377748,0
2025-11-22T17:45:02.346154,0.1657726285390383,0.1210227348155503,-9.906314583760995,0.2681033335872665,-0.038663745223708,0.1498313207312283,2.346154,0.23114899401738803,0.3095540459231524,0.053429857435250486,0.09582370734739314,0.22398816217160988,0
2025-11-22T17:45:02.355769,0.1667223799465132,0.1145197301901796,-9.888026437537198,0.2723157348712159,-0.0280988954326561,0.153120588900829,2.355769,0.22058960601839575,0.3136739104999368,0.04865977428335106,0.09839132212832237,0.22356752666056978,0
2025-11-22T17:45:02.365385,0.1676284490138675,0.1079603451876846,-9.869566829320275,0.276401768929182,-0.0175154282342132,0.1565405871338241,2.365385,0.21117357030062975,0.31813469397978456,0.04459427679351501,0.10120968351361116,0.22343346532143002,0
2025-11-22T17:45:02.375,0.1684868903935459,0.1013299614078661,-9.850975310242127,0.2803428862161083,-0.0069404354308317,0.1600952035708058,2.375,0.20311099322214793,0.3229098600264866,0.04125407556768742,0.10427077770232515,0.2235798758454113,0
2025-11-22T17:45:02.384615,0.1692919783545859,0.0946132147048857,-9.832290174693634,0.284122422395345,0.0035994110358647,0.1637798227273769,2.384615,0.19660643355126442,0.32796697547194437,0.03865408971374775,0.10756233700021496,0.2240009165638248,0
2025-11-22T17:45:02.394231,0.1700367212846353,0.0877951446873142,-9.813548060069822,0.2877258802225456,0.0140776155775266,0.1675821189185706,2.394231,0.19184374878413596,0.3332688524171216,0.03680402394755067,0.1110681279914252,0.22469133047539386,0
2025-11-22T17:45:02.403846,0.1707133127248198,0.0808623012186778,-9.794783760940891,0.2911410059396649,0.0244677533707572,0.1714830229967984,2.403846,0.18896813501165766,0.3387745319097832,0.03570895604978407,0.1147681834706927,0.22564669766427323,0
2025-11-22T17:45:02.413462,0.171313488900637,0.0738037570675672,-9.776030285300948,0.2943576735231043,0.0347435664134544,0.1754577709082828,2.413462,0.18806874609926857,0.3444401032707487,0.03536985325935115,0.11863898474116402,0.22686359807762013,0
2025-11-22T17:45:02.423077,0.1718287827982871,0.0666119928069841,-9.757319158231994,0.2973675976658099,0.0448792859292052,0.1794769446639643,2.423077,0.18916644109800312,0.3502193771237709,0.035783942437684284,0.12265361211296205,0.22833967182249737,0
2025-11-22T17:45:02.432692,0.1722506835694592,0.0592836271805429,-9.738680945437132,0.3001638972952097,0.0548501732458713,0.1835074277257416,2.432692,0.19221049111406918,0.35606443626831025,0.03694487289431167,0.12678188277506958,0.23007357025584696,0
2025-11-22T17:45:02.442308,0.172570724663431,0.0518199631129622,-9.720145925858686,0.3027405347064675,0.0646332495167437,0.1875132209432646,2.442308,0.19708535395827118,0.36192609235307843,0.03884263674485704,0.13099049632596907,0.23206479782238,0
2025-11-22T17:45:02.451923,0.1727805309524603,0.0442273137645603,-9.701744804288214,0.3050916674792385,0.0742081592261094,0.1914561009076496,2.451923,0.20362527014937115,0.3677542862234918,0.041463250643404385,0.13524321503574996,0.2343134515241818,0
2025-11-22T17:45:02.461538,0.1728718531403651,0.0365170743035688,-9.683509340382754,0.3072109654898721,0.083558077522576,0.1952961395727474,2.461538,0.2116323418146139,0.3734984762599524,0.04478824810193758,0.13950111176850624,0.23681987177504618,0
2025-11-22T17:45:02.471154,0.1728366114038258,0.0287055192461691,-9.665472782434916,0.3090909502321829,0.0926705409153853,0.19899213124447,2.471154,0.22089380557759614,0.3791080491973235,0.04879407334255284,0.14372291296620024,0.23958422491819747,0
2025-11-22T17:45:02.480769,0.1726669646449171,0.0208133312010584,-9.64767002180656,0.3107224031704396,0.1015380752974103,0.202501989345456,2.480769,0.23119579946830385,0.38453276616691967,0.05345149769178817,0.1478654482559829,0.24260604345711304,0
2025-11-22T17:45:02.490385,0.1723554152364383,0.0128648968290221,-9.630137420152057,0.3120938715631405,0.1101585269144708,0.205783185985359,2.490385,0.24233280992128495,0.38972324199811476,0.05872519076434562,0.15188420535352112,0.24588375426741493,0
2025-11-22T17:45:02.5,0.1718949471216335,0.0048874298631056,-9.612912304558812,0.3131912836186533,0.118535062300467,0.2087933114361419,2.5,0.25411329284811346,0.3946314584897472,0.06457356560211107,0.15573398802974506,0.2494142266887109,0
2025-11-22T17:45:02.509615,0.1712791802938792,-0.003090005874953,-9.596032170420733,0.313997675421143,0.1266758637564952,0.2114908180643279,2.509615,0.26636249969116843,0.39921132342890053,0.0709489812417277,0.15936968075385421,0.2531923707719836,0
2025-11-22T17:45:02.519231,0.1705025159534417,-0.0110374985862722,-9.579533670314524,0.3144930346807583,0.1345935849935649,0.2138359780154249,2.519231,0.27892353225656874,0.4034192948756243,0.07779833684648114,0.1627471274779459,0.2572108112605094,0
2025-11-22T17:45:02.528846,0.1695602486308204,-0.0189252505600551,-9.563451491346145,0.3146542827132132,0.1423046482406227,0.2157920351970294,2.528846,0.2916574017076711,0.40721509426239355,0.08506403997086985,0.16582413299513007,0.26145965608402366,0
2025-11-22T17:45:02.538462,0.1684486299450578,-0.0267244553909541,-9.54781722757776,0.3144554375552054,0.149828466805696,0.2173264863517173,2.538462,0.3044425859712764,0.41056253280513116,0.092685288152878,0.1685615933433644,0.2659263704746052,0
2025-11-22T17:45:02.548077,0.1671648755068604,-0.0344080688978701,-9.532658342845252,0.3138680125063838,0.157186663644622,0.218412392251502,2.548077,0.31717435655921455,0.4134304652435026,0.10059957245875177,0.17092474959145898,0.27059576016612874,0
2025-11-22T17:45:02.557692,0.1657071084425754,-0.0419514676239746,-9.51799730836592,0.3128616963849285,0.1644023290118172,0.2190296001894481,2.557692,0.3297639906252211,0.4157938583102382,0.10874428951307091,0.17288453260851444,0.27545005998002503,0
2025-11-22T17:45:02.567308,0.1640742341929407,-0.0493329925141933,-9.503850998102006,0.3114053375199664,0.1714993338617283,0.2191657557753381,2.567308,0.3421378812724246,0.4176349294006859,0.11705832980158372,0.1744189342555159,0.280469117708252,0
2025-11-22T17:45:02.576923,0.1622657483826289,-0.0565343743896166,-9.490230421003275,0.3094682217037662,0.1785017025667379,0.2188169971668276,2.576923,0.3542365038468064,0.418944287838876,0.12548350065760847,0.175514316312823,0.2856306577887674,0
2025-11-22T17:45:02.586538,0.1602814950307913,-0.0635410398852978,-9.477140843583594,0.3070215995479517,0.1854330459205194,0.2179882538177968,2.586538,0.36601319140288385,0.41972199836424645,0.13396565628092408,0.1761665559108765,0.2909106049953911,0
2025-11-22T17:45:02.596154,0.158121410602292,-0.0703423025594957,-9.464582305953938,0.3040403814594852,0.1923160532548755,0.2166931075797616,2.596154,0.37743270857122135,0.4199784765558057,0.1424554494994085,0.17638192077013545,0.2962834454999127,0
2025-11-22T17:45:02.605769,0.1557852995615333,-0.0769314506605131,-9.452550475872936,0.300504881873655,0.1991720355233235,0.2149532126451849,2.605769,0.3884696635212732,0.41973511574669264,0.15090867947633121,0.17617756739088947,0.3017226015935931,0
2025-11-22T17:45:02.615385,0.1532726816700063,-0.0833057462535143,-9.441037737503544,0.2964024652115508,0.2060205020016058,0.2127973128508733,2.615385,0.3991068380794108,0.4190245398363092,0.15928626820174502,0.1755815649850307,0.3072007973742528,0
2025-11-22T17:45:02.625,0.1505827330594537,-0.0894663471418768,-9.430034385048526,0.2917289306704288,0.2128787464552258,0.2102599394002082,2.625,0.4093335351678246,0.4178903825156059,0.1675539430129887,0.17463237179903943,0.3126903958515277,0
2025-11-22T17:45:02.634615,0.1477143227288545,-0.0954181554804043,-9.419529789848545,0.286489477793902,0.2197614150355623,0.2073799077790917,2.634615,0.4191440400950728,0.4163865110393466,0.17568172634721999,0.1733777265755199,0.3181636929082863,0
2025-11-22T17:45:02.644231,0.1446661328290436,-0.1011695902754491,-9.409513430963148,0.2806991264328027,0.2266800279821067,0.2041987440024454,2.644231,0.42853627218986406,0.41457564052689283,0.18364333658238527,0.17187296171828345,0.3235931597480975,0
2025-11-22T17:45:02.653846,0.1414368464713665,-0.1067322768079361,-9.399975716524866,0.2743825199020822,0.2336424339535251,0.2007591568452745,2.653846,0.43751067166660745,0.4125273242207956,0.191415587822166,0.1701787932287694,0.32895163193155813,0
2025-11-22T17:45:02.663462,0.1380253859183487,-0.1121206423699107,-9.390908564647653,0.267573101019296,0.2406521921449405,0.1971036481351764,2.663462,0.4460693310260131,0.4103153544305199,0.19897784808199484,0.1683586900814432,0.334212448811006,0
2025-11-22T17:45:02.673077,0.1344311813580202,-0.1173514027289097,-9.382305744830273,0.2603117019764662,0.2477079028060959,0.1932733265535448,2.673077,0.45421535095761517,0.4080146640202432,0.20631158504554953,0.16647596605555195,0.33934955129961925,0
2025-11-22T17:45:02.682692,0.1306544445005635,-0.1224429183670268,-9.37416299690661,0.2526446321375074,0.2548025393201327,0.1893069631170908,2.682692,0.46195238426654434,0.4056978807887709,0.21340000532954503,0.16459077047649975,0.3443375482034177,0
2025-11-22T17:45:02.692308,0.1266964152987744,-0.1274143981209733,-9.366477951264466,0.2446213917049,0.2619228681052372,0.1852403020122666,2.692308,0.46928432451760493,0.4034317583008449,0.22022777723794473,0.16275718360571131,0.34915176202025333,0
2025-11-22T17:45:02.701923,0.1225595494976759,-0.1322849363276704,-9.35924988115348,0.2362921857573388,0.2690490653675912,0.1811056211023096,2.701923,0.4762150930152381,0.40127377514610696,0.2267808148155119,0.1610206426200084,0.3537682645391019,0
2025-11-22T17:45:02.711538,0.1182476215633109,-0.1370723921817535,-9.352479325101768,0.2277054552133725,0.2761546421640086,0.1769315169933294,2.711538,0.4827484802308318,0.3992692355143602,0.23304609516517777,0.15941592242822164,0.35816391122414765,0
2025-11-22T17:45:02.721154,0.1137657288315834,-0.1417921550766162,-9.346167617106708,0.2189056660340679,0.2832067626202299,0.1727428668367643,2.721154,0.48888801177821545,0.397449190537148,0.23901148806045652,0.15796585905863417,0.3623163817968228,0
2025-11-22T17:45:02.730769,0.1091201949485697,-0.1464558762531151,-9.340316351401476,0.2099315892219602,0.2901669817367312,0.1685609020711941,2.730769,0.4946368338726233,0.39582941673215377,0.24466559742353314,0.15668092715051707,0.36620423293018367,0
2025-11-22T17:45:02.740385,0.104318383853754,-0.1510702696745131,-9.334926795431,0.2008152472727189,0.2969923563073449,0.1644033285816898,2.740385,0.49999763719188556,0.39441054459906516,0.24999763719746843,0.15555967769093118,0.3698069673908122,0
2025-11-22T17:45:02.75,0.099368450659982,-0.1556360864141351,-9.329999264565645,0.191581601044671,0.3036368303011778,0.1602844411711609,2.75,0.504972644496421,0.3931792678355982,0.25499737168970876,0.15458993665573706,0.3731051221248122,0
2025-11-22T17:45:02.759615,0.09427906985742,-0.1601473523648007,-9.32553249195499,0.1822489378040501,0.310052788080341,0.1562151990987719,2.759615,0.5095636698912891,0.39211043744915325,0.25965513367307863,0.15375059515656633,0.37608037585960946,0
2025-11-22T17:45:02.769231,0.0890591866895632,-0.1645909383117396,-9.321523052322693,0.1728298402047185,0.3161926925574106,0.1522032493151208,2.769231,0.5137722308248457,0.39116978614659714,0.2639619051667385,0.15301380159397454,0.37871567508451043,0
2025-11-22T17:45:02.778846,0.0837178276719796,-0.1689465102285998,-9.317964906583716,0.1633325862321375,0.3220107463219822,0.1482529010805629,2.778846,0.5175996805190122,0.39031702134408863,0.26790942927338346,0.15234737715092175,0.3809953758791579,0
2025-11-22T17:45:02.788462,0.0782639830515886,-0.1731868863229482,-9.314849119167892,0.1537628372759666,0.3274645122093234,0.1443650653340397,2.788462,0.5210473354787528,0.38950903580346763,0.271490325809508,0.15171728897254702,0.3829053978825129,0
2025-11-22T17:45:02.798077,0.0727065487600465,-0.1772788017143561,-9.3121637740618,0.1441254866424311,0.3325164160472637,0.1405371791386359,2.798077,0.5241165892313491,0.3887029991665611,0.2746981991075027,0.1510900215610796,0.38443338558619317,0
2025-11-22T17:45:02.807692,0.0670543007820659,-0.1811840495512558,-9.309894090835938,0.1344265385924396,0.3371350481496936,0.136763147567251,2.807692,0.5268090178259066,0.3878591155320995,0.2775277412626964,0.1504346935013425,0.3855688709966861,0
2025-11-22T17:45:02.817308,0.0613158770760948,-0.1848609345189178,-9.308022723687865,0.1246748603745776,0.3412961864285688,0.1330333438819633,2.817308,0.5291264898871785,0.3869428617567735,0.2799748423003264,0.14972477826452152,0.3863034305789706,0
2025-11-22T17:45:02.826923,0.0554997578607447,-0.1882659491725429,-9.30653021662376,0.1148836184805919,0.3449834734947951,0.1293346968448408,2.826923,0.5310712926207125,0.38592655595031944,0.28203671784583445,0.14893930658767504,0.38663082847707286,0
2025-11-22T17:45:02.836538,0.0496142532476138,-0.1913555680377986,-9.305395585356596,0.1050712123920159,0.3481886865230161,0.1256508650863796,2.836538,0.5326462752419583,0.3847901518920499,0.283712054529132,0.14806346099310683,0.3865471376271854,0
2025-11-22T17:45:02.846154,0.0436675167744987,-0.1940880487050049,-9.304597000855996,0.0952615697031691,0.3509115479524375,0.1219624789560136,2.846154,0.5338549936380128,0.3835212216055112,0.2850011542322427,0.14708852742178363,0.38605083081306557,0
2025-11-22T17:45:02.855769,0.0376676010462537,-0.1964251347320219,-9.304112560984988,0.0854837498584118,0.3531590496867389,0.1182474407526108,2.855769,0.5347018177413841,0.3821141754895233,0.2859060338959404,0.1460112431100382,0.3851428349862554,0
2025-11-22T17:45:02.865385,0.0316225622436575,-0.1983335719468895,-9.303921148746776,0.0757708950498114,0.3549443111907563,0.1144813071086418,2.865385,0.5351919458145697,0.3805688666465416,0.2864304188647854,0.14483266226063315,0.38382654401804445,0
2025-11-22T17:45:02.875,0.0255406097554902,-0.1997863729980792,-9.304003376696164,0.0661586470686696,0.356285057695873,0.1106378027210036,2.875,0.5353312693194917,0.37888881259577994,0.2865795679112182,0.14355673231024005,0.38210778714400734,0
2025-11-22T17:45:02.884615,0.019430287563618,-0.2007637903733918,-9.30434260333967,0.0566832075700541,0.3572018688173147,0.1066895065746446,2.884615,0.5351260510048008,0.37707931781013004,0.2863598904639927,0.14218881192015306,0.37999475259366355,0
2025-11-22T17:45:02.894231,0.0133006654371692,-0.2012539848201835,-9.304925987060168,0.0473792554716745,0.3577163846334514,0.1026087101528458,2.894231,0.5345824093583926,0.3751457757772414,0.2857783523954241,0.1407343530835083,0.3774978682897346,0
2025-11-22T17:45:02.903846,0.0071615130091534,-0.2012534024564528,-9.305745526473052,0.0382779487286494,0.3578496478682293,0.0983683970754506,2.903846,0.5337056341001851,0.37309236575073784,0.2848417038702807,0.13919791338148235,0.3746296438946539,0
2025-11-22T17:45:02.913462,0.0010234304420163,-0.2007668940578247,-9.306799025874271,0.0294052194611671,0.3576207059931829,0.0939432652387558,2.913462,0.5324993840729431,0.3709212495535153,0.28355559403806374,0.13758257337034116,0.3714044805676486,0
2025-11-22T17:45:02.923077,-0.0051020872120638,-0.1998076169842977,-9.308090919110334,0.0207805151570652,0.357045515839514,0.0893107182609608,2.923077,0.5309648377817305,0.36863224843682135,0.2819236589605794,0.13588973458758638,0.36783845650512453,0
2025-11-22T17:45:02.932692,-0.011202671979748,-0.1983967490851359,-9.309632888415624,0.0124160576633969,0.3561361233922566,0.0844517805699194,2.932692,0.5290998715088112,0.36622288311108475,0.27994667403064055,0.13411920011419526,0.36394909782858875,0
2025-11-22T17:45:02.942308,-0.0172652067328341,-0.1965630166220922,-9.311444230626089,0.0043166142205213,0.3549000669539551,0.0793519168833147,2.942308,0.5268983266775854,0.3636886269809754,0.2776218466556395,0.1322694173953071,0.3597551455575416,0
2025-11-22T17:45:02.951923,-0.0232760558937963,-0.1943420085726634,-9.313551944582697,-0.003520275054484,0.3533399784929449,0.0740017491035045,2.951923,0.5243494080222697,0.36102325632600457,0.2749423016933047,0.130337791608232,0.3552763297119427,0
2025-11-22T17:45:02.961538,-0.0292213926685438,-0.1917752366519808,-9.315990529220246,-0.0111036846387968,0.3514534088079987,0.0683976628790826,2.961538,0.5214372435748247,0.35821924943062555,0.27189679898691105,0.12832103066264072,0.3505331603778622,0
2025-11-22T17:45:02.971154,-0.0350875969271652,-0.1889089129792922,-9.318801491904116,-0.0184483713580279,0.3492329367723474,0.0625422869446726,2.971154,0.5181406382970226,0.3552682425839268,0.268469721054846,0.12621552418867185,0.34554674258922496,0
2025-11-22T17:45:02.980769,-0.0408616884358063,-0.1857924497409482,-9.322032577297463,-0.0255735815248717,0.3466666174027056,0.0564448144610256,2.980769,0.5144330560213581,0.35216156629164225,0.2646413691274738,0.12401776877298273,0.3403386175996289,0
2025-11-22T17:45:02.990385,-0.04653175892022,-0.1824767247214445,-9.325736736257356,-0.0325016670109754,0.3437387873949247,0.0501211230774103,2.990385,0.5102828656628599,0.3488908701825923,0.26038860298910027,0.12172483929676647,0.3349306286224914,1
2025-11-22T17:45:03,-0.0520873707556755,-0.1790121907562692,-9.329970856289137,-0.0392566078724277,0.3404312058450025,0.0435936474433748,3.0,0.5056538881183117,0.3454488287317664,0.2556858545691661,0.11933489327214929,0.32934480561352925,1
2025-11-22T17:45:03.009615,-0.0575198974213204,-0.1754469276767504,-9.334794272943949,-0.0458625687902425,0.3367244738995836,0.036890969560603,3.009615,0.5005062752017401,0.34182991410072994,0.25050653151631996,0.11684769017411241,0.32360326197033945,1
2025-11-22T17:45:03.019231,-0.062822792135927,-0.171824740428202,-9.340267080927532,-0.0523426256279075,0.3325996458137418,0.0300471176517631,3.019231,0.49479773798378046,0.3380312176888825,0.24482480151386588,0.11426510413222866,0.31772809618549996,1
2025-11-22T17:45:03.028846,-0.0679917851228703,-0.1681834005226652,-9.346448263800236,-0.058717776689574,0.3280399150492366,0.0231005954510948,3.028846,0.4884851240983529,0.3340532901724995,0.2386177164653832,0.11159160067507216,0.31174129285297175,1
2025-11-22T17:45:03.038462,-0.0730250180404802,-0.1645531151562836,-9.353393663444484,-0.0650063085329074,0.3230322434931283,0.0160931905895616,3.038462,0.4815263241184112,0.32990095675616227,0.23186760081898916,0.10883464126863125,0.30566461923958727,1
2025-11-22T17:45:03.048077,-0.0779231167713846,-0.1609552939023379,-9.361153825908474,-0.0712235304814584,0.3175688095853696,0.009068627393376,3.048077,0.47388245723736755,0.3255840599883721,0.22456458327732548,0.10600498011851188,0.29951951563598567,1
2025-11-22T17:45:03.057692,-0.0826891835905126,-0.1574016697763348,-9.3697717944375,-0.0773818319937738,0.3116481786848958,0.0020711367133045,3.057692,0.4655202418722225,0.3211180854570645,0.21670909559277254,0.10311682480761057,0.29332697996553336,1
2025-11-22T17:45:03.067308,-0.0873286725753988,-0.1538938193236834,-9.379280958896928,-0.0834909632121713,0.3052761323718878,-0.0048559857783763,3.067308,0.4564144128163581,0.316524625474724,0.20831411622650092,0.10018783853191429,0.28710744959431944,1
2025-11-22T17:45:03.076923,-0.0918491130398012,-0.1504231144036314,-9.38970309059366,-0.0895584133826917,0.2984661225793458,-0.0116717719148425,3.076923,0.4465500271878633,0.31183163084396404,0.19940692678148145,0.09723896599480626,0.28088068573888786,1
2025-11-22T17:45:03.086538,-0.0962596665161766,-0.1469711274849777,-9.40104668534618,-0.0955897829157658,0.2912393411297757,-0.0183388781744765,3.086538,0.4359245152377657,0.3070734030688548,0.19003018298528102,0.09429407487228735,0.27466566809159804,1
2025-11-22T17:45:03.096154,-0.1005705331692753,-0.1435104994697766,-9.413305716231829,-0.1015891013405406,0.2836244151824472,-0.0248247492969424,3.096154,0.4245493666218294,0.30229029520714,0.1802421646989965,0.09137942257641986,0.26848050899554327,1
2025-11-22T17:45:03.105769,-0.1047922507313541,-0.1400062545007682,-9.426458872037584,-0.1075590956883361,0.2756567506278474,-0.0311026027229061,3.105769,0.41245138064032666,0.29752810813120634,0.17011614139211162,0.08852297512813481,0.26234239735960263,1
2025-11-22T17:45:03.115385,-0.1089349456161804,-0.1364175045658481,-9.440469329769329,-0.113501433293321,0.2673775525195059,-0.03715217383949,3.115385,0.3996734426564889,0.29283718167602796,0.15973886076488972,0.085753614971959,0.2562675821555817,1
2025-11-22T17:45:03.125,-0.1130076010019469,-0.132699439045655,-9.455285079104224,-0.1194169568262315,0.2588325672732858,-0.0429601564220348,3.125,0.38627481887307724,0.28827119609618257,0.14920823569542863,0.08310028249872374,0.25027140338999243,1
2025-11-22T17:45:03.134615,-0.1170174016558548,-0.1288054624825949,-9.470839789873123,-0.1253059151475837,0.2500706200596415,-0.048520287963207,3.134615,0.372330986336637,0.28388572653802013,0.138630363386413,0.08059110573201955,0.24436837464778438,1
2025-11-22T17:45:03.144231,-0.1209692011726088,-0.1246893422637482,-9.487054199966662,-0.1311681725612085,0.2411420483554161,-0.0538330689573757,3.144231,0.3579330293015879,0.27973661950388684,0.12811605346501137,0.07825257629146236,0.23857231596661535,1
2025-11-22T17:45:03.153846,-0.1248651387603106,-0.1203072538280996,-9.503837999124958,-0.1370033521545439,0.2320971406302094,-0.0589051601539235,3.153846,0.3431866386728938,0.27587826859515513,0.11777706896359935,0.07610881908306055,0.2328965299028433,1
2025-11-22T17:45:03.163462,-0.1287044175651916,-0.1156196496664656,-9.521092177654356,-0.1428108549963183,0.2229846739467564,-0.0637485524297087,3.163462,0.328210761333904,0.27236186050327243,0.10772230385538088,0.07418098305680404,0.2273540085791724,1
2025-11-22T17:45:03.173077,-0.1324832485117756,-0.1105929116009869,-9.5387117820532,-0.1485897150261393,0.2138506178444702,-0.0683796291800418,3.173077,0.31313597057896647,0.2692336603227965,0.09805413607043136,0.07248676385081096,0.22195765650064692,1
2025-11-22T17:45:03.182692,-0.1361949600930718,-0.1052007596049265,-9.556588973456568,-0.1543382932738322,0.204737048710887,-0.0728182326545899,3.182692,0.2981026581886423,0.2665334179656681,0.0888651948191345,0.07104006289246152,0.21672051350111346,1
2025-11-22T17:45:03.192308,-0.1398302708440586,-0.0994253855787775,-9.574616240673576,-0.1600538556374143,0.1956813043690266,-0.0770868106657631,3.192308,0.2832591585631842,0.2642929926475257,0.08023575090992312,0.06985078596258508,0.2116559638678899,1
2025-11-22T17:45:03.201923,-0.1433777132354025,-0.0932582739522593,-9.592689601672223,-0.1657320903806498,0.1867153975905834,-0.0812096731676449,3.201923,0.26875988459587813,0.2625352861909142,0.07223187556798973,0.06892477649534523,0.2067779203185119,1
2025-11-22T17:45:03.211538,-0.1468241838743117,-0.086700677953616,-9.610711641877788,-0.1713666065146907,0.1778656910079475,-0.0852123445845143,3.211538,0.2547634806022582,0.261273537763941,0.06490443104857718,0.06826386153568552,0.202100973784501,1
2025-11-22T17:45:03.221154,-0.1501555793258323,-0.0797637393336049,-9.628594266821318,-0.1769484355877074,0.1691528127481347,-0.0891209698156173,3.221154,0.24143089587224992,0.2605109789978509,0.05828887748167718,0.06786597017841872,0.19764050117072993,1
2025-11-22T17:45:03.230769,-0.1533574659339639,-0.0724682585272348,-9.646261068032976,-0.1824655528207881,0.1605917716106655,-0.0929617267139298,3.230769,0.2289231750042328,0.26024080715537934,0.052405820054018594,0.06772527770888334,0.19341272367324358,1
2025-11-22T17:45:03.240385,-0.1564157283805903,-0.0648441338621495,-9.66364920944718,-0.1879024368567171,0.1521922248157581,-0.0967602164412824,3.240385,0.21739866574002223,0.26044642166254967,0.04726217986554192,0.06783233855682662,0.1894347087162497,1
2025-11-22T17:45:03.25,-0.1593171459916445,-0.0569294930911822,-9.68071074883389,-0.1932396965708831,0.1439588601443946,-0.1005408350889435,3.25,0.20700928876336272,0.2611018829217102,0.04285284563431329,0.06817419326526247,0.18572430961318073,1
2025-11-22T17:45:03.259615,-0.1620498586036598,-0.0487695430571105,-9.697413328986976,-0.1984538060006427,0.1358918635218559,-0.1043261532762021,3.259615,0.19789555344423523,0.26217257283131856,0.03916265007300016,0.06873445794499304,0.182300038521222,1
2025-11-22T17:45:03.269231,-0.1646037019932202,-0.0404151665087416,-9.713740212515408,-0.2035169953757059,0.1279874409578439,-0.1081363291815644,3.269231,0.1901802180319744,0.2636160430219609,0.03616851533068932,0.06949341813855633,0.17918086999637978,1
2025-11-22T17:45:03.278846,-0.1669704098869518,-0.031921299797857,-9.729689685964514,-0.2083973407142957,0.1202383540829631,-0.1119885605790505,3.278846,0.1839609399257628,0.265383027170047,0.03384162741837011,0.07042815110993791,0.17638597471320622,1
2025-11-22T17:45:03.288462,-0.169143691325893,-0.0233451361948639,-9.745273907188093,-0.2130590819124591,0.1126344224547523,-0.1158965614412937,3.288462,0.17930289717057915,0.26741858286403947,0.03214952893376328,0.07151269846101115,0.17393438593545102,1
2025-11-22T17:45:03.298077,-0.1711191990305207,-0.014744222083168,-9.760517299083526,-0.2174631860721144,0.1051629473825606,-0.1198700420159059,3.298077,0.1762329595545184,0.2696633267089118,0.03105805603334452,0.07271830977171731,0.17184460501709903,1
2025-11-22T17:45:03.307692,-0.1728944084075206,-0.0061745391037767,-9.775454600024249,-0.2215681582860515,0.0978090207520164,-0.1239141803930177,3.307692,0.1747371684894208,0.2720547323779068,0.030533078051700236,0.07401377740921448,0.1701341563516793,1
2025-11-22T17:45:03.317308,-0.1744684281716726,0.0023113255594523,-9.790128674108573,-0.2253310872533512,0.0905557022707739,-0.1280290914459877,3.317308,0.17476274697254743,0.2745284727546771,0.030542017729390636,0.0753658823530155,0.16881910666810598,1
2025-11-22T17:45:03.326923,-0.1758417608559699,0.0106658350488015,-9.804588172940418,-0.2287089027215751,0.0833840819757083,-0.1322093159889019,3.326923,0.17622467542642128,0.27701980172054824,0.03105513622914753,0.07673997054529186,0.16791356829894596,1
2025-11-22T17:45:03.336538,-0.1770160266396307,0.0188479278931965,-9.818885131463956,-0.2316598159685727,0.0762732807991539,-0.1364433676122428,3.336538,0.179015547547023,0.2794649821781419,0.03204656626356046,0.07810067626382917,0.16742921061428864,1
2025-11-22T17:45:03.346154,-0.1779936620975244,0.0268241777988062,-9.833072571861184,-0.2341449082490388,0.0692004625363595,-0.14071339396068,3.346154,0.1830165983482995,0.28180277023856676,0.033495075270982784,0.07941280131413045,0.16737480734116497,1
2025-11-22T17:45:03.355769,-0.1787776078603407,0.0345696648271335,-9.847202178594868,-0.2361298192567383,0.0621409270902238,-0.1449950329232388,3.355769,0.1881077894788726,0.2839759601344161,0.03538454046262786,0.08064234593426349,0.16775584887219236,1
2025-11-22T17:45:03.365385,-0.1793710018673323,0.0420685399933008,-9.861322098160295,-0.2375864637598136,0.055068332368771,-0.149257556700375,3.365385,0.19417548272333274,0.28593297680389423,0.03770411809083929,0.08175766722393632,0.16857424711060925,1
2025-11-22T17:45:03.375,-0.1797768952176295,0.0493142705275982,-9.875474914080446,-0.2384946730862887,0.0479550611453426,-0.1534643823805386,3.375,0.20111711013041686,0.28762947282820206,0.04044809198721022,0.08273071363942942,0.16982815575889,1
2025-11-22T17:45:03.384615,-0.1799980060027386,0.0563095600161666,-9.889695850693506,-0.2388436320682524,0.0407727184076057,-0.157573987293737,3.384615,0.20884298969754253,0.28902985419770644,0.043615394345807856,0.08353825661754744,0.17151192168253984,1
2025-11-22T17:45:03.394231,-0.1800365240001483,0.0630659450343256,-9.904011266246124,-0.2386329751150341,0.0334927194024341,-0.1615412151567327,3.394231,0.21727587740761875,0.29010864044274254,0.04720880690325057,0.08416302325953647,0.17361617389351072,1
2025-11-22T17:45:03.403846,-0.179893976622038,0.0696030756424659,-9.91843750234966,-0.2378734248118336,0.0260869137827614,-0.1653189105693911,3.403846,0.22634900690439672,0.29085156952347807,0.05123387292660663,0.0845946354942706,0.17612804688950962,1
2025-11-22T17:45:03.413462,-0.1795711644881476,0.0759476941237044,-9.932980152242516,-0.2365869019727681,0.0185281965616893,-0.168859784505956,3.413462,0.236003339486499,0.2912563871854121,0.05569757624877969,0.08483028307629867,0.17903152572922043,1
2025-11-22T17:45:03.423077,-0.1790681730481557,0.0821323408801926,-9.94763378712562,-0.2348060939644731,0.0107910866607474,-0.1721183927996505,3.423077,0.24618461998735203,0.29133329788080786,0.06060686711831693,0.08487509045410753,0.1823078921788553,1
2025-11-22T17:45:03.432692,-0.1783844630845036,0.088193837638431,-9.962382144754327,-0.2325735148213885,0.0028522921351423,-0.1750530983674887,3.432692,0.25684067162806534,0.2911050714344504,0.06596713060235569,0.08474216261485648,0.18593624490317123,1
2025-11-22T17:45:03.442308,-0.1775190340849129,0.0941716160510989,-9.977198750069656,-0.2299401094544899,-0.005308699149291,-0.1776278849233024,3.442308,0.2679192000554722,0.2906067819665027,0.07178069775836414,0.08445230172492643,0.1898940622311553,1
2025-11-22T17:45:03.451923,-0.1764706392993409,0.1001059660561264,-9.992047910769712,-0.2269634500859797,-0.0137089691110088,-0.1798139010705028,3.451923,0.2793662309688829,0.28988511953394597,0.07804549100575923,0.08403338252721014,0.19415777397264003,1
2025-11-22T17:45:03.461538,-0.1752380173704971,0.1060362742321648,-10.006886014649208,-0.2237055669792427,-0.0223614362399297,-0.181590643929761,3.461538,0.29112519170008877,0.28899719114732264,0.08475387724241344,0.08351937649104214,0.19870330961091315,1
2025-11-22T17:45:03.471154,-0.1738201039569294,0.1119993157998497,-10.021663054324332,-0.2202304647512286,-0.0312740232818877,-0.1829467362535516,3.471154,0.3031365780166155,0.2880087332748866,0.0918917849316236,0.08294903044260475,0.2035065940151989,1
2025-11-22T17:45:03.480769,-0.1722161990397758,0.1180276609286811,-10.03632431821312,-0.216601400315161,-0.0404487197006225,-0.1838802960025015,3.480769,0.31533812223532254,0.2869916876877721,0.09943813133489922,0.08236422880187573,0.20854396801268854,1
2025-11-22T17:45:03.490385,-0.1704260805731021,0.1241482549984669,-10.05081220416861,-0.2128780273704852,-0.0498805587687398,-0.1843989271320743,3.490385,0.32766537796750794,0.2860211338479917,0.10736459991858983,0.08180808900769079,0.21379251867861804,1
2025-11-22T17:45:03.5,-0.1684500625234357,0.1303812273780971,-10.065068120463309,-0.2091135371961256,-0.059556574925336,-0.1845193689053511,3.5,0.34005263784114254,0.2851716229864774,0.11563579650271924,0.08132285455674161,0.21923031189080242,1
2025-11-22T17:45:03.509615,-0.1662889961870259,0.1367389734372449,-10.079034432771811,-0.2053519470670947,-0.0694548627224814,-0.1842668350429473,3.509615,0.35243409565739575,0.28451303417732965,0.12420979178184638,0.08094766661679034,0.22483652665101195,1
2025-11-22T17:45:03.519231,-0.1639442166112857,0.1432255462971497,-10.092656399591942,-0.2016257053588767,-0.0795438991825657,-0.1836740658555689,3.519231,0.3647451596587992,0.2841061763259408,0.13303903149452292,0.08071631942654657,0.23059149651939592,1
2025-11-22T17:45:03.528846,-0.1614174463660965,0.149836390166897,-10.10588401882542,-0.1979537870302317,-0.0897822920415836,-0.1827801142108924,3.528846,0.3769238235802935,0.28399847167686904,0.14207156878238825,0.08065513191479738,0.2364766683113251,1
2025-11-22T17:45:03.538462,-0.1587106823917837,0.1565584381262914,-10.118673692129445,-0.1943404342999511,-0.1001190752859594,-0.1816288891781433,3.538462,0.38891200458358327,0.2842201383155238,0.1512525473092211,0.08078108702409548,0.24247449203593266,1
2025-11-22T17:45:03.548077,-0.1558260976661286,0.1633705789795226,-10.130989608507358,-0.1907746516870511,-0.1104946089584088,-0.1802674866109062,3.548077,0.40065676049433113,0.28478130743467095,0.16052583972981183,0.08110039306420057,0.24856825866673302,1
2025-11-22T17:45:03.557692,-0.1527659823314311,0.1702444770024563,-10.142804759146635,-0.1872304988057841,-0.120842069834342,-0.1787443457246978,3.557692,0.41211130802382634,0.285670451138127,0.16983573020110906,0.081607606653461,0.2547419033854376,1
2025-11-22T17:45:03.567308,-0.1495327342515613,0.1771457114681119,-10.15410152304547,-0.1836681591845508,-0.1310894529711667,-0.1771072891107494,3.567308,0.42323578573581555,0.2868543693839782,0.17912853032741316,0.0822854292346798,0.2609797913543642,1
2025-11-22T17:45:03.576923,-0.1461288969812951,0.184035185590487,-10.164871803810446,-0.1800357249767428,-0.1411619505997839,-0.1754015317062192,3.576923,0.4339977388007715,0.28827982220392223,0.1883540372841827,0.08310525588992501,0.26726650110318306,1
2025-11-22T17:45:03.586538,-0.1425572372598604,0.1908707320878461,-10.175116740450695,-0.1762716291534308,-0.1509845428413192,-0.1736677776804368,3.586538,0.4443723340052443,0.28987672625767735,0.1974667712292684,0.08402851642586841,0.27358661769113446,1
2025-11-22T17:45:03.596154,-0.1388208504750505,0.1976088195730082,-10.184846046705788,-0.1723076481259242,-0.1604846247496543,-0.1719405500177052,3.596154,0.4543423310288477,0.2915626744357303,0.20642695376472703,0.08500879312411566,0.27992454440659337,1
2025-11-22T17:45:03.605769,-0.1349232800297952,0.2042062489028753,-10.19407705416064,-0.1680723553122461,-0.1695944996582714,-0.170246896542843,3.605769,0.46389784241889875,0.2932483874073561,0.21520120820090943,0.0859946167170148,0.2862643384222221,1
2025-11-22T17:45:03.615385,-0.130868638519206,0.2106217274477417,-10.20283355132313,-0.1634948346610568,-0.1782535852449405,-0.168605578618797,3.615385,0.4730359211439922,0.2948435903235831,0.2237629826925452,0.0869327427549009,0.2925895731667623,1
2025-11-22T17:45:03.625,-0.1266617231883902,0.216817225603016,-10.211144521241083,-0.1585084046195471,-0.1864102067341174,-0.1670267880564498,3.625,0.4817600219879193,0.2962627675529692,0.23209271878580048,0.08777162743814466,0.29888322880278806,1
2025-11-22T17:45:03.634615,-0.1223081184412935,0.2227590515066666,-10.219042870628858,-0.1530540938938953,-0.1940228911750571,-0.1655123797231965,3.634615,0.49007937958015774,0.2974303041037428,0.24017779828967234,0.08846478579924494,0.30512761230030705,1
2025-11-22T17:45:03.644231,-0.1178142739287694,0.2284186167349249,-10.226564209194738,-0.1470836519595755,-0.2010611247813383,-0.1640565658482548,3.644231,0.49800832541072143,0.29828465158305617,0.24801229217839102,0.08897373337002522,0.3113043096743549,1
2025-11-22T17:45:03.653846,-0.1131875454672772,0.233772896998785,-10.233745693601229,-0.1405619473736002,-0.2075055885993725,-0.1626469883658182,3.653846,0.5055655393099118,0.2987813132943581,0.2555965145377219,0.08927027317390136,0.3173941740440026,1
2025-11-22T17:45:03.663462,-0.1084361919871234,0.2388046125728319,-10.24062491650924,-0.1334686797516318,-0.2133479399018847,-0.1612660614967439,3.663462,0.5127732128022126,0.2988945876487118,0.2629363677675032,0.08933797452569346,0.32337735335137263,1
2025-11-22T17:45:03.673077,-0.1035693299199011,0.2435021640162325,-10.2472388070766,-0.1257993868762759,-0.2185902467194562,-0.1598924618310887,3.673077,0.519656098334221,0.29861811909146746,0.27004246053594555,0.08917278104972584,0.32923336032397893,1
2025-11-22T17:45:03.682692,-0.0985968483004023,0.247859364155825,-10.253622514441233,-0.1175657618826475,-0.2232442034634888,-0.1585026419880298,3.682692,0.5262404284188817,0.29796437750892385,0.2769289885024882,0.08878277026428048,0.33494118453496063,1
2025-11-22T17:45:03.692308,-0.0935292811560506,0.2518750115533772,-10.259808265678467,-0.1087953165661617,-0.2273302546393717,-0.157072253386016,3.692308,0.5325527101281344,0.29696322729404345,0.2836123890648208,0.08818715836489371,0.34047944280780673,1
2025-11-22T17:45:03.701923,-0.0883776265463263,0.2555523534107718,-10.265824217715153,-0.0995304437376113,-0.2308767265816875,-0.1555773798730877,3.701923,0.5386184289621729,0.29565975924338456,0.2901098120176793,0.08741469323585611,0.34582656094042385,1
2025-11-22T17:45:03.711538,-0.0831531047663098,0.2588984840793593,-10.27169334965499,-0.0898269448269831,-0.2339190134152058,-0.1539955088741838,3.711538,0.5444607240192917,0.29411154619890717,0.2964374799996113,0.08650160160751191,0.350960978026735,1
2025-11-22T17:45:03.721154,-0.0778668645311517,0.2619237182888268,-10.277432459358828,-0.0797521020351277,-0.2364988009986975,-0.1523062009018026,3.721154,0.5500991147453115,0.2923854638759991,0.30260903604357536,0.08548925948598318,0.3558613649502723,1
2025-11-22T17:45:03.730769,-0.0725296672619063,0.2646409674815547,-10.283051331226636,-0.0693823933206855,-0.2386632672514692,-0.1504914544107438,3.730769,0.5555483623434782,0.29055421092924033,0.3086339829025205,0.08442174948871348,0.3605068502954326,1
2025-11-22T17:45:03.740385,-0.0671515935264736,0.2670651349822598,-10.28855213015299,-0.0588009699089788,-0.2404641814942385,-0.1485357939985037,3.740385,0.5608175342419855,0.28869267178558,0.31451630671326064,0.08334345874269662,0.36487724892015827,1
2025-11-22T17:45:03.75,-0.0617418150995408,0.2692125330122416,-10.293929052625966,-0.0480950269395536,-0.241956840142297,-0.1464261371199528,3.75,0.5659093113659086,0.28687428908815216,0.3202533486906369,0.0822968577398327,0.3689532900155395,1
2025-11-22T17:45:03.759615,-0.0563084627496931,0.2711003145832312,-10.299168239052776,-0.0373531898329889,-0.2431988182114762,-0.1441515202153442,3.759615,0.5708195462870983,0.28516764674582695,0.32583495442340876,0.08132058675055275,0.37271684239601977,1
2025-11-22T17:45:03.769231,-0.0508586007576528,0.2727459093299926,-10.304247932684676,-0.0266630157808844,-0.2442485724364223,-0.1417027845801195,3.769231,0.575537058706075,0.2836334971499694,0.33124290594404,0.0804479607055217,0.3761511349771779,1
2025-11-22T17:45:03.778846,-0.0453983017240655,0.2741664559648422,-10.309138862916086,-0.0161086819588375,-0.245163980856736,-0.1390723263510545,3.778846,0.5800436475880374,0.2823224736018498,0.33645063310723533,0.07970597910066718,0.3792409699218193,1
2025-11-22T17:45:03.788462,-0.0399328038597264,0.2753782344742131,-10.313804828416291,-0.0057689060329003,-0.2460009306188124,-0.1362539962868091,3.788462,0.5843143011685816,0.281273691706608,0.3414232025501279,0.07911488964626395,0.38197292503664365,1
2025-11-22T17:45:03.798077,-0.0344667272338462,0.2763961163207052,-10.318203453619736,0.004284879173471,-0.2468120638221001,-0.1332431926713085,3.798077,0.588317590886761,0.28051435512447326,0.34611758774680235,0.0786883034308991,0.3843355411927965,1
2025-11-22T17:45:03.807692,-0.0290043226749225,0.2772330669519213,-10.32228709185187,0.0139900925453627,-0.2476457550376842,-0.1300371358766588,3.807692,0.592016241720176,0.2800603495402681,0.35048323046048185,0.07843379938461714,0.38631949015504313,1
2025-11-22T17:45:03.817308,-0.0235497267194994,0.2778997463006223,-10.326003851997877,0.0232943133674223,-0.2485453293299942,-0.1266352648943041,3.817308,0.5953678786591672,0.2799176594676826,0.3544629109391168,0.07835389608186552,0.38791771808949316,1
2025-11-22T17:45:03.826923,-0.0181071996380604,0.2784042550789363,-10.32929872923848,0.0321563269300437,-0.2495484636546652,-0.1230396666754989,3.826923,0.5983259518843052,0.28008431703623377,0.35799394469825985,0.07844722464965351,0.3891255597312907,1
2025-11-22T17:45:03.836538,-0.0126813301104977,0.2787520655483302,-10.332114817762369,0.0405468979857942,-0.2506866793817595,-0.1192554405988297,3.836538,0.6008408353824748,0.28055253031855637,0.3610097094631102,0.07870972226814449,0.389940817412074,1
2025-11-22T17:45:03.846154,-0.0072771948536932,0.2789461550742024,-10.334394577170787,0.0484492618462899,-0.2519848422891284,-0.1152909128063317,3.846154,0.6028610777825711,0.28131065797911825,0.3634414791051633,0.07913568629264445,0.39036379804095817,1
2025-11-22T17:45:03.855769,-0.0019004610811678,0.278987331662708,-10.336081125440288,0.0558593200544632,-0.2534606310066668,-0.1111576446845362,3.855769,0.6043347714916985,0.28234478404790525,0.36522051603392336,0.07971857707905824,0.39039730042180654,1
2025-11-22T17:45:03.865385,0.0034425832920887,0.2788747102671886,-10.337119544157916,0.0627855267738576,-0.2551239956577157,-0.1068702144320283,3.865385,0.605211004627922,0.2836397684835056,0.3662803601227386,0.08045151826537665,0.39004654592669813,1
2025-11-22T17:45:03.875,0.0087450871166799,0.2786062777217001,-10.337458196094294,0.0692484615663093,-0.2569766784825422,-0.1024457793218089,3.875,0.605441365520685,0.2851797685918011,0.36655924708355164,0.08132750041407323,0.3893190481540794,1
2025-11-22T17:45:03.884615,0.0139997918705307,0.2781794788941507,-10.337050055691703,0.0752801023846847,-0.2590118848945339,-0.0979034479141299,3.884615,0.604981469938295,0.2869483149369284,0.3660025789687002,0.08233933544514264,0.3882244216048813,1
2025-11-22T17:45:03.894231,0.0191992868543593,0.2775917637623365,-10.3358540351475,0.0809228301390775,-0.2612141721615217,-0.0932635100158006,3.894231,0.6037924700658817,0.28892807145761107,0.3645653469082586,0.08347943047621441,0.38677413468758964,1
2025-11-22T17:45:03.903846,0.0243363508711369,0.2768410464222418,-10.33383626379863,0.0862282079223976,-0.2635595778364893,-0.0885465865456831,3.903846,0.6018424872874675,0.2911004172098502,0.36221437950436547,0.08473945289974885,0.38498121742291175,1
2025-11-22T17:45:03.913462,0.029404354121785,0.2759260362680235,-10.330971259277048,0.0912555842503375,-0.2660159628758631,-0.083772764242378,3.913462,0.5991078965513266,0.293444969611769,0.358930271710155,0.08610995019045205,0.3828599383294495,1
2025-11-22T17:45:03.923077,0.0343976872124629,0.2748464078479977,-10.327242914605783,0.0960705706396077,-0.268543515250522,-0.0789607663515949,3.923077,0.5955743780540887,0.2959391436578783,0.3547088397945146,0.08757997674895834,0.38042546781371606,1
2025-11-22T17:45:03.932692,0.0393121847729804,0.2736027845340518,-10.32264521208742,0.1007434369375237,-0.2710953596776757,-0.0741271879012104,3.932692,0.5912376419802061,0.29855782373083867,0.3495619492943144,0.08913677411089453,0.377693546782474,1
2025-11-22T17:45:03.942308,0.0441455124889488,0.272196528535405,-10.317182574469095,0.1053474502292301,-0.2736182406755042,-0.0692858118600251,3.942308,0.5861037380482383,0.3012732159108424,0.343517591754118,0.09076555062526105,0.3746801788820441,1
2025-11-22T17:45:03.951923,0.0488974829303433,0.2706293542982109,-10.310869794644733,0.109957156770208,-0.2760532688012121,-0.064447033719093,3.951923,0.5801888988296313,0.304054935325859,0.33661915832514017,0.09244940369601229,0.3714013625401317,1
2025-11-22T17:45:03.961538,0.0535702612677338,0.2689028043563896,-10.303731544023432,0.1146465812181751,-0.278336730282861,-0.0596174489606096,3.961538,0.5735189269128383,0.30687035410762736,0.3289239595272536,0.09416941423014061,0.3678728750787715,1
2025-11-22T17:45:03.971154,0.0581684245287005,0.2670176385758948,-10.295801520307773,0.1194873077393162,-0.2804009625196515,-0.0547996748852771,3.971154,0.5661281943714661,0.3096851963854087,0.3205011324622965,0.09590492086026915,0.3641101163187106,1
2025-11-22T17:45:03.980769,0.0626988503120864,0.2649731893661845,-10.287121333746931,0.1245464205297096,-0.2821753011421926,-0.0499924641953554,3.980769,0.558058357794894,0.31246433063275275,0.31142913070473394,0.09763395791777423,0.36012801412433226,1
2025-11-22T17:45:03.990385,0.0671704321130524,0.2627667322804541,-10.277739240758155,0.1298843126235579,-0.2835871094807621,-0.0451911258210727,3.990385,0.5493569010249894,0.31517268470209137,0.30179300470377995,0.0993338211823239,0.35594098988172157,0
2025-11-22T17:45:04,0.0715936461600022,0.2603929199105202,-10.267708819342074,0.1355524154228325,-0.2845629041125633,-0.0403882225423484,4.0,0.5400756082257061,0.3177761983598997,0.2916816626003664,0.1009817122440703,0.3515629785024806,0
2025-11-22T17:45:04.009615,0.0759800194068225,0.2578433289228202,-10.257087648943283,0.1415909544215145,-0.2850295875827486,-0.035574485403251,4.009615,0.5302690491020199,0.32024273322480445,0.28118526443556036,0.10255540818329327,0.3470074955562449,0
2025-11-22T17:45:04.019231,0.0803415565558767,0.2551061719214249,-10.245936020449756,0.1480268904945082,-0.2849157928079541,-0.0307398722310443,4.019231,0.519993133605425,0.3225428793906929,0.27039285899678933,0.10403390904563908,0.34228774338556506,0
2025-11-22T17:45:04.028846,0.0846901723731829,0.2521662248597536,-10.234315675064032,0.1548722420556004,-0.2841533386213904,-0.0258746902608646,4.028846,0.5093037756221176,0.32465062883830476,0.2593903358629443,0.10539803080510672,0.3374167478753471,0
2025-11-22T17:45:04.038462,0.0890371539078336,0.2490050173291405,-10.222288561306314,0.162122984358902,-0.2826787927924107,-0.0209706952675405,4.038462,0.4982556998582644,0.32654392049464875,0.24825874244124885,0.10663093201201548,0.33240751726051043,0
2025-11-22T17:45:04.048077,0.0933926573339958,0.2456013245135636,-10.2099156023057,0.1697586841787937,-0.2804351278882883,-0.0160220773508943,4.048077,0.4869014274577201,0.3282050864482055,0.23707300006036544,0.10771857877047405,0.3272732136884888,0
2025-11-22T17:45:04.057692,0.0977652327899644,0.2419319785136516,-10.19725547124499,0.1777429576959623,-0.2773734301293775,-0.0110262545606348,4.057692,0.4752904716108712,0.32962123269273963,0.22590103240408435,0.1086501570418812,0.3220273273680757,0
2025-11-22T17:45:04.067308,0.1021613699480642,0.2379729809758202,-10.184363378044894,0.1860247496495035,-0.2734545896684337,-0.0059844194718173,4.067308,0.46346876007587084,0.33078457244754716,0.21480329156626513,0.10941843336930658,0.31668384248356307,0
2025-11-22T17:45:04.076923,0.1065850652066136,0.2337008588006593,-10.17128987919436,0.1945403415958915,-0.2686508754553371,-0.0009018105377563,4.076923,0.4514782851050818,0.33169270515555693,0.20383264192142553,0.11002005065341122,0.3112573841483458,0
2025-11-22T17:45:04.086538,0.111037423337719,0.2290941738400794,-10.158079738425908,0.2032159260658021,-0.2629472862224761,0.0042123008500892,4.086538,0.43935697210823277,0.3323488098624666,0.19303454894011443,0.110455731416998,0.30576333679726597,0
2025-11-22T17:45:04.096154,0.1155163164517499,0.2241350800546057,-10.144770885053603,0.2119705442701081,-0.2563425737982805,0.0093449052940996,4.096154,0.42713875574373916,0.33276170758464446,0.18244751665830966,0.11073035403464843,0.30021792646100287,0
2025-11-22T17:45:04.105769,0.1200161277742842,0.2188108145784477,-10.131393532814084,0.2207191812899661,-0.2488498583919272,0.014479815878561,4.105769,0.4148538502815369,0.3329457524565709,0.17210371709341582,0.11085287407887218,0.29463826190279824,0
2025-11-22T17:45:04.115385,0.1245276071795995,0.2131150128688815,-10.117969532680345,0.2293758384271786,-0.2404967969566666,0.0195984514119789,4.115385,0.40252920064628417,0.33292053691284196,0.1620297573729365,0.11083608389833496,0.2890423320927256,0
2025-11-22T17:45:04.125,0.1290378615800677,0.207048754014944,-10.104512036782069,0.2378564439791791,-0.2313253135789598,0.0246807661015459,4.125,0.3901891039040698,0.332710427940249,0.152247536805461,0.11069622886018364,0.28344895955273,0
2025-11-22T17:45:04.134615,0.1335304973066695,0.2006212639775961,-10.09102554045102,0.2460815072105696,-0.2213909342667532,0.0297062275874394,4.134615,0.3778559917028472,0.3323439692908661,0.14277515046574216,0.11045251392400816,0.2778777106634096,0
2025-11-22T17:45:04.144231,0.1379859237237425,0.1938502246943855,-10.07750634006598,0.2539784567218022,-0.2107617758136273,0.0346547489600927,4.144231,0.3655513555395102,0.331853181766258,0.13362779353677337,0.11012653424838907,0.2723487653365929,0
2025-11-22T17:45:04.153846,0.1423818168926182,0.1867616605051059,-10.06394340219876,0.2614836278528636,-0.199517230315074,0.0395075036337549,4.153846,0.3532967862584138,0.3312727813616209,0.12481861918052334,0.1097416556710643,0.2668827498593189,0
2025-11-22T17:45:04.163462,0.1466937297419037,0.1793894091838082,-10.050319599796394,0.2685438701447008,-0.1877463833516484,0.0442475796626962,4.163462,0.34111510156416835,0.3306393245818239,0.11635951251513289,0.10932236295992469,0.2615005383587372,0
2025-11-22T17:45:04.173077,0.1508958247395648,0.1717742261452385,-10.036613245401483,0.2751177370636404,-0.1755462109306356,0.0488604538550028,4.173077,0.3290315525767265,0.32999028072056674,0.10826176259105114,0.10889358537003845,0.2562230302047478,0
2025-11-22T17:45:04.182692,0.1549616985111648,0.1639625969203322,-10.022799840064152,0.2811762084813103,-0.1630196064445203,0.0533342827478047,4.182692,0.31707511716774006,0.3293630185941863,0.10053662992693609,0.10847999801747432,0.2510709126909296,0
2025-11-22T17:45:04.192308,0.1588652604316045,0.1560053344535079,-10.00885395143257,0.2867028995238606,-0.1502732821926432,0.0576600150449192,4.192308,0.3052798853166558,0.3287936880040719,0.09319580837895051,0.10810528927131896,0.2460644202588858,0
2025-11-22T17:45:04.201923,0.162581615232326,0.1479560248505854,-9.994751129225133,0.2916937337175461,-0.1374155739774852,0.0618313332021695,4.201923,0.29368651524304484,0.32831598807734313,0.08625176923560321,0.10779138802720212,0.2412231027437362,0
2025-11-22T17:45:04.211538,0.1660878901056006,0.1398693761126623,-9.980469762320826,0.2961560915692682,-0.124554167005039,0.0658444399022258,4.211538,0.28234369963930617,0.32795984717331134,0.07971796472601074,0.10755766135794173,0.23656561498792483,0
2025-11-22T17:45:04.221154,0.1693639504816415,0.13179952656181,-9.965992781276215,0.3001074747553978,-0.1117937676856305,0.069697719934006,4.221154,0.2713095397520669,0.32775008018520696,0.07360886636047836,0.1074201150614096,0.2321095385729621,0
2025-11-22T17:45:04.230769,0.1723929667615875,0.1237983761076462,-9.951309111079896,0.3035737550280297,-0.0992337677095846,0.0733913235218014,4.230769,0.26065268080635584,0.32770512929147094,0.06793982001154002,0.10739065176393969,0.22787124371949513,0
2025-11-22T17:45:04.240385,0.1751618177286087,0.115914003666073,-9.93641478282608,0.306587116564151,-0.0869659739593265,0.0769267278404297,4.240385,0.25045301277759713,0.3278360293287638,0.06272671160937524,0.1074764621260501,0.2238657960649934,0
2025-11-22T17:45:04.25,0.177661335467346,0.1081892258524921,-9.921313629262102,0.3091838459072933,-0.075072499308261,0.0803063331777309,4.25,0.24080169300763826,0.3281457570514458,0.05798545535534486,0.10767963787086647,0.22010690945328654,0
2025-11-22T17:45:04.259615,0.1798864077000591,0.1006603415394176,-9.906017524633306,0.3114021540590259,-0.0636239169714704,0.0835331333770038,4.259615,0.2318002147614138,0.328629105124872,0.053731339563437557,0.10799708873517416,0.21660694248120638,0
2025-11-22T17:45:04.269231,0.1818359580840362,0.0933560980281824,-9.890546176542932,0.313280213689938,-0.0526777685696441,0.0866104713600477,4.269231,0.22355824023714857,0.32927315915558597,0.04997828677793063,0.10842081334029985,0.21337693371655597,0
2025-11-22T17:45:04.278846,0.1835128253484202,0.0862969067963019,-9.874926519087328,0.3148545581614437,-0.0422774819534798,0.0895418645579629,4.278846,0.21618995455967197,0.3300583642083341,0.04673809645251303,0.10893852378388133,0.21042666838816176,0
2025-11-22T17:45:04.288462,0.1849235579765091,0.0794943300699784,-9.85919177859444,0.3161589240934971,-0.0324517101161579,0.0923308735835685,4.288462,0.2098088116861136,0.33096007159493684,0.044019737461139075,0.10953456899012572,0.20776476780571687,0
2025-11-22T17:45:04.298077,0.1860781328127707,0.0729508539359546,-9.843380284670143,0.3172235383419762,-0.0232140700433161,0.0949809901554359,4.298077,0.20452077571516963,0.3319503800526311,0.04182874769913472,0.11019105481708623,0.20539879146545664,0
2025-11-22T17:45:04.307692,0.1869895979398749,0.066659956530657,-9.827534090472176,0.3180747760004453,-0.0145632580306528,0.0974955309628397,4.307692,0.20041653045723315,0.33300004530018745,0.040166785680515064,0.11088903016992689,0.203335340598269,0
2025-11-22T17:45:04.317308,0.1876736383091339,0.0606064700575681,-9.811697464141668,0.3187350704221791,-0.006483540019943,0.0998775389418989,4.317308,0.1975635831735497,0.3340802361608843,0.039031369396372084,0.11160960419331221,0.20158015115943465,0
2025-11-22T17:45:04.326923,0.1881480689784973,0.054767228025325,-9.79591532931962,0.3192229449073474,0.0010543643095763,0.1021297076851928,4.326923,0.1959995654599328,0.3351639560443211,0.03841582966048248,0.1123348774312796,0.2001381645958311,0
2025-11-22T17:45:04.336538,0.1884322719661751,0.0491119889324718,-9.780231757736852,0.3195530515321036,0.0080919889045454,0.1042543487834038,4.336538,0.19572810727489387,0.3362270100217443,0.03830949197741236,0.11304860226816216,0.19901356665329484,0
2025-11-22T17:45:04.346154,0.1885466017385695,0.0436046299279059,-9.764688626757932,0.3197361396526459,0.0146814350723832,0.106253409248142,4.346154,0.19671827027135286,0.337248469992992,0.03869807785855303,0.11373653051261404,0.19820978800227435,0
2025-11-22T17:45:04.355769,0.1885117860001873,0.038204595857613,-9.749324534316996,0.3197789296149271,0.020883345589736,0.1081285235851362,4.355769,0.19890773596774305,0.33821066742696065,0.039564287427813385,0.11438645556139018,0.197729464977225,0
2025-11-22T17:45:04.365385,0.1883483433035282,0.0328685622456957,-9.734174019680918,0.3196839247631929,0.0267646201924443,0.1098810682877084,4.365385,0.20220905146469384,0.33909881423280236,0.040888500494251204,0.1149880058140926,0.19757436322892602,0
2025-11-22T17:45:04.375,0.1880760307691326,0.0275522316920669,-9.71926708793458,0.3194492412807388,0.0323959592001635,0.1115121850471015,4.375,0.20651760678365383,0.3399004020905497,0.042649521911647864,0.11553228334131738,0.19774527059792277,0
2025-11-22T17:45:04.384615,0.1877133273253515,0.0222121499168629,-9.704628992405384,0.319068555044027,0.0378493179452663,0.1130227489644127,4.384615,0.2117198666849575,0.3406045441127845,0.04482530194909617,0.11601145547027777,0.19824186763583004,0
2025-11-22T17:45:04.394231,0.1872769538768987,0.0168074169102145,-9.690280202260144,0.3185312484581428,0.0431953582364163,0.1144132711536174,4.394231,0.21770066773595073,0.3412013948294271,0.04739358073267882,0.11641839183354659,0.19906258523042006,0
2025-11-22T17:45:04.403846,0.1867814329513986,0.0113011854253428,-9.676236479875572,0.3178227971963913,0.0485009994589586,0.1156837395947348,4.403846,0.22434890104697586,0.3416817305225417,0.05033242940098576,0.1167464049728788,0.20020445923427604,0
2025-11-22T17:45:04.413462,0.1862386931579617,0.0056618757545564,-9.6625090117055,0.3169253914746536,0.0538271931395027,0.1168334193716655,4.413462,0.2315613947281451,0.3420367207840632,0.05362067952844383,0.11698911836471522,0.2016629920141929,0
2025-11-22T17:45:04.423077,0.1856577253696124,-0.0001359221147204,-9.649104561568617,0.3158187561079232,0.0592270539589339,0.1178606481870795,4.423077,0.23924515210060004,0.3422578896406756,0.05723824280363925,0.11714046302128889,0.20343203027767104,0
2025-11-22T17:45:04.432692,0.1850443001137452,-0.0061108537068173,-9.636025631194377,0.314481115941604,0.0647444566888775,0.1187626659363188,4.432692,0.24731827502797826,0.3423372427535692,0.0611663291628147,0.11719478777611617,0.2055036674193221,0
2025-11-22T17:45:04.442308,0.1844007617511067,-0.0122744881827362,-9.623270616870103,0.3128902420906146,0.070413149332574,0.1195355074491836,4.442308,0.25570995063941226,0.34226751633128816,0.06538757885601065,0.1171470527355886,0.20786817737557423,0
2025-11-22T17:45:04.451923,0.1837259224332089,-0.018631260529317,-9.610833950526304,0.3110245137006515,0.0762563666742334,0.1201739756417749,4.451923,0.2643598545852409,0.3420424915162322,0.06988613271632972,0.11699306600263179,0.21051398598343535,0
2025-11-22T17:45:04.461538,0.1830150813549914,-0.0251786434268762,-9.598706217731364,0.3088639449398425,0.0822868884194121,0.1206717067981359,4.461538,0.27321725946251163,0.3416573273195324,0.0746476708682054,0.1167297293111261,0.2134276850238358,0
2025-11-22T17:45:04.471154,0.1822601865938947,-0.0319075288247565,-9.58687425930512,0.3063911497416643,0.0885074730905282,0.1210213375802241,4.471154,0.28224005272052677,0.3411088881612382,0.07965944735968573,0.1163552735825961,0.21659409299553056,0
2025-11-22T17:45:04.480769,0.1814501384006874,-0.038802797361268,-9.575321284442262,0.3035922313180945,0.0949115916912768,0.1212147779810106,4.480769,0.29139378001831706,0.34039605690292113,0.08491033503336336,0.11586947555505672,0.21999636481730536,0
2025-11-22T17:45:04.490385,0.1805712134025864,-0.0458440450235841,-9.56402703975686,0.3004575823051811,0.1014843749772468,0.1212435870816775,4.490385,0.3006507567589304,0.33952002082002386,0.09039087753971753,0.11527384453762944,0.2236161500902412,0
2025-11-22T17:45:04.5,0.1796075794457864,-0.0530064232966535,-9.552968081077484,0.2969825702827091,0.1082036845356837,0.1210994443663013,4.5,0.30998924573542747,0.3384845045561892,0.09609333247161923,0.11457175982464889,0.22743379648733486,0
2025-11-22T17:45:04.509615,0.1785418725407043,-0.0602615360814397,-9.542118185112434,0.2931680735283322,0.1150412300879238,0.1207747054214416,4.509615,0.3193926790503203,0.33729591374057916,0.10201168343094093,0.11376853342609221,0.23142859156581178,0
2025-11-22T17:45:04.519231,0.1773558127664085,-0.0675783318619044,-9.53144892516698,0.2890208353117479,0.1219636806575555,0.1202630170453455,4.519231,0.3288488939516772,0.33596335501463215,0.10814159505324145,0.11287137591268775,0.23557903328200486,0
2025-11-22T17:45:04.528846,0.1760308377875728,-0.0749239395953737,-9.520930424535448,0.2845536259251038,0.1289337437675189,0.1195599412229466,4.528846,0.3383493468689594,0.3344985139791604,0.1144802805266514,0.11188925585426658,0.2398631173407701,0
2025-11-22T17:45:04.538462,0.1745487312628093,-0.082264418748226,-9.510532291364893,0.279785223395272,0.1359112040907653,0.1186635142412693,4.538462,0.3478882701671612,0.3329153890102286,0.12102624851989972,0.11083265623983184,0.2442586286719249,0
2025-11-22T17:45:04.548077,0.1728922221118056,-0.089565415128546,-9.500224722712094,0.2747402207880667,0.1428539188455266,0.1175746646260708,4.548077,0.3574617475016706,0.3312298791023131,0.1277789009269481,0.10971323281013295,0.24874342481294467,0
2025-11-22T17:45:04.557692,0.1710455297121753,-0.0967927231309163,-9.48997973728086,0.2694486376811152,0.1497187667407672,0.1162974349757232,4.557692,0.3670667075370112,0.32945920968234854,0.1347379677820617,0.1085433708445177,0.25329570042383875,0
2025-11-22T17:45:04.567308,0.1689948302009072,-0.1039127538182977,-9.4797724605502,0.2639452833436905,0.1564625475258878,0.1148389837455288,4.567308,0.3766998673517282,0.32762117386606376,0.14190279006280965,0.10733563356537758,0.2578942240269986,0
2025-11-22T17:45:04.576923,0.1667286240711462,-0.1108929110721479,-9.469582358731223,0.2582688198667948,0.1630428343761881,0.1132093676945862,4.576923,0.38635668684822233,0.32573318850036764,0.14927148947233534,0.10610211009061604,0.2625185399014697,0
