Timestamp,Acceleration_X,Acceleration_Y,Acceleration_Z,Gyro_X,Gyro_Y,Gyro_Z,time_s,acc_mag,gyro_mag,acc_sq,gyro_sq,Energy,is_active
2025-11-22T17:45:19.644231,-0.0039608123805965,0.0177562094702603,-9.82385658178618,0.0329607597248823,0.0398424848134429,-0.0504450422509436,19.644231,0.030001791679609396,0.07223944604888895,0.0009001075039866796,0.005218537565450337,0.006539043378554534,0
2025-11-22T17:45:19.653846,-0.0049409823894533,0.017851972548609,-9.823911064203475,0.0332707385621118,0.0385593448914374,-0.0524272537901823,19.653846,0.03024640841805617,0.07309160049489542,0.0009148452221918591,0.005342382062905397,0.006559486623330474,0
2025-11-22T17:45:19.663462,-0.0058407196797633,0.0180786901552497,-9.824391853495763,0.0332807554538663,0.0369071373798893,-0.0543863498809311,19.663462,0.03091788416217774,0.07367238645876165,0.0009559155610658411,0.005427620526529126,0.006600509305552288,0
2025-11-22T17:45:19.673077,-0.0066275256475472,0.0184615500696386,-9.82531803229089,0.0330175550399502,0.0348692161039338,-0.0562701588748559,19.673077,0.0320274208494088,0.07397534692260997,0.0010257556862651456,0.0054723519523205005,0.006687684664509192,0
2025-11-22T17:45:19.682692,-0.0072703759231289,0.0190203587605973,-9.826697394358948,0.0325207575805487,0.0324406572445081,-0.0580279906579099,19.682692,0.03357652869196896,0.0740084023328632,0.0011273832790026149,0.005477243615862951,0.006854929371584806,0
2025-11-22T17:45:19.692308,-0.0077408195050592,0.0197684553614828,-9.828525780907992,0.0318419278340791,0.0296297194747995,-0.0596123883882973,19.692308,0.035558856708273655,0.07379339735845761,0.0012644322903995382,0.005445465493703218,0.0071445074506059835,0
2025-11-22T17:45:19.701923,-0.0080141026695381,0.0207117080579447,-9.83078639436716,0.031042934916534,0.0264590777647935,-0.0609808104074721,19.701923,0.037960542282818296,0.07336488153297607,0.0014410027704056358,0.005382405842347613,0.007606354378861696,0
2025-11-22T17:45:19.711538,-0.0080702859041168,0.0218475830631659,-9.833449049611458,0.030193614042339,0.0229668144847517,-0.0620971996653666,19.711538,0.04075886799441131,0.07276806375598527,0.0016612853201858463,0.005295191102795136,0.008296647403680434,0
2025-11-22T17:45:19.721154,-0.0078953201879891,0.0231642820727329,-9.836469351673289,0.0293687637990981,0.0192071544832621,-0.0629333798150178,19.721154,0.04391962723300332,0.07205587668866711,0.0019289336562859668,0.0051920493653724005,0.0092756151113841,0
2025-11-22T17:45:19.730769,-0.0074820476489752,0.0246399727378778,-9.839787812156745,0.0286445521630609,0.0152509271416783,-0.0634701932456396,19.730769,0.04739387396874463,0.07128510768696314,0.0022461792897652496,0.005081566577941931,0.010604659982906228,0
2025-11-22T17:45:19.740385,-0.0068310915186449,0.0262421729732101,-9.843328945128482,0.0280944636000626,0.0111857289504573,-0.0636982891084233,19.740385,0.051114703751845264,0.07051164054586037,0.002612712939638904,0.00497189145246862,0.012342953773780991,0
2025-11-22T17:45:19.75,-0.005951600462712,0.0279273726109574,-9.847000427261008,0.0277849830950653,0.0071157463638691,-0.0636184930046061,19.75,0.05499454383605955,0.06978503983007459,0.0030243998517362754,0.004869951784085096,0.014543746200294718,0
2025-11-22T17:45:19.759615,-0.0048618104923419,0.0296409754082126,-9.850692461095267,0.0277712576986241,0.0031611788935892,-0.0632417331400642,19.759615,0.05892325717667708,0.06914298675006568,0.0034719502363088272,0.004780752616719758,0.017250689969731572,0
2025-11-22T17:45:19.769231,-0.00358938234164,0.0313176272560481,-9.85427752231602,0.0280929897684019,-0.0005428221766167,-0.0625885365811227,19.769231,0.06276724361726553,0.06860638192915798,0.00393972687130916,0.0047068356414094945,0.02049451703565081,0
2025-11-22T17:45:19.778846,-0.0021714661018857,0.0328819753819538,-9.857610682232064,0.0287707980380297,-0.0038478013248275,-0.0616881343002973,19.778846,0.0663696487657937,0.06817617111742162,0.00440493027729482,0.004647990308231954,0.024290392800304483,0
2025-11-22T17:45:19.788462,-0.000654445676226,0.0342498855515742,-9.860530675545473,0.0298032386295062,-0.0065943229704415,-0.0605772332679999,19.788462,0.06955174793943183,0.0678330252801057,0.004837445641430261,0.004601319318651458,0.028636224642580973,0
2025-11-22T17:45:19.798077,0.0009066697315847,0.0353301265545675,-9.86286184367784,0.0311646237809004,-0.0086150088603787,-0.0592985369586525,19.798077,0.07211554120257946,0.06754086643289485,0.005200651282940935,0.004561768638506142,0.033512114889413344,0
2025-11-22T17:45:19.807692,0.0024492123514047,0.0360265051304014,-9.864417035670105,0.0328037331298034,-0.0097382437961132,-0.0578991222335784,19.807692,0.07384756053910348,0.06725493777339141,0.005453462197576553,0.00452322665490275,0.03888103861216148,0
2025-11-22T17:45:19.817308,0.0039041548700256,0.0362403987961,-9.86500149693414,0.0346434897977925,-0.0097924331561544,-0.0564288031056565,19.817308,0.07452384540419509,0.0669348410950863,0.005553803533828369,0.004480272952424453,0.04469070843240568,0
2025-11-22T17:45:19.826923,0.0051976914184716,0.0358736002892729,-9.864417722157231,0.0365816588268567,-0.0086106607370246,-0.0549386197250956,19.826923,0.07391599368013892,0.06656285133729882,0.005463574121722336,0.004430613178151343,0.05087647681881234,0
2025-11-22T17:45:19.836538,0.0062530381474501,0.0348313694327185,-9.862471193074526,0.0384925994268857,-0.0060355975981417,-0.0534795762652072,19.836538,0.07179815280901483,0.06616776954463169,0.005154974746786644,0.004378173726511489,0.057365034125312984,0
2025-11-22T17:45:19.846154,0.006992391317559,0.0330255901458914,-9.858976869609837,0.0402300573608615,-0.0019245399969901,-0.0521017151612626,19.846154,0.0679547959293373,0.0658540058933666,0.004617854289797877,0.004336750092203562,0.06407859726463094,0
2025-11-22T17:45:19.855769,0.0073389895499661,0.030377944211254,-9.85376626078081,0.0416309266382484,0.0038455099307449,-0.0508535670161532,19.855769,0.06218915548925407,0.06583317763599948,0.00386749106046662,0.004334007277653062,0.07093925452665237,0
2025-11-22T17:45:19.865385,0.0072192367568531,0.0268230274519024,-9.84669487021341,0.0425198531610137,0.0113727910792696,-0.0497819663522424,19.865385,0.05433233922153685,0.0664493977674943,0.0029520030852841516,0.004415522463662676,0.07787313740006734,0
2025-11-22T17:45:19.875,0.0065648454259493,0.0223113431892542,-9.837649784531434,0.0427145083322947,0.0207258516766087,-0.0489321789500674,19.875,0.04425380780948309,0.06817952982084781,0.0019583995056386668,0.004648448286591876,0.08481412694213561,0
2025-11-22T17:45:19.884615,0.0053149534761555,0.0168121126152718,-9.826557144350634,0.0420313349932977,0.0319388823816761,-0.0483482508862447,19.884615,0.031877543460916896,0.07158406731157858,0.0010161777771026455,0.0051242786928686135,0.09170686339054807,0
2025-11-22T17:45:19.894231,0.0034181564219208,0.0103158359473887,-9.81338919906305,0.0402915615489448,0.0450075007937672,-0.0480734698333281,19.894231,0.017244445951323063,0.07720196604730523,0.00029737091616810235,0.005960143561569269,0.09850890433594647,0
2025-11-22T17:45:19.903846,0.0008343872382399,0.0028365141445122,-9.79817059685541,0.0373272857183031,0.0598851917192735,-0.0481508296985297,19.903846,0.003476885160713946,0.08542871207624979,1.2088730420792841e-05,0.007298064847006787,0.10519195925831193,0
2025-11-22T17:45:19.913462,-0.0024634290123549,-0.0055865915609998,-9.780983518292391,0.03298743559842,0.0764806006072007,-0.0486234048249156,19.913462,0.019972607849356897,0.0964452625760627,0.00039890506430419274,0.00930168867336568,0.11174220756623324,0
2025-11-22T17:45:19.923077,-0.0064880232725598,-0.0148878020143754,-9.761971249309674,0.0271434122706517,0.0946558584847671,-0.0495345602673877,19.923077,0.04135126326814608,0.1102278051857438,0.0017099269738715273,0.012150169036066286,0.1181597761411238,0
2025-11-22T17:45:19.932692,-0.0112368141505719,-0.0249745945040472,-9.741339813175,0.0196942060844766,0.1142261025837735,-0.0509279418985527,19.932692,0.06473804044949265,0.12660615913453396,0.004191013881240146,0.016029119530798937,0.12445750588026011,0
2025-11-22T17:45:19.942308,-0.0166914002541712,-0.0357280148948259,-9.719357334338818,0.0105707714711895,0.1349603539082567,-0.052847198390111,19.942308,0.08976822052213732,0.14532331098011,0.008058333415711076,0.02111886471422176,0.13065917239118813,0
2025-11-22T17:45:19.951923,-0.0228175764658862,-0.0470040102244571,-9.696350893271529,-0.0002605494837473,0.1565839060277608,-0.0553353885328795,19.951923,0.1160739251450025,0.16607405798928632,0.013473156098567645,0.027580592737028835,0.13679734325602694,0
2025-11-22T17:45:19.961538,-0.029565916685854,-0.0586357461897258,-9.672700756574011,-0.0127957494690359,0.1787823477699141,-0.0584340349437218,19.961538,0.1432389316405638,0.18852425710873638,0.020517391537530114,0.03554139551840094,0.14291105415722047,0
2025-11-22T17:45:19.971154,-0.0368729411171334,-0.0704369503966679,-9.648832018856574,-0.0269921913924034,0.2012072827970328,-0.0621818124591571,19.971154,0.1708002818814704,0.21231939818922588,0.029172736290789744,0.045079526847435054,0.1490434712426042,0
2025-11-22T17:45:19.980769,-0.0446628567354881,-0.0822062775970899,-9.625203847847624,-0.0427690731758495,0.2234837293538919,-0.0666129092729223,19.980769,0.19825825999292274,0.23708954128777454,0.039306337655421346,0.05621145058804735,0.1552396813499311,0
2025-11-22T17:45:19.990385,-0.0528498218173104,-0.0937326158944852,-9.602296672977294,-0.060009361211311,0.2452190799981754,-0.07175516264653,19.990385,0.22509000969477022,0.2624544226995825,0.05066551246439175,0.06888232399457114,0.16154471944112175,0
2025-11-22T17:45:20,-0.0613406396444667,-0.1048011447797502,-9.580597814706216,-0.0785631313954169,0.266013358788465,-0.0776281305558837,20.0,0.2507653742661187,0.2880302055725675,0.0628832729308266,0.08296139932217549,0.16800190762663092,0
2025-11-22T17:45:20.009615,-0.07003774004598,-0.1151998363680486,-9.560586224675804,-0.098252142923997,0.2854703384159581,-0.0842412919983601,20.009615,0.2747639771603228,0.3134380209579434,0.0754952431449584,0.09824339298203215,0.17465154556525103,0
2025-11-22T17:45:20.019231,-0.0788422717062003,-0.1247259965968795,-9.542717158137586,-0.1188753693783934,0.3032089242465872,-0.0915925568255344,20.019231,0.29659254668935847,0.3383137621402075,0.08796713875167929,0.11445620165346088,0.18152996029424562,0
2025-11-22T17:45:20.028846,-0.0876571133121077,-0.1331924124762174,-9.527407659362948,-0.1402151533674974,0.3188741478217426,-0.0996672171891684,20.028846,0.3158014762939421,0.36231832076938403,0.09973057242943328,0.13127456556514625,0.18866889656547522,0
2025-11-22T17:45:20.038462,-0.0963896224185172,-0.1404327202398157,-9.51502366910351,-0.1620436378596144,0.3321471659512718,-0.1084374091350174,20.038462,0.33199972499260444,0.3851474420532411,0.11022381739516497,0.1483385521201547,0.1960952076295201,0
2025-11-22T17:45:20.048077,-0.1049539751951119,-0.1463057160837185,-9.505869392250212,-0.1841291378966112,0.3427537912146001,-0.1178620982161899,20.048077,0.3448673859373863,0.40654049615069554,0.11893351388328616,0.1652751750104537,0.20383079130775472,0
2025-11-22T17:45:20.057692,-0.1132730002687032,-0.150698456086022,-9.500179356237684,-0.2062421380184506,0.3504712261966473,-0.1278875713256496,20.057692,0.3541655201775497,0.4262876150978072,0.12543321568263438,0.18172113078577623,0.21189270652465358,0
2025-11-22T17:45:20.067308,-0.1212794655083518,-0.1535281037333082,-9.49811338792426,-0.2281606408912556,0.3551328101343458,-0.1384484042884554,20.067308,0.35974312215872284,0.4442347932522231,0.12941511394050578,0.1973445515358454,0.2202934003053312,0
2025-11-22T17:45:20.076923,-0.1289168271002617,-0.1547425686214315,-9.499754554055327,-0.2496746567718116,0.356630707748733,-0.1494688623168094,20.076923,0.36154133742031913,0.46028668973343717,0.13071213866367304,0.21186383674576545,0.2290409739185854,0
2025-11-22T17:45:20.086538,-0.1361394853109661,-0.1543200361441225,-9.505109952733214,-0.2705897034659933,0.3549165724686931,-0.1608646660930497,20.086538,0.3595952905604656,0.47440700019283827,0.12930877299326565,0.22506200183196765,0.23813941929778826,0
2025-11-22T17:45:20.096154,-0.142912605036247,-0.1522675208306863,-9.514114111292228,-0.2907292717884046,0.3500003034497254,-0.1725450290114302,20.096154,0.354034111266701,0.48661638785194145,0.12534015194040282,0.2367955089260711,0.24758876334405897,0
2025-11-22T17:45:20.105769,-0.1492115566396492,-0.1486185973004484,-9.526634640421657,-0.3099362926120863,0.3419470946363385,-0.1844148578241504,20.105769,0.34507998480899676,0.4969880891879195,0.11908019591577744,0.24699716079465941,0.2573850683630678,0
2025-11-22T17:45:20.115385,-0.1550210286701759,-0.1434304831294258,-9.542479718421202,-0.3280737052638386,0.3308730406582221,-0.1963770139340497,20.115385,0.33304732133005344,0.5056414309781344,0.11092051824512386,0.25567325672161545,0.26752025190898043,0
2025-11-22T17:45:20.125,-0.1603338716341061,-0.136780668054381,-9.561406936117567,-0.3450242663585049,0.3169396092138056,-0.2083345464971484,20.125,0.31834344924843627,0.512733598985864,0.10134255167939173,0.2628957435289968,0.2779817092063697,0
2025-11-22T17:45:20.134615,-0.1651497507896919,-0.1287632962596995,-9.583133022173184,-0.360689762649069,0.3003473083096334,-0.2201928220296371,20.134615,0.30147257374643116,0.5184500837709057,0.09088571272129738,0.2687904893620592,0.2887517464787477,0
2025-11-22T17:45:20.144231,-0.1694737034773551,-0.1194855047487206,-9.607343985609496,-0.3749898129530252,0.2813288639605826,-0.231861488005926,20.144231,0.28304498210747564,0.5229943012464083,0.0801144618962212,0.2735230391362189,0.2998068634247246,0
2025-11-22T17:45:20.153846,-0.1733147000548898,-0.1090638969589957,-9.633705250551554,-0.3878604580606103,0.2601421757946953,-0.2432562232990144,20.153846,0.2637932193387856,0.526576942837307,0.06958686256912064,0.27728327672788455,0.3111169559614599,0
2025-11-22T17:45:20.163462,-0.1766842956014707,-0.0976212886883085,-9.66187141331891,-0.3992527282497158,0.2370632494757432,-0.2543002436868574,20.163462,0.24459509965628848,0.5294056471232952,0.059826762775869693,0.28027033920603495,0.32264454300517503,0
2025-11-22T17:45:20.173077,-0.1795954398456846,-0.0852838118851915,-9.691495319129976,-0.4091313375828553,0.2123792485673217,-0.2649255387945392,20.173077,0.22649749745579895,0.5316755944369963,0.05130111635373965,0.28267893771993335,0.3343441487544179,0
2025-11-22T17:45:20.182692,-0.1820614901827639,-0.0721784146352715,-9.72223622304107,-0.4174735877677768,0.1863817876093094,-0.2750738145902537,20.182692,0.21072094047281595,0.5335615903617638,0.04440331475374804,0.28468797070937457,0.3461619888267716,0
2025-11-22T17:45:20.192308,-0.1840954462516694,-0.0584307642177387,-9.753766857287102,-0.4242684866124283,0.1593605979737601,-0.2846971071401771,20.192308,0.19860209219135005,0.5352120997632062,0.039442791022781504,0.28645199173294017,0.35803610894966653,0
2025-11-22T17:45:20.201923,-0.1857093958706037,-0.0441635460916475,-9.785779280087544,-0.4295160192212147,0.1315977149167879,-0.2937580275379995,20.201923,0.19141741663924475,0.5367455151950271,0.03664062739284221,0.2880957480819751,0.3698971046161527,0
2025-11-22T17:45:20.211538,-0.1869141390048841,-0.029495146030503,-9.81798944095682,-0.4332264765880612,0.1033623373593289,-0.3022296032429777,20.211538,0.19008019093329198,0.5382487212039592,0.03613047898523673,0.28971168587769736,0.38166950768431257,0
2025-11-22T17:45:20.221154,-0.1877189468426244,-0.0145386945930757,-9.850140461556716,-0.4354197516783936,0.0749064942925937,-0.3100947001070507,20.221154,0.19484312286887426,0.5397777932384418,0.03796384252929523,0.291360066073362,0.3932738629529181,0
2025-11-22T17:45:20.230769,-0.1881314186742205,0.0005985595191317,-9.88200468325682,-0.4361245413014533,0.046461614939764,-0.3173450367966743,20.230769,0.20522806104898053,0.5413604802418593,0.04211855704192408,0.2930711695676966,0.4046294394339439,0
2025-11-22T17:45:20.240385,-0.1881574146211189,0.0158155944164683,-9.9133845685212,-0.4353774229810205,0.0182360461530197,-0.3239798298278883,20.240385,0.22024850983012015,0.5429999852267005,0.04850940608238853,0.2948489839561969,0.4156574360261099,0
2025-11-22T17:45:20.25,-0.1878010577663526,0.0310177405047914,-9.944112575699268,-0.4332217995662653,-0.0095865055500746,-0.3300041268486046,20.25,0.23874625022994733,0.5446794951576613,0.056999771998860624,0.29667575244520483,0.4262844610003009,0
2025-11-22T17:45:20.259615,-0.1870648069229507,0.0461166660575544,-9.974050161674032,-0.4297067182136948,-0.0368476957688933,-0.3354268992539884,20.259615,0.2596409976412458,0.546366928999739,0.06741344765614142,0.29851682110460587,0.43644600206243933,0
2025-11-22T17:45:20.269231,-0.1859495994268848,0.0610303152167235,-10.003086091513156,-0.4248855799205488,-0.0634145633461872,-0.3402589782493477,20.269231,0.28203885099142134,0.5480194660302669,0.07954591346856117,0.3003253351480988,0.44608957131262716,0
2025-11-22T17:45:20.278846,-0.1844550561606771,0.0756828876935737,-10.03113423672994,-0.4188147735708977,-0.0891790002552664,-0.3445109354526793,20.278846,0.305245151675843,0.5495875665389923,0.09317460262160839,0.3020464932942513,0.4551772162368695,0
2025-11-22T17:45:20.288462,-0.182579735211891,0.0900049263205827,-10.058131027641,-0.4115522984343717,-0.1140568008727599,-0.3481910311213136,20.288462,0.32873678513822596,0.5510183684100433,0.10806787390301614,0.30362124232526616,0.46368713595371347,0
2025-11-22T17:45:20.298077,-0.1803214208382166,0.1039335419166308,-10.084032700880552,-0.4031564652958515,-0.1379863861373066,-0.3513033757497339,20.298077,0.3521257887714988,0.5522584902762815,0.12399257111795019,0.3049894400822377,0.47161422492295324,0
2025-11-22T17:45:20.307692,-0.1776774389924415,0.1174127656686372,-10.108812457844923,-0.3936847698805264,-0.1609272643997936,-0.353846462460115,20.307692,0.3751268638595391,0.5532563614262576,0.14072016398909318,0.3060926014586217,0.4789694717911085,0
2025-11-22T17:45:20.317308,-0.1746449934042333,0.1303939857984209,-10.13245762882907,-0.3831930144264411,-0.1828582662256276,-0.3558122149716002,20.317308,0.3975318103249226,0.5539642264219428,0.1580315402202102,0.3068763641552615,0.4857782543114275,0
2025-11-22T17:45:20.326923,-0.1712215145880938,0.1428364010840168,-10.154966919925226,-0.3717347326064349,-0.2037755767988048,-0.3571856535739942,20.326923,0.41919036102190615,0.5543399572868121,0.175720558773676,0.30729278824474465,0.4920776780076656,0
2025-11-22T17:45:20.336538,-0.1674050117401593,0.1547074091720426,-10.17634779840718,-0.3593609569258331,-0.2236905851777648,-0.3579452162624541,20.336538,0.4399960065436727,0.5543487648628762,0.19359648577437968,0.30730255310499643,0.49791319402525647,0
2025-11-22T17:45:20.346154,-0.1631944175093105,0.1659828441344326,-10.19661404820184,-0.3461203389617191,-0.2426275673923608,-0.3580637012942552,20.346154,0.45987544583746676,0.5539648361459881,0.21148542568420883,0.30687703968625146,0.5033347912356564,0
2025-11-22T17:45:20.355769,-0.1585899158376236,0.1766469902114439,-10.215783511373944,-0.3320595756957022,-0.260621215452436,-0.3575097398447596,20.355769,0.4787805853275513,0.5531728426441256,0.22923084888659262,0.3060001938389825,0.5083930840950592,0
2025-11-22T17:45:20.365385,-0.153593239973876,0.1866923287982244,-10.233876027236844,-0.3172240270903654,-0.2777140217400975,-0.3562496705543705,20.365385,0.49668230893459775,0.551969192079219,0.2466933160086032,0.30466998900458575,0.5131356103779185,0
2025-11-22T17:45:20.375,-0.1482079228415036,0.1961190146789198,-10.250911577529047,-0.3016583698928142,-0.2939535366917531,-0.3542496648333643,20.375,0.513565484686575,0.5503628611148563,0.26374950706135675,0.3028992788945306,0.5176036151460269,0
2025-11-22T17:45:20.384615,-0.1424394795486608,0.2049341115541543,-10.26690864168372,-0.2854071419876178,-0.3093895395162309,-0.3514779348830397,20.384615,0.5294248531109207,0.5483756582574137,0.28029067509151995,0.3007158625692518,0.5218295357995657,0
2025-11-22T17:45:20.394231,-0.1362955038284468,0.2131506382651113,-10.281882773366146,-0.2685150792920143,-0.3240711919695006,-0.347906848010387,20.394231,0.544261578860498,0.546041811736292,0.29622066622372206,0.2981616601642521,0.5258353264725178,0
2025-11-22T17:45:20.403846,-0.1297856668700303,0.2207864843982747,-10.295845432100164,-0.2510272066265286,-0.3380442760553295,-0.3435147817164192,20.403846,0.5580803558202396,0.5434068423365397,0.3114536835524453,0.2952909962981689,0.5296316780850038,0
2025-11-22T17:45:20.413462,-0.1229216197289673,0.2278632474340064,-10.308803122413552,-0.2329886938053836,-0.3513486374969369,-0.3382875916738053,20.413462,0.5708870304234838,0.5405257544211525,0.3259120015057437,0.29216809119255605,0.5332181124547071,0
2025-11-22T17:45:20.423077,-0.11571681874179,0.2344050269662982,-10.320756885892518,-0.2144445199858092,-0.364015957018156,-0.3322196226072068,20.423077,0.5826867366014635,0.537460646709192,0.3395238330112633,0.2888639467610629,0.5365838624428364,0
2025-11-22T17:45:20.432692,-0.1081863112240096,0.2404371953265106,-10.331702159151458,-0.1954390067959671,-0.3760679507235291,-0.325314251124554,20.432692,0.5934825261783692,0.534277896719973,0.3522215088790586,0.28545287092351807,0.5397093997170432,0
2025-11-22T17:45:20.442308,-0.1003465280790174,0.2459851611023688,-10.34162897034222,-0.1760152917283451,-0.387515071197992,-0.3175839932448913,20.442308,0.6032744538715732,0.5310451073997109,0.3639400666940449,0.2820089060931705,0.5425684394079298,0
2025-11-22T17:45:20.451923,-0.0922151259455209,0.2510731567114824,-10.350522414411545,-0.1562148193586683,-0.3983557483595731,-0.3090502355569372,20.451923,0.6120590561732853,0.5278280213631854,0.3746162882437328,0.2786024201361753,0.5451302370305032,0
2025-11-22T17:45:20.461538,-0.0838109052994957,0.2557231023711033,-10.358363329541255,-0.1360769243284316,-0.4085761692732482,-0.2997426644321989,20.461538,0.6198291544529174,0.5246876025918674,0.3841881807098186,0.2752970803136014,0.547361996261649,0
2025-11-22T17:45:20.471154,-0.0751538104474622,0.2599536080130655,-10.36512909462292,-0.1156385654583793,-0.4181505559560501,-0.2896984773015454,20.471154,0.6265739119474292,0.5216774607153923,0.3925948671331047,0.2721473730184597,0.5492312235892268,0
2025-11-22T17:45:20.480769,-0.06626500350014,0.2637791630307581,-10.370794479075746,-0.0949342506284158,-0.4270418797993117,-0.2789614616927598,20.480769,0.6322790799017729,0.5188417640809863,0.3997768348814325,0.2691967761546698,0.5507078934134384,0
2025-11-22T17:45:20.490385,-0.0571670000543652,0.2672095403808476,-10.375332499005433,-0.0739961699788365,-0.4352029559750784,-0.2675810162891107,20.490385,0.6369273810864117,0.5162137603157206,0.4056764887775951,0.2664766463392963,0.5517663205854688,0
2025-11-22T17:45:20.5,-0.0478838496573209,0.2702494220004785,-10.378715258736603,-0.0528545262586344,-0.4425778740095272,-0.2556111658969825,20.5,0.6404989959743658,0.5138149896996314,0.41023896384417063,0.26400584364003227,0.5523866727065648,0
2025-11-22T17:45:20.509615,-0.0384413301126369,0.2728982417070862,-10.380914769410609,-0.0315380193231406,-0.4491037260793621,-0.2431096011854289,20.509615,0.6429721265397341,0.5116552370783786,0.4134131555070279,0.2617910816297318,0.552556088389856,0
2025-11-22T17:45:20.519231,-0.0288671070551714,0.2751502341869412,-10.38190372966385,-0.0100744261788751,-0.4547125920954212,-0.2301367618465366,20.519231,0.6443236080104175,0.5097332288817161,0.4151529118395622,0.25982796462618,0.5522693972242941,0
2025-11-22T17:45:20.528846,-0.0191908032574632,0.276994669526233,-10.381656239983188,0.0115087688568479,-0.4593337331646946,-0.2167549715689518,20.528846,0.6445295302676157,0.508038037831295,0.41541831538699336,0.2581026478834723,0.5515294603185703,0
2025-11-22T17:45:20.538462,-0.0094439324237354,0.2784162429282585,-10.380148421409489,0.0331837139879938,-0.4628959286979202,-0.203027616808181,20.538462,0.6435658342779176,0.5065510960070627,0.4141769830498321,0.25659401286595646,0.5503471662852077,0
2025-11-22T17:45:20.548077,0.0003403254214995,0.2793955845756882,-10.377358923404753,0.0549215117471755,-0.465329866514065,-0.1890183429679234,20.548077,0.6414088672109838,0.505248642849174,0.4114053349368774,0.2552761911009322,0.5487411269677224,0
2025-11-22T17:45:20.557692,0.0101275045604469,0.2799098611384725,-10.373269322121295,0.0766915518460285,-0.4665704724600125,-0.1747902320849264,20.557692,0.6380359021219649,0.504104379199798,0.4070898123965896,0.25412122512841373,0.546737121592628,0
2025-11-22T17:45:20.567308,0.0198823662514488,0.2799334558444339,-10.367864420953172,0.098460908306136,-0.4665590597652075,-0.1604049319504211,20.567308,0.6334256458127068,0.5030920878999023,0.40122804877324464,0.25310164890748305,0.5443673389353767,0
2025-11-22T17:45:20.576923,0.0295695049753819,0.2794387272342199,-10.36113247167512,0.1201938639396698,-0.4652451870556233,-0.145921727806369,20.576923,0.6275587690973637,0.5021880122555354,0.3938300086709983,0.2521927996531658,0.5416694657618522,0
2025-11-22T17:45:20.586538,0.039154003713424,0.2783968504108282,-10.353065338876888,0.1418516105635869,-0.4625881301658171,-0.1313965782802903,20.586538,0.6204184969780208,0.5013728337011878,0.3849191113924664,0.2513747183735589,0.5386856671835993,0
2025-11-22T17:45:20.596154,0.0486020953269215,0.2767787412713924,-10.34365863492267,0.1633921352217495,-0.4585578980652368,-0.1168811670423093,20.596154,0.6119912961929477,0.5006331420706212,0.3745333466159242,0.25063354293950274,0.5354615016864895,0
2025-11-22T17:45:20.605769,0.0578817933760035,0.2745560575506188,-10.332911860761223,0.184770257062941,-0.4531357617181432,-0.102422043008223,20.605769,0.6022676996835791,0.49996233991868366,0.3627263820821498,0.24996234133696538,0.5320448116076281,0
2025-11-22T17:45:20.615385,0.0669634631535127,0.2717022591141592,-10.32082859641854,0.2059377558529942,-0.4463143091745762,-0.0880599295711527,20.615385,0.5912433085055214,0.4993609646896952,0.3495686498525552,0.24936137305582304,0.5284846291976415,0
2025-11-22T17:45:20.625,0.0758203110310791,0.2681936935705443,-10.30741678154711,0.2268435487333548,-0.4380970730181948,-0.0738292704275697,20.625,0.5789200005454009,0.4988364483083796,0.33514836703148704,0.24883780216091866,0.524830138228246,0
2025-11-22T17:45:20.634615,0.0844287775870127,0.2640106588920898,-10.292689103044816,0.2474339078644628,-0.4284977894687192,-0.0597580453464956,20.634615,0.5653073489285079,0.4984023658895412,0.31957239875257776,0.24840491832429207,0.5211297296910034,0
2025-11-22T17:45:20.644231,0.0927688259759256,0.2591383915389244,-10.276663472668918,0.267652732182486,-0.4175393550799059,-0.0458678490588923,20.644231,0.550424224774968,0.49807726073630654,0.3029668272191245,0.24808095766258267,0.5174301859995867,0
2025-11-22T17:45:20.653846,0.1008241183371686,0.2535679386170737,-10.2593635506517,0.2874418800741181,-0.405252561993132,-0.0321741992708102,20.653846,0.5343005465094682,0.4978831715586085,0.2854770740003164,0.2478876525212588,0.5137760204764368,0
2025-11-22T17:45:20.663462,0.1085820683960908,0.2472968873621209,-10.240819258520563,0.3067415551154173,-0.3916747118305588,-0.0186870298247634,20.663462,0.516979143446605,0.49784401834896785,0.2672674347587854,0.24784866660584745,0.5102089878964332,0
2025-11-22T17:45:20.673077,0.1160337518855013,0.2403299329867645,-10.22106721889435,0.3254907335183039,-0.3768482203426332,-0.0054113267564339,20.673077,0.4985177139214515,0.4979840170517104,0.24851991109347016,0.2479880812389582,0.506767768678528,0
2025-11-22T17:45:20.682692,0.1231736562599203,0.2326792643671121,-10.200151057692215,0.3436276294169605,-0.3608193288028691,0.0076521250439694,20.682692,0.4789908753150268,0.4983262894471467,0.22943225863505556,0.24832909075416143,0.5034878158447713,0
2025-11-22T17:45:20.692308,0.1299992623192545,0.2243647439344687,-10.178121511018803,0.3610901997930107,-0.3436370337950494,0.020505904712011,20.692308,0.4584923375798907,0.4988918074192784,0.21021522361947248,0.24889303551007438,0.5004013417223793,0
2025-11-22T17:45:20.701923,0.1365104680835515,0.2154138585506522,-10.155036301661085,0.377816686109683,-0.3253523265518158,0.0331550441044241,20.701923,0.4371372940498795,0.49969875089412463,0.1910890138492508,0.2496988416451484,0.49753741157869386,0
2025-11-22T17:45:20.711538,0.1427088815220874,0.205861420855251,-10.130959785847496,0.3937461799373544,-0.3060177923638205,0.0456060646016349,20.711538,0.4150652109127529,0.5007622755229614,0.17227912931004805,0.25076285658693426,0.49492210503449663,0
2025-11-22T17:45:20.721154,0.1485970225780646,0.1957490069140166,-10.105962406930455,0.4088191973711726,-0.2856875693420189,0.0578659897031669,20.721154,0.39244329944791606,0.5020946087940874,0.15401174328156672,0.2520989961800877,0.492578704562342,0
2025-11-22T17:45:20.730769,0.1541774878549449,0.1851241306191952,-10.080120013831465,0.4229782547699144,-0.2644176208256434,0.0699413589815862,20.730769,0.3694710592830163,0.5037053463161647,0.13650886364771417,0.25371907590748743,0.49052787427007905,0
2025-11-22T17:45:20.740385,0.1594521375841905,0.1740391781217892,-10.053513101421329,0.4361684471444668,-0.2422662498584482,0.0818372649650013,20.740385,0.3463863627421496,0.5056018077913126,0.11998351229373606,0.2556331880418434,0.4887878004477552,0
2025-11-22T17:45:20.75,0.1644213573786327,0.1625501494998599,-10.026226011259524,0.4483380329533356,-0.2192947779014154,0.0935564350157696,20.75,0.32347355693325686,0.5077893243660773,0.10463514203505296,0.2578499979401572,0.487374275824417,0
2025-11-22T17:45:20.759615,0.1690834303414848,0.1507152703204948,-9.998346103187965,0.4594390264611819,-0.1955683095862924,0.1050983807097716,20.759615,0.30107387095806565,0.5102713517118658,0.09064547577367396,0.26037685237785463,0.48630072007600433,0
2025-11-22T17:45:20.769231,0.1734340386496173,0.1385935380678023,-9.969962882441724,0.4694277957330903,-0.1711564941533994,0.116458630667463,20.769231,0.2795977753208479,0.5130493285783065,0.07817491596436735,0.2632196135546511,0.48557813853407245,0
2025-11-22T17:45:20.778846,0.17746590436295,0.1262432623056384,-9.941167056148547,0.4782656624049283,-0.1461341718334829,0.1276280530970579,20.778846,0.2595373696225205,0.5161222335362314,0.06735964623057683,0.26638215995042824,0.4852150285783917,0
2025-11-22T17:45:20.788462,0.1811685767749575,0.1137206514962733,-9.912049505943262,0.4859194963804262,-0.1205817799955593,0.1385922707801915,20.788462,0.241473666410086,0.5194858421068994,0.05830953156952949,0.2698655401495144,0.4852172485509281,0
2025-11-22T17:45:20.798077,0.1845283747207661,0.1010784975473193,-9.882700196363752,0.4923622911382266,-0.0945854068349425,0.1493311774283967,20.798077,0.2260683662570106,0.5231317477205591,0.05110690622211389,0.27366682547316673,0.4855878670982798,0
2025-11-22T17:45:20.807692,0.187528493606293,0.0883650091708259,-9.85320707619167,0.4975736904452725,-0.0682364129358414,0.1598185786449776,20.807692,0.21402407275087454,0.5270462632006601,0.04580630371687164,0.2777777635537794,0.4863270115000387,0
2025-11-22T17:45:20.817308,0.1901492862679795,0.0756228417864671,-9.823655056335255,0.50154041520381,-0.0416305767546201,0.1700219967832179,20.817308,0.20599788095586594,0.5312093489330595,0.04243512695830711,0.28218337239388497,0.4874317316214285,0
2025-11-22T17:45:20.826923,0.1923687231344902,0.0628883626550931,-9.794125157760744,0.5042565209234278,-0.0148667569103032,0.1799026848751234,20.826923,0.20247267857458895,0.535593722312078,0.04099518556916881,0.28686063538010736,0.4888958920087744,0
2025-11-22T17:45:20.836538,0.1941630308516558,0.0501911798020222,-9.764693915988165,0.5057234218868834,0.0119548919493804,0.1894158850136169,20.836538,0.2036294591842516,0.5401643049869101,0.04146495664767079,0.2917774763819917,0.4907100997369858,0
2025-11-22T17:45:20.846154,0.1955075005778013,0.0375539580717948,-9.735433102818728,0.5059496549310719,0.0387350643922243,0.1985113497275865,20.846154,0.2092901496981024,0.5448781648304589,0.043802366760654105,0.29689221450900877,0.49286167188106444,0
2025-11-22T17:45:20.855769,0.1963774479834126,0.0249925447214542,-9.706409785230166,0.5049504040119682,0.0653776798938433,0.2071341309329053,20.855769,0.21896999262181016,0.5496850914273387,0.0479478576687956,0.3021536997374817,0.49533464506917535,0
2025-11-22T17:45:20.865385,0.196749294634081,0.0125164249780723,-9.677686701494016,0.5027468378223089,0.09179232249922,0.2152256313031388,20.865385,0.23200751889681118,0.5545288863350281,0.05382748882465419,0.30750228577996647,0.49810983007836196,1
2025-11-22T17:45:20.875,0.1966017227887519,0.0001295215295052,-9.649322909568967,0.4993653187685558,0.1178965571119129,0.2227249031687103,20.875,0.24770110972721465,0.5593493561801741,0.061355839760093636,0.31287170225917527,0.5011649155494463,1
2025-11-22T17:45:20.884615,0.1959168367588607,-0.0121686615299384,-9.621374649568654,0.494836535081775,0.1436179331726356,0.2295701623923373,20.884615,0.2654025227192643,0.5640848931157088,0.0704384990657496,0.31819176664136056,0.5044746254594248,1
2025-11-22T17:45:20.894231,0.1946812524546439,-0.0243815758299425,-9.593896347888313,0.4891946003972633,0.1688955037781333,0.2357004544306808,20.894231,0.2845592499129763,0.5686754368470094,0.08097396671103571,0.32339175247313695,0.5080109342123651,1
2025-11-22T17:45:20.903846,0.1928870355974593,-0.0365139126505552,-9.566941673359668,0.4824761614190556,0.1936807212732729,0.2410573782832795,20.903846,0.30472095092891094,0.5730655527558867,0.09285485793501976,0.32840412775540995,0.5117433404265339,1
2025-11-22T17:45:20.913462,0.1905324140520717,-0.0485697411790993,-9.54056454803218,0.4747195569777981,0.2179376137056784,0.2455867623098706,20.913462,0.32552783951678,0.5772073449521994,0.10596837430046246,0.3331683190667673,0.515639195447789,1
2025-11-22T17:45:20.923077,0.1876221980490653,-0.0605506344899082,-9.514820028521868,0.4659640742721062,0.2416421960664703,0.2492402020435989,20.923077,0.34669306983290255,0.5810629464583174,0.12019608467016184,0.3376341477468214,0.519664076180481,1
2025-11-22T17:45:20.932692,0.1841678563367237,-0.0724539209934323,-9.489765005010382,0.456249331776181,0.2647811244837785,0.2519764011130548,20.932692,0.3679852199357952,0.5846063661533228,0.13541312209119555,0.341764603346993,0.5237821859562843,1
2025-11-22T17:45:20.942308,0.1801872206827846,-0.0842711873651481,-9.465458695847897,0.4456147778566552,0.2873496602860174,0.2537622826657606,20.942308,0.38921324707813976,0.5878245091985049,0.15148695170110907,0.3455376536144632,0.527956763904688,1
2025-11-22T17:45:20.951923,0.1757038270385732,-0.0959871366255468,-9.441962928061578,0.4340992550520878,0.309349073418646,0.2545738507861537,20.951923,0.4102144684379276,0.5907172402815438,0.16827591011581147,0.3489468579658432,0.532150483866407,1
2025-11-22T17:45:20.961538,0.1707459439360684,-0.1075788758317716,-9.419342186489205,0.42174057202478,0.3307836758515012,0.254396783169694,20.961538,0.43084540485267636,0.5932964466341493,0.1856277628826666,0.3520006735887079,0.536325828274216,1
2025-11-22T17:45:20.971154,0.1653453737674844,-0.1190156748292231,-9.397663403135324,0.4085750510943251,0.3516577185649067,0.2532267381081128,20.971154,0.4509751219945663,0.5955841706223229,0.20337856065801396,0.35472050429588026,0.5404454292654477,1
2025-11-22T17:45:20.980769,0.1595361263016702,-0.1302592026171191,-9.376995460177284,0.3946370621799519,0.3719723882223405,0.2510693682172059,20.980769,0.4704806862905412,0.5976099866157206,0.22135207617241862,0.3571376961028418,0.5444723764908509,1
2025-11-22T17:45:20.990385,0.1533530552211373,-0.1412642147636991,-9.357408396631495,0.3799585966173255,0.3917230987429996,0.2479400495690745,20.990385,0.48924438197159326,0.5994078656578844,0.23936006529076626,0.3592897894125404,0.5483704968706952,1
2025-11-22T17:45:21,0.1468305314518927,-0.1519796391341068,-9.338972332034682,0.3645689589807924,0.4108972157013927,0.2438633521788973,21.0,0.5071523699119608,0.6010127970845749,0.2572035263073183,0.3612163822594244,0.5521046151547803,1
2025-11-22T17:45:21.009615,0.1400012152450168,-0.1623499888505946,-9.32175614719686,0.3484946461723141,0.4294723101093411,0.2388722911955669,21.009615,0.5240944971032057,0.6024574300831886,0.27467504189386205,0.36295495506244013,0.5556408057527734,1
2025-11-22T17:45:21.019231,0.1328949848391655,-0.1723170173050465,-9.305825995036784,0.3317594447506695,0.4474150206162423,0.2330074039303135,21.019231,0.5399649790770648,0.6037689791142381,0.29156217862969497,0.3645369801406493,0.5589466465216171,1
2025-11-22T17:45:21.028846,0.1255380777756025,-0.1818215186534354,-9.29124374960278,0.3143847360284654,0.4646805897746938,0.2263156935478352,21.028846,0.5546636782188598,0.6049666155310414,0.3076517959352748,0.3659846059070828,0.5619914844321952,1
2025-11-22T17:45:21.038462,0.1179524950905909,-0.1908051712563298,-9.278065523030778,0.2963899771066995,0.4812131018950553,0.2188494681005965,21.038462,0.568097705263267,0.6060595330928181,0.32273500272538974,0.3673081576526847,0.5647467211956448,1
2025-11-22T17:45:21.048077,0.1101557047509303,-0.1992123226737584,-9.26634037693325,0.2777933257072069,0.4969463766248624,0.2106650891705394,21.048077,0.5801830935885617,0.6070458078623732,0.33661242208599373,0.3685046128432813,0.5671861236520193,1
2025-11-22T17:45:21.057692,0.1021606602552808,-0.2069916204113763,-9.256109330995711,0.2586123832769628,0.5118053891378863,0.2018216327558589,21.057692,0.5908463347218597,0.6079120763589211,0.3490993912542558,0.3695570925830147,0.5692861588598845,1
2025-11-22T17:45:21.067308,0.0939761281075076,-0.2140974016167633,-9.247404737933463,0.2388650296159442,0.5257080402963532,0.1923794638872564,21.067308,0.6000256108629978,0.6086339656404383,0.3600307336915136,0.3704353041312062,0.5710263477572095,1
2025-11-22T17:45:21.076923,0.0856072959732441,-0.220490772847611,-9.24025005366295,0.2185703066058828,0.5385671149326001,0.1823987431848699,21.076923,0.6076716156437779,0.6091771644866821,0.36926479245911936,0.3710968177320342,0.5723896249347202,1
2025-11-22T17:45:21.086538,0.077056611847624,-0.2261403409300254,-9.234659984093671,0.1977492880476739,0.5502923278992714,0.1719379114087409,21.086538,0.6137479195975759,0.6094990340006793,0.3766865088103525,0.3714890724477612,0.5733626867256753,1
2025-11-22T17:45:21.096154,0.0683247876005566,-0.2310225892741303,-9.230640942759049,0.1764258696622745,0.5607924228000021,0.161052218126058,21.096154,0.6182309029949007,0.6095506918372823,0.3822094494178903,0.37155204591930946,0.5739363065601849,1
2025-11-22T17:45:21.105769,0.0594118939399149,-0.235121919946807,-9.228191720359884,0.1546274396941928,0.5699773219909746,0.1497923634917446,21.105769,0.6211093293825088,0.6092795293219914,0.3857767990459899,0.3712215448508273,0.5741055958767848,1
2025-11-22T17:45:21.115385,0.0503184785681554,-0.2384303986670806,-9.227304255481162,0.1323854321601514,0.5777603208315987,0.1382033152466284,21.115385,0.6223836598786509,0.6086321116411957,0.38736142008394414,0.3704330473208209,0.5738701908135989,1
2025-11-22T17:45:21.125,0.0410466493659504,-0.2409472494970251,-9.227964402808178,0.1097357998554473,0.5840602875968459,0.1263233560142388,21.125,0.6220652127542242,0.6075573681491528,0.38696512891895823,0.36912595559232525,0.5732343491437784,1
2025-11-22T17:45:21.134615,0.0316010740551316,-0.2426781471019524,-9.23015261769835,0.0867194635046409,0.5888037919901957,0.1141834109618255,21.134615,0.6201752575508948,0.6060099191856876,0.38461735007831865,0.3672480221514436,0.5722069479943082,1
2025-11-22T17:45:21.144231,0.0219898548465757,-0.2436343495631241,-9.23384451238596,0.0633827929667791,0.5919270555380353,0.1018067008481202,21.144231,0.6167441010327633,0.6039533275508766,0.3803732861587114,0.36475962185977645,0.5708013800427907,1
2025-11-22T17:45:21.153846,0.0122252417640414,-0.2438317120267925,-9.239011283489054,0.0397781500499149,0.593377606517665,0.0892087557928692,21.153846,0.6118101832911129,0.6013630245102688,0.3743117003787052,0.36163748724813816,0.5690353532060698,1
2025-11-22T17:45:21.163462,0.002324153198345,-0.243289624283715,-9.245620050226044,0.0159644740207775,0.5931155357173923,0.0763978052103329,21.163462,0.6054191702313158,0.5982286584417744,0.3665323716835749,0.3578775277810452,0.566930605389374,1
2025-11-22T17:45:21.173077,-0.0076915225303444,-0.2420299186914426,-9.253634163834985,-0.0079921618021032,0.5911142868312383,0.0633755310747117,21.173077,0.5976230149424622,0.5945556598715349,0.3571532679889184,0.3534964326852763,0.5645125508804705,1
2025-11-22T17:45:21.182692,-0.0177948655518852,-0.2400757943017536,-9.263013543433734,-0.0320181340895368,0.5873609703035338,0.0501381449048929,21.182692,0.5884789705547873,0.5903659068077936,0.34630749878522216,0.3485319039209884,0.561809878083442,1
2025-11-22T17:45:21.192308,-0.0279541167440606,-0.2374508000216603,-9.2737150666492,-0.056032126813963,0.581856250177108,0.0366777301308267,21.192308,0.5780485672899162,0.5856974910250266,0.33414014614592474,0.34304155099301104,0.5588541195977604,1
2025-11-22T17:45:21.201923,-0.0381331243633274,-0.234177917086685,-9.285693011787812,-0.0799453933916767,0.574613900380644,0.0229837794238279,21.201923,0.5663966014628442,0.5806036983621528,0.32080511014866,0.33710065455180965,0.5556792152806301,1
2025-11-22T17:45:21.211538,-0.0482920232933149,-0.2302787794261534,-9.298899530613404,-0.1036625273216392,0.5656601385902332,0.0090448489850777,21.211538,0.5535902060073211,0.5751513898564397,0.30646211618722824,0.33079912125379424,0.5523210865013528,1
2025-11-22T17:45:21.221154,-0.0583881023899558,-0.2257730677222574,-9.313285133344216,-0.1270827882703138,0.5550328190048527,-0.0051497478009833,21.221154,0.5396980730308171,0.569418989101562,0.29127401003317716,0.32423798514944474,0.5488172348088496,1
2025-11-22T17:45:21.230769,-0.0683768042109328,-0.2206781070692891,-9.328799183244085,-0.1501019552174377,0.5427805210675914,-0.0196082709940101,21.230769,0.5247898855782446,0.5634942548969584,0.275404424005227,0.3175257753018783,0.5452063711648918,1
2025-11-22T17:45:21.240385,-0.0782128034011772,-0.2150086888089808,-9.345390415227186,-0.1726146069605777,0.5289615357853487,-0.0343349499040471,21.240385,0.5089360013268263,0.5574719702921958,0.2590158534465393,0.31077499766146277,0.5415280744523636,1
2025-11-22T17:45:21.25,-0.0878511131839479,-0.2087771246074309,-9.363007500948372,-0.1945166823219162,0.5136427389134657,-0.04932847105285,21.25,0.4922074258627079,0.5514516306952622,0.24226815007439306,0.3040989009964638,0.5378224719636017,1
2025-11-22T17:45:21.259615,-0.0972481650966242,-0.2019935227131339,-9.381599676479835,-0.2157081484186226,0.4968983502177677,-0.064580591771563,21.259615,0.4746761206912569,0.5455351762965382,0.22531741955450071,0.2976086285768951,0.5341299308816019,1
2025-11-22T17:45:21.269231,-0.1063628014501222,-0.1946662507027889,-9.401117428101708,-0.2360955939068675,0.4788086006124583,-0.0800749307036191,21.269231,0.45641571057446717,0.5398247863982224,0.20831530085919578,0.29141080000988645,0.5304907485216573,1
2025-11-22T17:45:21.278846,-0.1151571233905079,-0.1868025238479511,-9.421513201528066,-0.2555945614587639,0.4594583529830109,-0.0957859974430224,21.278846,0.437502688678682,0.5344207287141036,0.19140860260107573,0.28560551527931355,0.5269448303228279,1
2025-11-22T17:45:21.288462,-0.1235971507002386,-0.1784090491520353,-9.442742069308292,-0.2741314489812522,0.4389357392614636,-0.1116785181056511,21.288462,0.4180182693647168,0.529419234565427,0.17473927352267293,0.28028472592784265,0.5235313480937779,1
2025-11-22T17:45:21.298077,-0.1316532659585973,-0.1694926676208747,-9.464762272699677,-0.2916448498554249,0.4173308780563485,-0.127707093215323,21.298077,0.39805110302609636,0.5249103560456617,0.158444680620292,0.27553088188398334,0.5202883761204199,1
2025-11-22T17:45:21.307692,-0.1393004310360585,-0.1600609582139746,-9.487535554701292,-0.3080862612739186,0.3947347170925633,-0.1438161974904777,21.307692,0.37770113847728465,0.5209757575209304,0.14265815000703697,0.27141573992450724,0.5172525084287984,1
2025-11-22T17:45:21.317308,-0.1465181770267025,-0.1501227793851649,-9.511027215951836,-0.3234201493932919,0.3712380066676121,-0.1599405106423324,21.317308,0.3570849968986405,0.5176864085260992,0.1275096950101021,0.2679992175726512,0.5144584659004319,1
2025-11-22T17:45:21.326923,-0.1532903778547834,-0.139688725723608,-9.53520584952826,-0.3376234106953916,0.3469303765778368,-0.1760055631953406,21.326923,0.3363433099694391,0.5151001959985433,0.11312682216119821,0.2653282119177377,0.5119387061837645,1
2025-11-22T17:45:21.336538,-0.1596048241624397,-0.1287714778961891,-9.56004274462853,-0.3506843121733969,0.3218994843218126,-0.191928689340829,21.336538,0.31565056283951237,0.5132595703961748,0.09963527782090095,0.2634353866032659,0.509723051144037,1
2025-11-22T17:45:21.346154,-0.1654526245222169,-0.117386031776325,-9.585510988336624,-0.3626010301964745,0.2962302258330156,-0.2076202889758532,21.346154,0.2952280263488108,0.5121894553688516,0.08715958754181412,0.26233803819104085,0.5078383447202754,1
2025-11-22T17:45:21.355769,-0.170827478133148,-0.1055498070012045,-9.611584325823696,-0.3733799330334001,0.2700040265858454,-0.222985403193528,21.355769,0.27536022828040035,0.5118957304002217,0.0758232553186342,0.2620372388019765,0.5063081486158257,1
2025-11-22T17:45:21.365385,-0.1757248791754269,-0.0932826526275807,-9.638235853769103,-0.3830337542730779,0.2432982434797984,-0.2379255978931198,21.365385,0.2564147527898257,0.5123645990168353,0.06574852544826741,0.2625174823256824,0.5051524760882506,1
2025-11-22T17:45:21.375,-0.1801413194497977,-0.0806067835128987,-9.665436622417216,-0.3915797791376366,0.2161857110070864,-0.252341130348986,21.375,0.23886324771277903,0.5135630741583,0.057055651107896434,0.2637470311389236,0.5043875577761571,1
2025-11-22T17:45:21.384615,-0.1840735528276852,-0.0675466879928061,-9.69315421435584,-0.3990381251298963,0.1887344667607424,-0.2661333465731783,21.384615,0.22329722304435884,0.5154406681751876,0.04986164981932214,0.2656790824088839,0.5040256300250717,1
2025-11-22T17:45:21.394231,-0.1875179771266323,-0.0541290400333764,-9.72135135853409,-0.4054301657426436,0.1610076863285263,-0.2792072273396238,21.394231,0.21042469799201913,0.5179322061328615,0.04427855352503246,0.26825377014965296,0.504074736662508,1
2025-11-22T17:45:21.403846,-0.1904701792650873,-0.0403826322649477,-9.749984636284353,-0.4107771338770518,0.1330638383302392,-0.2914739742229097,21.403846,0.201025328716381,0.5209615306687422,0.04041118278552904,0.2714009164367188,0.5045385399154527,1
2025-11-22T17:45:21.413462,-0.192924679122311,-0.0263383314784242,-9.77900334884156,-0.415098940889374,0.1049570443942533,-0.302853509356257,21.413462,0.19584304654335646,0.524445764617141,0.03835449887938329,0.27504336002485763,0.5054161445207792,1
2025-11-22T17:45:21.423077,-0.194874897049073,-0.0120290529020825,-9.808348632399053,-0.4184132377014774,0.0767376154743833,-0.3132767539771139,21.423077,0.19542421363930929,0.5282997479603454,0.0381906232765424,0.27910062369496447,0.506701949257694,1
2025-11-22T17:45:21.432692,-0.1963133575627818,0.0025102455086008,-9.83795290515511,-0.4207347166870303,0.0484527453089276,-0.3226875503164998,21.432692,0.19996414353528172,0.532440255317863,0.03998565869979875,0.2834926254829511,0.5083855494351917,1
2025-11-22T17:45:21.442308,-0.1972321230552973,0.0172425388224678,-9.86773970161908,-0.4220746174364485,0.0201473626735422,-0.3310441046636941,21.442308,0.20925219875878504,0.5367896218626161,0.043786482685386076,0.2881430981394104,0.5104517194388222,1
2025-11-22T17:45:21.451923,-0.197623424001396,0.0321286697515149,-9.897623906084467,-0.4224403738529396,-0.0081348502380099,-0.3383198636447423,21.451923,0.22275030005193303,0.5412784638113761,0.04961769617322619,0.2929823753860032,0.5128805040715931,1
2025-11-22T17:45:21.461538,-0.1974804203027704,0.0471272439629457,-9.927512360952749,-0.4218353339489733,-0.0363502942491558,-0.3445037879024296,21.461538,0.23974756666595337,0.5458472796844959,0.05747889572224576,0.2979492527389643,0.5156474404369167,1
2025-11-22T17:45:21.471154,-0.1967980022211821,0.0621945093504208,-9.957304806465508,-0.4202584980023738,-0.0644542167363911,-0.3496000449957578,21.471154,0.25950416722807895,0.5504468572526768,0.06734241280873876,0.3029917426593488,0.5187239200139894,1
2025-11-22T17:45:21.480769,-0.1955735289457683,0.0772842583626887,-9.986895101212626,-0.4177042516381743,-0.092399514939073,-0.3536271911971186,21.480769,0.28133901377563986,0.5550375685947273,0.07915164067224967,0.3080667025515466,0.5220776865437866,1
2025-11-22T17:45:21.490385,-0.1938074115733091,0.0923477922317233,-10.016172667165115,-0.4141621091259275,-0.1201356943895285,-0.3566169346027998,21.490385,0.3046638303771863,0.5595877730504737,0.09282004954009895,0.31313847574758846,0.5256734526393233,1
2025-11-22T17:45:21.5,-0.1915034707991721,0.1073339715306471,-10.045024095109628,-0.4096165190366192,-0.1476080648184304,-0.3586125637490554,21.5,0.3289847533807045,0.5640716305096272,0.10823096795696295,0.3181768043457894,0.5294736086312601,1
2025-11-22T17:45:21.509615,-0.1886690295013254,0.1221893611783514,-10.0733348409468,-0.4040468154284563,-0.1747572124773885,-0.3596671015187289,21.509615,0.35389006478503643,0.5684666536267785,0.12523817795355727,0.3231543362856278,0.5334389914901088,1
2025-11-22T17:45:21.519231,-0.1853147295300951,0.1368584703186063,-10.100990944803454,-0.3974274216969188,-0.2015187561578789,-0.3598412276250414,21.519231,0.37903474607539206,0.5727513192466483,0.14366733873243695,0.3280440736987761,0.5375296793314444,1
2025-11-22T17:45:21.528846,-0.1814540894439683,0.151284088061079,-10.12788071120581,-0.3897284252371717,-0.2278233746630403,-0.3592010130745942,21.528846,0.40412649338695833,0.5769030276177414,0.16331822265723928,0.33281710327451647,0.5417057774223001,1
2025-11-22T17:45:21.538462,-0.1771028484613667,0.1654077160887558,-10.153896294668908,-0.3809166278778962,-0.2535970775885227,-0.3578155163669497,21.538462,0.428914582236615,0.5808966335831649,0.18396771885520996,0.33744089890825374,0.5459281639714555,1
2025-11-22T17:45:21.548077,-0.1722781686697976,0.1791700913183403,-10.178935139068043,-0.3709571300706549,-0.278761683186388,-0.3557542943634458,21.548077,0.4531815625593769,0.5847036739419363,0.20537352864375846,0.3418783863211982,0.550159167412428,1
2025-11-22T17:45:21.557692,-0.1669977827585846,0.1925117781952862,-10.202901223568103,-0.3598154295044328,-0.3032354754163897,-0.3530848840702181,21.557692,0.47673728629389656,0.5882923016828816,0.2272784401428687,0.3460878322193426,0.5543631509672753,1
2025-11-22T17:45:21.567308,-0.1612791727229096,0.2053737989625091,-10.225706075219987,-0.3474599269269899,-0.3269340278449554,-0.3498703214611011,21.567308,0.4994146887444182,0.591627840134598,0.2494150313336841,0.35002350122232945,0.5585069851933112,1
2025-11-22T17:45:21.576923,-0.1551388508426451,0.2176982651475859,-10.247269516219642,-0.3338646558932772,-0.3497711851000478,-0.346166780491574,21.576923,0.5210668074521705,0.5946738015895184,0.2715106178283973,0.35363693029692994,0.5625603951048593,1
2025-11-22T17:45:21.586538,-0.1485917951890686,0.2294289734802298,-10.267520119436984,-0.319012003688557,-0.3716601776149501,-0.3420214372700548,21.586538,0.5415646199190576,0.5973931784632615,0.2932922375480733,0.35687860967443813,0.5664961750460326,1
2025-11-22T17:45:21.596154,-0.1416510718170971,0.2405119368786563,-10.28639535500107,-0.3028951809535367,-0.3925148214761319,-0.3374706844865551,21.596154,0.5607953809498349,0.5997498133481489,0.3144914592946705,0.35969983861113947,0.5702902712844994,1
2025-11-22T17:45:21.605769,-0.1343276578086343,0.250895839380468,-10.303841433194542,-0.2855202359766288,-0.4122507327414491,-0.3325388232832273,21.605769,0.5786612408605853,0.6017096814815306,0.33484883167431234,0.362054540788605,0.5739217388002519,1
2025-11-22T17:45:21.615385,-0.1266304678528482,0.2605324275127784,-10.319812881971394,-0.2669074814402967,-0.430786477729386,-0.3272373277834683,21.615385,0.5950780229833214,0.6032419595304674,0.35411785343773833,0.3639008617381581,0.5773725844054504,1
2025-11-22T17:45:21.625,-0.118566583776757,0.2693768691160591,-10.334271923318164,-0.2470922719539033,-0.4480445991361141,-0.3215647171738681,21.625,0.6099741145731932,0.6043198002758909,0.372068420449351,0.3652024210054927,0.5806275127039476,1
2025-11-22T17:45:21.634615,-0.1101416867788916,0.2773881193601426,-10.347187717184294,-0.2261251185217025,-0.4639524944614422,-0.3155070098539614,21.634615,0.6232894654701092,0.6049207878808897,0.38848975776601447,0.3659291596104363,0.5836735944803997,1
2025-11-22T17:45:21.644231,-0.1013606874278705,0.2845293324938178,-10.358535531083296,-0.2040711593294428,-0.4784431547363549,-0.3090386987089878,21.644231,0.6349746998800243,0.605027113180792,0.4031928694877269,0.36605780768388296,0.5864998794193992,1
2025-11-22T17:45:21.653846,-0.0922285337362095,0.2907683455188434,-10.36829588695884,-0.1810090395762746,-0.4914557842714896,-0.3021241772456567,21.653846,0.6449903474667128,0.604625569074444,0.41601254832523094,0.3655720787785952,0.5890969772434257,1
2025-11-22T17:45:21.663462,-0.0827511565262104,0.2960782386862906,-10.376453742788057,-0.1570292860371746,-0.5029363200581813,-0.2947195483384387,21.663462,0.6533062030199618,0.6037075044090668,0.42680899490435953,0.36446275087982344,0.591456633570371,1
2025-11-22T17:45:21.673077,-0.0729364914411972,0.3004379572103798,-10.382997773545666,-0.1322322888510905,-0.5128378631516297,-0.2867747477231029,21.673077,0.6599008273033918,0.6022688834967129,0.435469101875701,0.3627278080283772,0.5935713283170317,1
2025-11-22T17:45:21.682692,-0.0627955024546616,0.3038329668095222,-10.387919810502025,-0.1067260270323104,-0.5211210292272046,-0.2782359080286527,21.682692,0.6647611980474984,0.6003105800045935,0.44190745042954543,0.3603727924654514,0.5954339241574771,1
2025-11-22T17:45:21.692308,-0.0523431242163097,0.306255909088181,-10.39121447778398,-0.0806236994152364,-0.5277542171051307,-0.2690478771851566,21.692308,0.6678825070665757,0.5978389873515167,0.44606704324553453,0.357411454797487,0.5970373897707553,1
2025-11-22T17:45:21.701923,-0.0415990426874648,0.3077072130177568,-10.392879039339276,-0.0540414378223708,-0.5327137789231027,-0.2591567939632798,21.701923,0.669268081252595,0.5948669524471564,0.44791976458353006,0.3538666911137674,0.5983746179269955,1
2025-11-22T17:45:21.711538,-0.0305882469295642,0.3081956061177478,-10.392913446112813,-0.0270962610142352,-0.5359840648046263,-0.2485126220164325,21.711538,0.6689293886965052,0.5914149544836719,0.4474665270618801,0.34977164838692365,0.5994383531309395,1
2025-11-22T17:45:21.721154,-0.019341307148763,0.3077384618456416,-10.39132055393228,9.563349573507014e-05,-0.5375573255345272,-0.2370715562575066,21.721154,0.6668860806495527,0.5875123915016222,0.44473704456412166,0.34517081016795537,0.600221238426318,1
2025-11-22T17:45:21.730769,-0.0078943601310381,0.3063619228762236,-10.388106465003617,0.0274202258033402,-0.53743349196222,-0.2247982346902542,21.730769,0.66316601457655,0.5831988283473025,0.43978916288934494,0.34012087338566643,0.6007159857230261,1
2025-11-22T17:45:21.740385,0.0037111903825413,0.3041007509987162,-10.383280930440094,0.0547667310091519,-0.5356198918110646,-0.211667701486305,21.740385,0.6578052017938893,0.5785250895005513,0.4327076835070995,0.33469127918162084,0.6009156675310405,1
2025-11-22T17:45:21.75,0.0154292254421572,0.3009978709394076,-10.376857745178146,0.0820284384594606,-0.5321309867816808,-0.1976670696950451,21.75,0.650847630002457,0.5735541144924066,0.42360263747981525,0.3289643222511686,0.6008141198157004,1
2025-11-22T17:45:21.759615,0.0272096609703549,0.2971035974070709,-10.368855080716065,0.1091034060585543,-0.5269882004447581,-0.1827968357506178,21.759615,0.6423449354504357,0.5683615044863795,0.4126070160988244,0.3230347997820207,0.6004064368176258,1
2025-11-22T17:45:21.769231,0.0389993317003425,0.2924745605000169,-10.3592957339984,0.1358950569599283,-0.5202198673872448,-0.167071811450889,21.769231,0.6323559397060795,0.5630356712607347,0.39987403448155884,0.31700916711202615,0.5996895306310202,1
2025-11-22T17:45:21.778846,0.0507429452652289,0.2871723699774834,-10.348207300443208,0.162312699548522,-0.5118612859669648,-0.150521656574989,21.778846,0.6209461013903735,0.557677467363137,0.38557406083190404,0.3110041576045627,0.5986627219143004,1
2025-11-22T17:45:21.788462,0.0623840500559467,0.2812620775910723,-10.33562228473773,0.1882719732274031,-0.5019548184115472,-0.1331910088995568,21.788462,0.6081869432172098,0.5523991496021615,0.3698913578998936,0.30514482048119124,0.5973283235484137,1
2025-11-22T17:45:21.798077,0.0738659698375717,0.2748105042975899,-10.32157814975352,0.2136952083868445,-0.4905499609612966,-0.1151392200644919,21.798077,0.5941555024340394,0.5473225249189787,0.35302076107264574,0.29956194628368604,0.5956921769056461,1
2025-11-22T17:45:21.807692,0.0851326696433904,0.2678844981651383,-10.306117291947688,0.2385116734339795,-0.4777033000698634,-0.0964397190852453,21.807692,0.578933838194192,0.5425761519631657,0.33516438900625883,0.29438888067915625,0.5937641015910335,1
2025-11-22T17:45:21.817308,0.0961295319909799,0.2605491867465868,-10.289286930465613,0.2626576674401175,-0.4634782717176422,-0.0771790347453774,21.817308,0.5626086259199846,0.5382915214116641,0.3165284659595732,0.2897577620236841,0.5915582247367336,1
2025-11-22T17:45:21.826923,0.1068040378392421,0.2528662894560403,-10.271138903057812,0.2860764114316961,-0.4479446548232955,-0.0574555066203292,21.826923,0.5452708765527002,0.5345982250282889,0.2973203288165501,0.285795262203397,0.5890931649825203,1
2025-11-22T17:45:21.836538,0.1171063596730499,0.2448925579043118,-10.25172936982092,0.3087177001720606,-0.4311777702386259,-0.0373777062614063,21.836538,0.5270158327333203,0.5316182661203842,0.27774568795159504,0.2826179808728436,0.5863920579878193,1
2025-11-22T17:45:21.846154,0.1269898820489748,0.2366784076334386,-10.231118432164171,0.330537301470429,-0.4132574206200171,-0.017062586460402,21.846154,0.5079431083639243,0.5294598523189286,0.2580062013344054,0.28032773521758164,0.5834824227923842,1
2025-11-22T17:45:21.855769,0.1364116655275502,0.2282667906052083,-10.209369675023146,0.3514961275467463,-0.3942666645734081,0.0033666159524647,21.855769,0.48815714786711606,0.5282111931577844,0.2382974010137574,0.2790070645771702,0.5803958795205981,1
2025-11-22T17:45:21.865385,0.1453328637111444,0.219692339311628,-10.186549635559947,0.3715592390025767,-0.3742905413426799,0.0237826804799952,21.865385,0.46776808995294344,0.5279349328445542,0.21880698597822498,0.27871529331758393,0.5771677372880465,1
2025-11-22T17:45:21.875,0.1537190952385064,0.210980796814474,-10.162727200488003,0.3906947624441874,-0.3534148456929816,0.0440568408482645,21.875,0.4468931402911428,0.5286638400562718,0.19971347883927903,0.2794854557830433,0.5738364761766233,1
2025-11-22T17:45:21.884615,0.1615407665054427,0.2021487369548345,-10.137972945499977,0.40887280779468,-0.3317250153478389,0.064061277767625,21.884615,0.42565859909736403,0.5303982523261649,0.1811852429855305,0.28132230607065006,0.5704431490207339,1
2025-11-22T17:45:21.894231,0.1687733333545697,0.1932035786507486,-10.112358452446845,0.4260644695533974,-0.3093051587585524,0.0836715806205356,21.894231,0.40420275069580625,0.5331055682076581,0.1633798636700561,0.28420154685401,0.5670307278289902,1
2025-11-22T17:45:21.903846,0.1753974779795102,0.1841439038064483,-10.085955662954715,0.4422409896698527,-0.2862372329169766,0.1027691004375779,21.903846,0.3826798841937235,0.5367218408606895,0.14644389376652164,0.28807033445688734,0.5636434161422538,1
2025-11-22T17:45:21.913462,0.1813991656175404,0.1749600880135219,-10.058836338074334,0.4573731435854045,-0.2626003779153189,0.1212431242749958,21.913462,0.3612657464971871,0.541155288377029,0.13051293959216986,0.2928490461384254,0.5603259429161417,1
2025-11-22T17:45:21.923077,0.1867695424168741,0.1656352388968363,-10.03107168042972,0.4714308836178484,-0.2384704144667709,0.1389927992177054,21.923077,0.34016468928393356,0.5462913278087363,0.11571201583563506,0.29843421483903226,0.5571228466184889,1
2025-11-22T17:45:21.932692,0.1915046453435591,0.156146412309768,-10.00273213884009,0.4843832400703576,-0.2139195026337422,0.1559287267344825,21.932692,0.3196186030005943,0.5519985912021536,0.10215605138405151,0.30470244468916224,0.554077751629346,1
2025-11-22T17:45:21.942308,0.1956049169495511,0.146466052010247,-9.97388737624545,0.4961984508812826,-0.1890159462195246,0.1719741457987411,21.942308,0.2999173345170894,0.5581353217683446,0.08995040754383571,0.31151503740545355,0.5512326343592652,1
2025-11-22T17:45:21.951923,0.199074547844611,0.136563584563732,-9.944606364645995,0.5068442767395203,-0.1638241162809136,0.1870656336715105,21.951923,0.2814094684344546,0.5645555891493356,0.07919128892456229,0.3187230132397534,0.5486270752635938,1
2025-11-22T17:45:21.961538,0.2019206983182853,0.1264071049151418,-9.914957580320484,0.5162884611917798,-0.1384044655362145,0.2011532816666067,21.961538,0.2645108123603118,0.571114886835728,0.0699659698555121,0.32617221396538637,0.5462974958866652,1
2025-11-22T17:45:21.971154,0.2041526683462534,0.115965107759084,-9.885009291810764,0.5244992994114112,-0.1128136138232054,0.2142003511793398,21.971154,0.24970542225718453,0.577674836731067,0.06235279790463883,0.33370821699226494,0.544276386446043,1
2025-11-22T17:45:21.980769,0.2057810895060022,0.1052082431889063,-9.854829942466289,0.5314462707936928,-0.0871044989955145,0.2261824726426307,21.980769,0.2375309534019299,0.5841068767070945,0.05642095382402979,0.3411808434165169,0.5425915371382373,1
2025-11-22T17:45:21.990385,0.2068172062716747,0.0941110842326051,-9.824488622396071,0.5371006785718373,-0.0613265999246843,0.2370864983440366,21.990385,0.22853871797206324,0.590294924997401,0.05222994561231426,0.34844809847768726,0.5412652933050265,1
2025-11-22T17:45:22,0.2072723018939866,0.0826538780989319,-9.794055608588538,0.5414362473767573,-0.0355262398448043,0.2469091456901841,22.0,0.22322366918962175,0.5961371066427523,0.04982880648647769,0.35537944991639225,0.5403138601177575,1
2025-11-22T17:45:22.009615,0.2071573084213011,0.0708242205534449,-9.763602936841572,0.5444296593376191,-0.0097469651080254,0.2556555659172776,22.009615,0.2219346004027306,0.6015466945132161,0.049254966855919714,0.3618584256797765,0.5397466865982763,1
2025-11-22T17:45:22.019231,0.2064826222850206,0.0586185665321306,-9.733204958331608,0.5460610368599672,0.0159700287742155,0.2633379466136322,22.019231,0.22479498935577402,0.6064524481955003,0.05053278723946256,0.36778457192231595,0.5395659612732269,1
2025-11-22T17:45:22.028846,0.2052581257740109,0.0460434862941571,-9.702938824098146,0.5463143872469214,0.0415854722035711,0.2699742154363032,22.028846,0.23167169161084555,0.6107985250570115,0.05367177269383073,0.3730748382118207,0.5397662516923177,1
2025-11-22T17:45:22.038462,0.2034933917039006,0.0331165915255846,-9.672884831296674,0.5451780150289977,0.0670616480743504,0.2755868727102948,22.038462,0.24220762831897916,0.6145441051085319,0.058664535215904756,0.37766445712364627,0.5403343170660153,1
2025-11-22T17:45:22.048077,0.2011980281663535,0.0198670747499057,-9.643126560855883,0.5426448956377916,0.0923621002289418,0.2802019542733431,22.048077,0.2558996348298494,0.6176628331857531,0.06548462310605027,0.38150737549905145,0.541249118003347,1
2025-11-22T17:45:22.057692,0.1983821082033798,0.0063358201283518,-9.613750745371556,0.5387129993503461,0.1174514261118125,0.2838481186344224,22.057692,0.27218447479892666,0.6201421511371773,0.07408438832156754,0.38457628761704565,0.5424820406041149,1
2025-11-22T17:45:22.067308,0.1950566285359408,-0.0074249401231946,-9.584846834336256,0.5333855606055875,0.1422951329834869,0.2865558609360872,22.067308,0.290504910056219,0.6219825741692023,0.08439310276677188,0.3868623225701473,0.543997344409687,1
2025-11-22T17:45:22.076923,0.1912339499164561,-0.0213524239107089,-9.556506267395523,0.5266712989889443,0.166859517112579,0.2883568645722925,22.076923,0.3103474624113641,0.6231969487856214,0.09631554742517304,0.3883744369757084,0.5457528351168686,1
2025-11-22T17:45:22.086538,0.18692818339191,-0.0353745196015035,-9.528821509471262,0.5185846066676951,0.1911115071758693,0.2892834915847716,22.086538,0.3312571148046209,0.6238096993083684,0.10973127610868179,0.389138540951197,0.547700753644645,1
2025-11-22T17:45:22.096154,0.1821554954070104,-0.0494113674626232,-9.501884926283225,0.5091457208694059,0.2150184088004894,0.2893683839875434,22.096154,0.35283807181008475,0.623856027344678,0.12449470491865852,0.3891963428542837,0.5497888631241186,1
2025-11-22T17:45:22.105769,0.1769343065327571,-0.0633772263295696,-9.475787579318032,0.4983808987200063,0.2385475073257983,0.2886441191848487,22.105769,0.37474806920105524,0.6233809918503371,0.1404361153699189,0.3886038610003101,0.5519617046844758,1
2025-11-22T17:45:22.115385,0.1712853564405811,-0.0771825492113531,-9.450618005513611,0.4863226027705998,0.2616655253982538,0.2871428545677955,22.115385,0.39669080819326696,0.6224383825543351,0.15736359730502733,0.38742954007685687,0.5541619820043262,1
2025-11-22T17:45:22.125,0.1652316103868815,-0.0907361949372621,-9.426461034804596,0.4730096881402547,0.284337973124893,0.284895911959615,22.125,0.4184087722096521,0.6210893081406361,0.17506590066198854,0.38575192868661407,0.5563320246785518,1
2025-11-22T17:45:22.134615,0.158797995938706,-0.1039476987271464,-9.403396697570807,0.4584875615768924,0.3065284490299678,0.2819332795853941,22.134615,0.43967727605888524,0.6194004426243319,0.19331610708256117,0.3836569083232183,0.5584152730983329,1
2025-11-22T17:45:22.144231,0.152010980312212,-0.1167295142937125,-9.381499279052251,0.4428082672762032,0.3281979386349413,0.2782830391749089,22.144231,0.4602998708195688,0.6174418987927544,0.21187597107651174,0.3812344983848019,0.56035772383121,1
2025-11-22T17:45:22.153846,0.1448980221656433,-0.1289991348413723,-9.360836575323724,0.4260304475679227,0.3493041283393533,0.2739707572450471,22.153846,0.48010491269173017,0.6152847244611754,0.23050072719073383,0.3785752921552646,0.5621092745774665,1
2025-11-22T17:45:22.163462,0.137486951465794,-0.1406810047984023,-9.341469390113412,0.408219126784103,0.3698007355441112,0.269018905817934,22.163462,0.49894300990936113,0.612998051521226,0.24894412713741285,0.37576661116881965,0.5636249116899603,1
2025-11-22T17:45:22.173077,0.129805341174645,-0.1517081439753798,-9.323451293144435,0.3894452756483268,0.3896368711089097,0.2634463870784341,22.173077,0.5166850661201968,0.6106459800219948,0.26696345755163214,0.37288851291702246,0.5648656915320314,1
2025-11-22T17:45:22.182692,0.1218799305343929,-0.1620234189596999,-9.30682864809039,0.3697851357609875,0.4087564928667904,0.2572682251220513,22.182692,0.5332206748643682,0.6082843551727932,0.28432428810281224,0.37000985674798087,0.5657994799897733,1
2025-11-22T17:45:22.192308,0.1137361442962993,-0.1715804163533451,-9.291640907443975,0.3493193148945506,0.4270980531208657,0.2504954641312122,22.192308,0.5484566680967254,0.6059576786280899,0.30080471677976167,0.3671847082883435,0.5664014312874796,1
2025-11-22T17:45:22.201923,0.1053977342546676,-0.1803438982379953,-9.277921153282213,0.3281316908731758,0.4445944524214962,0.2431352878746326,22.201923,0.5623156819864349,0.6036964484649052,0.3161989262078694,0.36444940188914,0.5666542054414425,1
2025-11-22T17:45:22.211538,0.0968865564944763,-0.1882898417239346,-9.26569683762148,0.3063081731526722,0.4611733672216851,0.2351913567890492,22.211538,0.5747346680455857,0.6015152083555232,0.3303199386534696,0.36182054588298845,0.5665479402832733,1
2025-11-22T17:45:22.221154,0.0882224912650984,-0.1954050724951115,-9.25499065467871,0.283935365352135,0.4767579439361647,0.2266643445999024,22.221154,0.5856633305999116,0.5994115063266577,0.34300153680938134,0.35929415391679287,0.56608000675518,1
2025-11-22T17:45:22.230769,0.0794235089102295,-0.2016865031244232,-9.245821468457551,0.2610991627730593,0.4912677955849485,0.2175526442855803,22.230769,0.5950625043915276,0.5973658617759601,0.35409938413271685,0.3568459728153354,0.5652545842863925,1
2025-11-22T17:45:22.240385,0.0705058800032923,-0.2071399969827832,-9.238205219662316,0.237883327122768,0.5046202249473097,0.2078532066678876,22.240385,0.6029025067784458,0.5953427620043725,0.3634914326797339,0.35443300427099494,0.5640820968686058,1
2025-11-22T17:45:22.25,0.0614845182651974,-0.2117789044225876,-9.232155737328544,0.2143681123403714,0.5167316131321922,0.1975624765125441,22.25,0.6091615196264663,0.5932926594222628,0.3710777569936256,0.35199617972434116,0.5625785507206621,1
2025-11-22T17:45:22.259615,0.0523734327272117,-0.2156223509518514,-9.22768538081174,0.1906290512723742,0.527518924924756,0.1866773944891531,22.259615,0.6138240774214045,0.5911548874500107,0.37677999802223844,0.34946410095603475,0.5607648117124996,1
2025-11-22T17:45:22.269231,0.0431862542826683,-0.2186933866033528,-9.224805442833404,0.1667360216361415,0.5369012799881895,0.1751964312570823,22.269231,0.6168797520563376,0.5888613375738143,0.3805406284970886,0.3467576748892217,0.5586658555557469,1
2025-11-22T17:45:22.278846,0.0339367925144208,-0.2210171257176638,-9.223526259050685,0.1427526750639796,0.5448015297183795,0.1631206151795984,22.278846,0.6183221245845596,0.5863406587624459,0.3823222497507636,0.343795368117979,0.5563100171921961,1
2025-11-22T17:45:22.288462,0.0246395719663442,-0.222619010826406,-9.22385699498782,0.1187362496568681,0.5511477787443608,0.1504545160918254,22.288462,0.618148117130901,0.5835226922835532,0.3821070947124781,0.34049873240984635,0.5537282591118703,1
2025-11-22T17:45:22.298077,0.0153102953738392,-0.223523317452584,-9.225805117246733,0.0947377264134118,0.5558748067368804,0.1372071538077929,22.298077,0.616357722405976,0.5803428647160073,0.37989684196948215,0.3367978406267819,0.5509534725062063,1
2025-11-22T17:45:22.307692,0.0059661873749903,-0.2237519812835474,-9.229375599024406,0.070802256637669,0.5589253733301215,0.1233928019339164,22.307692,0.6129541186001303,0.5767463186413111,0.3757127515088626,0.3326363160663047,0.5480198207091986,1
2025-11-22T17:45:22.317308,-0.0033738144952186,-0.2233237879776541,-9.234569946929248,0.0469697829188183,0.5602514090203483,0.1090316519339331,22.317308,0.6079441107672071,0.5726916298848526,0.3695960418165302,0.3279757029401689,0.5449621312420431,1
2025-11-22T17:45:22.326923,-0.0126890361665347,-0.2222539306518351,-9.241385151093237,0.0232757860882839,0.5598150965695453,0.0941503008543769,22.326923,0.6013388152681922,0.5681540140808358,0.361608370748153,0.32279898371616655,0.5418153404647925,1
2025-11-22T17:45:22.336538,-0.02195720411428,-0.2205539136219339,-9.249812651436098,-0.0002478986946286,0.5575898354584327,0.0787820382479251,22.336538,0.5931545044474034,0.5631279566944108,0.35183226614624463,0.31711309561082224,0.5386139930638126,1
2025-11-22T17:45:22.346154,-0.0311547182775777,-0.2182317601712536,-9.259837394486818,-0.0235722436993158,0.5535610675952121,0.0629669234376563,22.346154,0.5834135394496681,0.5576292134361098,0.34037135801318946,0.3109503396773745,0.5353917976618062,1
2025-11-22T17:45:22.355769,-0.0402570280317229,-0.2152924644366656,-9.2714370432726,-0.0466702046523058,0.5477269292044925,0.0467516467250317,22.355769,0.5721453248725987,0.5516961241929959,0.32735027277357154,0.3043686134495735,0.5321812400474955,1
2025-11-22T17:45:22.365385,-0.0492390818346152,-0.2117386143565224,-9.284581399629417,-0.0695159385685758,0.5400986814561372,0.030189159185075,22.365385,0.559387219730222,0.5453901692898669,0.3129140615975077,0.29745043675802973,0.5290132565048105,1
2025-11-22T17:45:22.375,-0.0580758290911907,-0.2075711101340699,-9.29923209591638,-0.0920840840874799,0.5307008656802236,0.0133380518726211,22.375,0.5451853459578873,0.538795685769407,0.2972270614472212,0.2903007910037255,0.5259169704260044,1
2025-11-22T17:45:22.384615,-0.0667427590136528,-0.2027899152479585,-9.315342605844078,-0.1143491166123808,0.5195711272949446,-0.0037383231768284,22.384615,0.5295952561315461,0.5320186574254194,0.28047113531703793,0.2830438518487458,0.5229194948178697,1
2025-11-22T17:45:22.394231,-0.0752164632690496,-0.1973947990062077,-9.33285860978604,-0.1362847788282156,0.5067596484536879,-0.0209729734613447,22.394231,0.5126824567628945,0.5251844893529999,0.2628433014724372,0.27581874785697125,0.5200458012665585,1
2025-11-22T17:45:22.403846,-0.0834752037562227,-0.1913860487436655,-9.35171872297416,-0.1578635734805609,0.4923281318024728,-0.0382965827346401,22.403846,0.49452283327241187,0.5184346877334854,0.24455283262777366,0.26877452544531655,0.5173186531478149,1
2025-11-22T17:45:22.413462,-0.0914994525183682,-0.1847651395015722,-9.371855552822472,-0.17905629128466,0.4763483123286854,-0.0556389537656226,22.413462,0.4752030873586029,0.5119224192034735,0.22581797423514796,0.2620645632831368,0.5147585984114416,1
2025-11-22T17:45:22.423077,-0.0992723549353135,-0.1775353525145974,-9.393197007789556,-0.1998315375656607,0.4589000482125319,-0.0729304909052104,22.423077,0.45482136748206553,0.5058070325321655,0.2068624763182561,0.25584075415899515,0.5123840158717958,1
2025-11-22T17:45:22.432692,-0.106780061418477,-0.169702335547264,-9.415667755838063,-0.2201552269396947,0.4400691279564357,-0.0901036298683102,22.432692,0.4334883367626873,0.5002477640576234,0.18791213810928098,0.25024782544465163,0.5102112087389696,1
2025-11-22T17:45:22.442308,-0.1140118804208053,-0.1612745972211175,-9.43919073099982,-0.2399900413258474,0.4199449923361946,-0.1070941233176533,22.442308,0.4113289841262903,0.49539697997969795,0.169191533182366,0.24541816777300526,0.508254539621172,1
2025-11-22T17:45:22.451923,-0.1209602210236328,-0.1522639220494372,-9.463688595792163,-0.2592948832956683,0.3986185826535472,-0.1238420985419145,22.451923,0.38848556939506834,0.4913934027958682,0.15092103762821046,0.24146747631130236,0.5065266015495158,1
2025-11-22T17:45:22.461538,-0.1276203114615898,-0.1426856860663916,-9.489085067224709,-0.2780243845594651,0.376180491898997,-0.1402928192622468,22.461538,0.36512223203805927,0.4883558088439106,0.1333142443284544,0.23849139603159017,0.5050384191855475,1
2025-11-22T17:45:22.471154,-0.133989700864877,-0.1325590494653145,-9.515306004395898,-0.2961285341028244,0.3527195345983532,-0.1563971069321659,22.471154,0.34143200299039916,0.48637766586667797,0.11657581266603595,0.23656323385391784,0.5037996735215422,1
2025-11-22T17:45:22.480769,-0.1400675750755986,-0.1219070035800457,-9.54228015222432,-0.313552475451672,0.3283217907349306,-0.1721114038506354,22.480769,0.3176472305041297,0.4855231080687092,0.1008997630469437,0.23573268846869946,0.5028189425671762,1
2025-11-22T17:45:22.490385,-0.1458539376150103,-0.1107562542717316,-9.56993945515945,-0.3302365033310982,0.3030701314688107,-0.1873974877249255,22.490385,0.29405471135562355,0.4858245270943885,0.08646817327043908,0.23602547112648622,0.5021039495000824,1
2025-11-22T17:45:22.5,-0.1513487159477978,-0.0991369331722963,-9.598218900049366,-0.3461162768646797,0.2770441966755763,-0.2022218739924015,22.5,0.2710169323771923,0.4872819002828668,0.07345017763514364,0.23744365034328171,0.5016618076950162,1
2025-11-22T17:45:22.509615,-0.1565508498749015,-0.0870821435394221,-9.627055906074144,-0.3611232569616387,0.2503207621799313,-0.2165549670264197,22.509615,0.24900025691514854,0.489863801929411,0.06200112794380998,0.2399665444407372,0.5014992486946613,1
2025-11-22T17:45:22.519231,-0.1614574097633877,-0.0746273687052433,-9.65638933366673,-0.3751853649430294,0.2229744085757113,-0.2303700425358326,22.519231,0.22860831746035984,0.4935098797846743,0.05226176281205667,0.24355200144508368,0.5016228155380028,1
2025-11-22T17:45:22.528846,-0.1660627851989388,-0.0618097950219414,-9.686158224083416,-0.3882278499809945,0.1950783842251925,-0.2436421595360868,22.528846,0.21061160778201488,0.49813446116102567,0.044357249332525266,0.2481379413961854,0.5020390014190592,1
2025-11-22T17:45:22.538462,-0.1703579843290645,-0.048667620718371,-9.716300405101546,-0.4001743479598964,0.1667055424903302,-0.2563471081671934,22.538462,0.1959489788623929,0.5036309030706975,0.0383960023172145,0.2536440865278063,0.502754313385706,1
2025-11-22T17:45:22.548077,-0.1743300920149998,-0.0352394304163529,-9.74675110407957,-0.4109481124713346,0.1379292337839726,-0.2684604945423943,22.548077,0.18565625051360965,0.509876320107076,0.034468243354772186,0.2599738618059334,0.503775242971618,1
2025-11-22T17:45:22.557692,-0.1779619450566517,-0.0215637091516913,-9.77744169780376,-0.4204733972426071,0.1088240531899743,-0.2799570446807626,22.557692,0.18067740433906615,0.5167363923779901,0.032644324438702396,0.2670164992078201,0.5051081303778857,1
2025-11-22T17:45:22.567308,-0.1812320825310961,-0.0076785484830187,-9.808298706373796,-0.4286769661474312,0.0794663764897358,-0.2908101825061784,22.567308,0.18158440564333314,0.5240700416423849,0.03297289637284256,0.27464940854705105,0.5067589162334233,1
2025-11-22T17:45:22.576923,-0.1841150115666166,0.0063784371058435,-9.839243112135302,-0.4354896991945172,0.0499346441171891,-0.3009919084761785,22.576923,0.18835881660849427,0.5317338392050798,0.03547904379415238,0.2827408757557736,0.5087327847361741,1
2025-11-22T17:45:22.586538,-0.1865817989089602,0.0205700020462156,-9.870190055611287,-0.4408482516867145,0.0203093674954577,-0.3104729749225288,22.586538,0.20040592949062278,0.5395860631822726,0.04016253657500047,0.2911531195805435,0.5110337128048532,1
2025-11-22T17:45:22.596154,-0.1886009647999704,0.0348590132979421,-9.90104893072392,-0.4446967145174366,-0.0093271534370483,-0.3192233183884099,22.596154,0.2167864413011877,0.5474903567157589,0.0469963611320333,0.2997456906967489,0.5136639497737128,1
2025-11-22T17:45:22.605769,-0.1901396223284965,0.0492080979468365,-9.931723874741618,-0.4469882177627434,-0.0388913841308122,-0.3272126732151026,22.605769,0.23648613502637725,0.5553189534770965,0.055925692059713934,0.3083791400908976,0.5166234593952891,1
2025-11-22T17:45:22.615385,-0.1911647770027685,0.0635792447345675,-9.962114622942398,-0.4476864138691877,-0.0682993184829435,-0.3344112676277296,22.615385,0.2585873997303268,0.56295543161486,0.06686744329929181,0.31691881798467325,0.5199093596975348,1
2025-11-22T17:45:22.625,-0.1916446844663814,0.0779334011488609,-9.99211767157653,-0.4467667699767847,-0.09746734502834,-0.3407905042579756,22.625,0.28233047981193116,0.5702969383529671,0.07971049983083527,0.325238597894768,0.5235153966720685,1
2025-11-22T17:45:22.634615,-0.1915501628833016,0.0922300964762566,-10.02162767042986,-0.4442175940372066,-0.1263130950950501,-0.3463235510272085,22.634615,0.3071102080634982,0.577255810573433,0.09431667989680516,0.33322427084079115,0.5274314853010985,1
2025-11-22T17:45:22.644231,-0.1908557686822901,0.1064271139234578,-10.050538955363775,-0.4400407189704181,-0.1547561789449422,-0.350985804329531,22.644231,0.33244912869814514,0.5837605194893616,0.11052242317215587,0.3407763441144893,0.531643346735637,1
2025-11-22T17:45:22.653846,-0.1895407647671544,0.1204802380367446,-10.078747131148168,-0.4342517756768541,-0.1827187724053849,-0.3547552201131196,22.653846,0.3579680885068414,0.5897558992204652,0.12814115238924184,0.34781202066533956,0.5361322644059131,1
2025-11-22T17:45:22.663462,-0.1875898344056971,0.1343431144805432,-10.10615062129348,-0.4268800020707667,-0.2101260722969306,-0.3576125312663339,22.663462,0.3833617368740296,0.5952026755195136,0.1469662212990727,0.35426622494558735,0.5408749751058647,1
2025-11-22T17:45:22.673077,-0.1849935207842583,0.1479672670209064,-10.132652111939397,-0.4179675629183411,-0.2369066671949674,-0.3595413808295671,22.673077,0.40838014449717364,0.6000763760907075,0.16677434241953243,0.36009165714215624,0.5458437038148032,1
2025-11-22T17:45:22.682692,-0.1817484017074714,0.1613023127423274,-10.158159827906116,-0.4075683929703669,-0.2629928657934884,-0.3605284016185383,22.682692,0.432815641982799,0.604365759106468,0.18732937994498242,0.3652579707803372,0.5510063434654192,1
2025-11-22T17:45:22.692308,-0.1778570369276541,0.1742964007019437,-10.18258858868206,-0.3957466174701025,-0.2883210055003307,-0.3605632660410128,22.692308,0.45649358053763217,0.6080709302950698,0.20838638907206766,0.3697502562699116,0.5563267736343008,1
2025-11-22T17:45:22.701923,-0.1733277438636928,0.1868968756883474,-10.205860605058364,-0.3825746410502221,-0.3128317432057693,-0.359638721449052,22.701923,0.4792658757655129,0.6112013297575322,0.22969577967328403,0.37356706549737556,0.5617653056364037,1
2025-11-22T17:45:22.711538,-0.1681742594384634,0.1990511427939748,-10.227905998633531,-0.3681310255013856,-0.3364703065242775,-0.3577506229863386,22.711538,0.501006469670624,0.6137737590972396,0.2510074826518219,0.37671822735635635,0.5672792357663977,1
2025-11-22T17:45:22.721154,-0.1624153312398387,0.2107076862964988,-10.248663052560786,-0.3524982995627295,-0.3591866568268485,-0.3548979738498773,22.721154,0.5216080938974516,0.6158105857159425,0.2720750036193326,0.37922267747981214,0.5728234834937073,1
2025-11-22T17:45:22.730769,-0.1560742586941343,0.2218171812261343,-10.26807822306908,-0.3357608538454464,-0.3809354987555969,-0.351082972025758,22.730769,0.5409799063047893,0.6173382042556882,0.29265925902553863,0.3811064584336378,0.5783512878201879,1
2025-11-22T17:45:22.740385,-0.1491783888359885,0.2323336246001749,-10.28610595346814,-0.3180030628062462,-0.4016760782882851,-0.3463110458119294,22.740385,0.559045707266163,0.618385769786597,0.3125321028127244,0.3824009602745621,0.583814933810455,1
2025-11-22T17:45:22.75,-0.1417585710549558,0.2422154019188058,-10.30270833803386,-0.2993077445122485,-0.4213717416383824,-0.3405908566009181,22.75,0.5757425349259824,0.6189841695685927,0.33147946652299604,0.3831414021765203,0.5891664834636361,1
2025-11-22T17:45:22.759615,-0.1338485865526034,0.2514261982694028,-10.317854681971305,-0.2797550259724534,-0.4399892685445981,-0.3339342673383925,22.759615,0.5910194996258037,0.6191651846592212,0.3493040489379354,0.3833655258940875,0.5943584904668292,1
2025-11-22T17:45:22.769231,-0.1254845780546062,0.2599356725981178,-10.331520990676337,-0.2594216323199902,-0.4574980347925785,-0.3263563042113242,22.769231,0.6048367521473312,0.6189608004172106,0.3658274967481322,0.383112472453114,0.5993446853599814,1
2025-11-22T17:45:22.778846,-0.1167045050568422,0.2677198415112387,-10.343689397672884,-0.2383805656079163,-0.4738690935796434,-0.3178751516610968,22.778846,0.6171644968574166,0.6184026390250192,0.38089201618126817,0.38242182395310825,0.6040806240598946,1
2025-11-22T17:45:22.788462,-0.1075476418350871,0.2747611572357327,-10.354347518984444,-0.2167010909114032,-0.4890742886224146,-0.3085122078654606,22.788462,0.627981974736548,0.6175215016464887,0.39436136059401444,0.3813328049957343,0.6085242970049,1
2025-11-22T17:45:22.798077,-0.0980541271905539,0.2810483013359079,-10.363487719450411,-0.1944489146446734,-0.5030855181688958,-0.2982922044071939,22.798077,0.6372763682377728,0.6163470274186945,0.40612116951432536,0.37988365820786096,0.6126366980258795,1
2025-11-22T17:45:22.807692,-0.0882645700857664,0.2865757431066874,-10.371106299439008,-0.1716864320575259,-0.5158742537176079,-0.287243379964247,22.807692,0.6450416235627685,0.6149075019339307,0.41607869612849235,0.37811123593462703,0.6163823518581795,1
2025-11-22T17:45:22.817308,-0.0782197111745082,0.2913431243749341,-10.377202646535771,-0.1484729417732898,-0.5274113820746948,-0.2753976979103499,22.817308,0.6512772332153715,0.6132298691315311,0.4241620345046693,0.3760508723950748,0.619729797682779,1
2025-11-22T17:45:22.826923,-0.0679601338512602,0.2953545303309809,-10.381778425243526,-0.1248647716075633,-0.537667394660055,-0.2627910978468225,22.826923,0.6559870535757181,0.6113400032524279,0.430319014458952,0.37373659957667854,0.6226520239743749,1
2025-11-22T17:45:22.836538,-0.0575260121717809,0.2986176965015718,-10.384836882911646,-0.1009153208476333,-0.5466129029907109,-0.2494637570589124,22.836538,0.6591782386836675,0.6092632713233755,0.4345159503541022,0.3712017337836611,0.6251268480039844,1
2025-11-22T17:45:22.846154,-0.0469568803340268,0.3011431949524499,-10.386382330114916,-0.0766750807539023,-0.5542194151722014,-0.2354603157693968,22.846154,0.6608603555577162,0.6070253606437366,0.436736409547871,0.36847978846465845,0.6271372322149561,1
2025-11-22T17:45:22.855769,-0.0362914083173904,0.3029436393159642,-10.386419819551346,-0.0521917247545375,-0.5604602681971085,-0.220830011314598,22.855769,0.6610447183680488,0.6046532744123971,0.43698011968229294,0.3656055822576336,0.6286715295728009,1
2025-11-22T17:45:22.865385,-0.0255671686394725,0.3040329427375838,-10.384955013446609,-0.0275103499593324,-0.565311588463493,-0.2056266799008584,22.865385,0.6597439489212733,0.6021763387024209,0.4352620781382357,0.3626163428930528,0.629723650657832,1
2025-11-22T17:45:22.875,-0.0148203825781596,0.3044256552359268,-10.381994205261378,-0.002673910685759,-0.5687531580125604,-0.189908605253897,22.875,0.6569717484514908,0.599627036496101,0.43161187826340885,0.3595525828970965,0.630293146442004,1
2025-11-22T17:45:22.884615,-0.0040856440852035,0.3041364010519838,-10.377544454539567,0.0222761635265023,-0.5707690876446873,-0.1737382024418468,22.884615,0.6527428589435885,0.5970414909032138,0.4260732399018495,0.3564585418599323,0.6303852023158906,1
2025-11-22T17:45:22.894231,0.0066043668236535,0.3031794294240857,-10.371613807299932,0.047299208086938,-0.5713482246124171,-0.1571815210111603,22.894231,0.6470732020281618,0.5944594514353306,0.41870372878297824,0.3533820394007942,0.630010540986621,1
2025-11-22T17:45:22.903846,0.0172191590754848,0.3015682792207535,-10.36421159941249,0.0723544824680782,-0.5704842502933847,-0.1403075483411703,22.903846,0.6399801992116888,0.591923693635876,0.4095746553830329,0.3503736590875384,0.6291852340824972,1
2025-11-22T17:45:22.913462,0.0277306679173931,0.2993155443765332,-10.355348858555416,0.0974003178699113,-0.5681754624848819,-0.1231873067513479,22.913462,0.6314832854061683,0.5894788296756042,0.39877113974736816,0.3474852906357199,0.6279304243144943,1
2025-11-22T17:45:22.923077,0.0381134289305685,0.2964327232021637,-10.345038818973643,0.1223933273332564,-0.5644242907635099,-0.1058927697796619,22.923077,0.6216046227611883,0.5871696392621175,0.38639230703807925,0.34476818527120523,0.6262719616669273,1
2025-11-22T17:45:22.932692,0.0483446637024069,0.2929301430044131,-10.333297543615334,0.147287747114922,-0.5592366445278758,-0.0884956614052687,22.932692,0.6103700068116331,0.5850391329821817,0.37255154521523304,0.3422707871205429,0.6242399582839242,1
2025-11-22T17:45:22.942308,0.0584042512225525,0.2888169662852245,-10.320144622317503,0.1720349578152863,-0.5526212132552671,-0.0710662248441727,22.942308,0.5978099402827666,0.583126607490889,0.35737672470088494,0.3400366403638333,0.6218682676505319,1
2025-11-22T17:45:22.951923,0.0682745575650963,0.2841012965626343,-10.305603896924156,0.1965831999402006,-0.5445888135168883,-0.0536720401006909,22.951923,0.5839608398721367,0.5814659217830664,0.3410102625041712,0.3381026181950311,0.6191938948129564,1
2025-11-22T17:45:22.961538,0.0779401002426681,0.2787904019283297,-10.28970416081672,0.220877461481605,-0.5351518242449174,-0.0363769383334793,22.961538,0.5688663397973239,0.5800841401260154,0.3236089125544044,0.33649760962573866,0.61625634626538,1
2025-11-22T17:45:22.971154,0.0873870399551435,0.2728910609504076,-10.272479786889075,0.2448594898979036,-0.5243237053343679,-0.0192400314660222,22.971154,0.5525786594843365,0.5790006015363336,0.3053431749175063,0.33524169657943614,0.6130969309579375,1
2025-11-22T17:45:22.980769,0.0966025221326835,0.2664100149990303,-10.25397124842869,0.2684678791219394,-0.512118584409724,-0.0023148687655874,22.980769,0.5351600113742441,0.5782264307651924,0.286396237774081,0.3343458052354539,0.609758027571076,1
2025-11-22T17:45:22.990385,0.1055739249549754,0.2593544930640676,-10.234225509107736,0.2916382008194466,-0.4985509284374583,0.01435125348169,22.990385,0.516684042198702,0.5777645081688138,0.2669623994627901,0.33381182689955124,0.6062823375022276,1
2025-11-22T17:45:23,0.1142880962711394,0.2517327651041712,-10.213296268327197,0.3143031707109291,-0.4836353659608371,0.0307177868341989,23.0,0.4972373270275056,0.5776099313161154,0.24724495938945856,0.3336332327550075,0.6027121472706208,1
2025-11-22T17:45:23.009615,0.1227306697686184,0.2435546775067547,-10.1912440519318,0.3363928501889154,-0.46738675362888,0.0467511849391663,23.009615,0.4769209645311115,0.5777509847842595,0.2274536064092857,0.3337962004191816,0.5990886270051226,1
2025-11-22T17:45:23.019231,0.1308855398707081,0.2348321282169871,-10.168136133240251,0.3578348820773386,-0.449820566627466,0.0624248834441619,23.019231,0.4558523506435496,0.5781705726387106,0.2078013655872497,0.33428121106537456,0.5954511919560578,1
2025-11-22T17:45:23.028846,0.138734550251649,0.2255794513914303,-10.144046257905028,0.3785547597443976,-0.4309536451379427,0.0777189911420398,23.028846,0.43416723955411324,0.5788479869248531,0.18850119190203876,0.3350649919669549,0.5918369511048958,1
2025-11-22T17:45:23.038462,0.1462574189705331,0.2158137016083069,-10.119054137887414,0.3984761386762964,-0.4108052707487626,0.0926197012397194,23.038462,0.4120222437064311,0.5797608236394298,0.1697623293088817,0.33612261262707005,0.5882802617896832,1
2025-11-22T17:45:23.048077,0.1534318908116931,0.2055548473199579,-10.09324468620825,0.417521215873524,-0.3893984958211091,0.1071184569712259,23.048077,0.3895979804415789,0.5808868375821098,0.1517865863641569,0.3374295180761444,0.5848124030334267,1
2025-11-22T17:45:23.057692,0.1602340817650636,0.1948258926813331,-10.066706986880895,0.4356112154171181,-0.3667616127213177,0.121210926460131,23.057692,0.3671031275667057,0.5822055481154779,0.13476470626925702,0.338963300256444,0.5814613733133236,1
2025-11-22T17:45:23.067308,0.1666389657860774,0.18365294576803,-10.039533025537615,0.4526670190034039,-0.3429296315253267,0.1348958490118307,23.067308,0.34477966838363877,0.5836994537877751,0.11887301973073192,0.340705052352147,0.5782518104023626,1
2025-11-22T17:45:23.076923,0.172620948665713,0.1720652461254615,-10.011816238896936,0.4686099685388942,-0.3179456386882405,0.1481738081167348,23.076923,0.32290952278139734,0.5853547720713581,0.10427055990290977,0.3426402091867116,0.5752050216328632,1
2025-11-22T17:45:23.086538,0.1781544749219485,0.1600951592834204,-9.983649971564438,0.4833628552633628,-0.2918619369886991,0.1610459747979093,23.086538,0.3018224461770817,0.5871616865138212,0.09109678901631739,0.3447588461097548,0.5723391036413105,1
2025-11-22T17:45:23.096154,0.183214619272657,0.147778139309779,-9.955125950424897,0.4968511022948404,-0.2647409079218447,0.1735128600119422,23.096154,0.2819043023231686,0.5891141474862104,0.07947003566831244,0.3470554787684044,0.5696691232678123,1
2025-11-22T17:45:23.105769,0.1877776231550487,0.135152651534681,-9.926332893605634,0.5090041363227445,-0.2366555711722927,0.185573121518957,23.105769,0.26360325297952364,0.5912093145332173,0.06948667498138673,0.34952845359083673,0.5672073276308238,1
2025-11-22T17:45:23.115385,0.1918213485422291,0.1222600381131903,-9.897355361589824,0.5197569199370221,-0.2076898302574402,0.1972224823387086,23.115385,0.24742880411601906,0.5934467364091124,0.06122101310628333,0.3521790289546265,0.5649633526358495,1
2025-11-22T17:45:23.125,0.1953256366375986,0.109144304788331,-9.868272935180531,0.5290515806078371,-0.1779383962871177,0.2084528197867578,23.125,0.2339354126116357,0.595827345708413,0.05472577727377624,0.3550102258939327,0.562944405248631,1
2025-11-22T17:45:23.134615,0.1982725761346114,0.0958518140285492,-9.839159770377414,0.5368390342563334,-0.1475063873395603,0.2192514681654482,23.134615,0.22368073747113448,0.5983523120202224,0.05003307231563059,0.3580254892999456,0.5611554042352708,1
2025-11-22T17:45:23.144231,0.2006466990818165,0.0824308859026028,-9.81008453714094,0.5430804717562642,-0.1165086133007955,0.2296007530550772,23.144231,0.21715350950989468,0.6010217646472874,0.047155646692463915,0.36122716157973933,0.5595990743203721,1
2025-11-22T17:45:23.153846,0.2024351270437378,0.0689313224699417,-9.781110708340623,0.5477485695936454,-0.0850685694617584,0.2394777544955164,23.153846,0.21468188842578775,0.6038333809093113,0.04608831321806238,0.3646147519003694,0.5582759975921152,1
2025-11-22T17:45:23.163462,0.2036276859779618,0.0554038739373942,-9.752297140405238,0.5508283090931615,-0.0533171729183364,0.248854284647097,23.163462,0.2163547701288967,0.6067808517196746,0.046809386557527734,0.36818300201365367,0.5571846319849773,1
2025-11-22T17:45:23.173077,0.204216999323302,0.0418996561275532,-9.72369888081169,0.552317332528592,-0.0213912823393616,0.2576970626303059,23.173077,0.2219955512743654,0.6098522762603329,0.0492820247856094,0.3719197988599094,0.556321308992142,1
2025-11-22T17:45:23.182692,0.2041985603476606,0.0284695186158801,-9.69536813764994,0.5522258103010403,0.0105679602753009,0.2659680775671832,23.182692,0.23120422175453298,0.6130285846775859,0.05345539215711926,0.37580404563180414,0.5556802213901912,1
2025-11-22T17:45:23.192308,0.2035707793737515,0.0151633614322382,-9.667355339712593,0.5505758305444057,0.0424169356831251,0.27362514600841,23.192308,0.2434452621176332,0.6162821286882594,0.05926559564752314,0.3798036621405323,0.5552534078109169,1
2025-11-22T17:45:23.201923,0.202335000483047,0.0020294101417364,-9.639710200699584,0.54740035194316,0.074011473245899,0.2806226764382886,23.201923,0.25814025390427947,0.6195756047577343,0.06663639068576588,0.3838739300109122,0.5550307365517149,1
2025-11-22T17:45:23.211538,0.2004954884220785,-0.0108865191151874,-9.61248268847625,0.5427417858345059,0.1052088590536314,0.2869126428197759,23.211538,0.274735689886022,0.6228614731415195,0.07547969929714844,0.3879564147240238,0.5549998883100864,1
2025-11-22T17:45:23.221154,0.1980593991966064,-0.0235417126035636,-9.585723801234549,0.5366502920670292,0.1358698822774166,0.2924457503484048,23.221154,0.29273883787396743,0.6260820056370796,0.08569602719980099,0.3919786777825482,0.5551463379766935,1
2025-11-22T17:45:23.230769,0.1950367588386637,-0.0358971509957446,-9.559486073478556,0.5291818779919821,0.1658608841154167,0.2971727602014106,23.230769,0.311728875144195,0.6291700424212788,0.09717489159866512,0.3958549422803938,0.555453339104647,1
2025-11-22T17:45:23.240385,0.1914404737741559,-0.0479179505204033,-9.53382377808038,0.5203963849732043,0.1950557851498918,0.3010459236292095,23.240385,0.33135383820977843,0.6320504765818818,0.10979536609635202,0.39948780494738395,0.5559019194069348,1
2025-11-22T17:45:23.25,0.1872863808731205,-0.0595736207969767,-9.508792850260138,0.5103554457693534,0.2233380584392306,0.3040204544183424,23.25,0.3513215177227672,0.634642423793569,0.12342680881502863,0.40277100607857613,0.5564708991268701,1
2025-11-22T17:45:23.259615,0.1825933234673302,-0.0708381258476541,-9.48445061552327,0.4991205035789618,0.250602583118434,0.3060559501627273,23.259615,0.37138898192070335,0.6368619759324291,0.1379297758920965,0.4055931763885579,0.5571369448999349,1
2025-11-22T17:45:23.269231,0.1773832227052259,-0.0816897549682591,-9.46085543075536,0.4867509901614506,0.2767572797342397,0.3071176712915969,23.269231,0.3913528620212179,0.6386253849704239,0.1531570626121984,0.4078423823286221,0.5578746702647253,1
2025-11-22T17:45:23.278846,0.1716811078860126,-0.0921108297310197,-9.438066334543322,0.4733027597026437,0.3017244209233122,0.3071776054175575,23.278846,0.41104110007347516,0.6398524906521121,0.16895478594961263,0.40941120979371126,0.558656791819282,1
2025-11-22T17:45:23.288462,0.1655150733616933,-0.1020872859401317,-9.416142762041616,0.4588268684322438,0.3254415313763648,0.3062152708976136,23.288462,0.43030620794219165,0.6404702004549719,0.1851634325935887,0.41020207767083194,0.5594543480974068,1
2025-11-22T17:45:23.298077,0.1589161382068934,-0.1116081719648081,-9.395144336782122,0.4433687769443583,0.3478618179765266,0.3042182348746376,23.298077,0.449019855988025,0.6404158424065651,0.20161883107150672,0.41013245120531044,0.5602369864132899,1
2025-11-22T17:45:23.307692,0.15191799336484,-0.1206651016424878,-9.375130725057288,0.4269680282712285,0.368954089210044,0.3011823356868313,23.307692,0.4670685648304093,0.639640224220154,0.21815304425273827,0.40913961644040886,0.5609733206173023,1
2025-11-22T17:45:23.317308,0.144556626252381,-0.1292516957959008,-9.356161527363197,0.4096584197951693,0.3887021374634313,0.2971116111091988,23.317308,0.4843502956044907,0.6381102428527685,0.23459520885215754,0.40718468203361924,0.561631359508916,1
2025-11-22T17:45:23.326923,0.136869816534136,-0.1373630421628324,-9.33829617341214,0.3914686452473833,0.4071035776529991,0.2920179443270658,23.326923,0.5007717798720192,0.6358109018872659,0.25077237551619,0.4042555029586984,0.5621790014226171,1
2025-11-22T17:45:23.336538,0.1288965042017311,-0.1449951964471263,-9.321593776907802,0.3724233371797429,0.4241681600272806,0.285920451484889,23.336538,0.5162464819071507,0.6327466117130521,0.2665104300815101,0.400368274634348,0.5625845853199284,1
2025-11-22T17:45:23.346154,0.1206760429189448,-0.152144734982183,-9.306112902552464,0.352544399491827,0.4399156024181398,0.2788446543913625,23.346154,0.5306931248306564,0.6289416762678446,0.2816351927425267,0.39556763214660623,0.5628174830005693,1
2025-11-22T17:45:23.355769,0.1122473633210491,-0.1588083565311367,-9.291911210276378,0.3318525036571128,0.4543730223939884,0.2708215124742772,23.355769,0.5440347258396871,0.6244399244777651,0.2959737829194636,0.38992521928179696,0.5628487117288988,1
2025-11-22T17:45:23.365385,0.1036480818958356,-0.1649825275265981,-9.279044967363951,0.3103686400851939,0.4675720928550456,0.2618864197169542,23.365385,0.5561980809914555,0.6193035213829684,0.3093563052985777,0.3835368515973448,0.5626515428926354,1
2025-11-22T17:45:23.375,0.0949136053042894,-0.1706631752009142,-9.267568447683878,0.288115651027187,0.4795460856680653,0.2520782856100864,23.375,0.5671136303627979,0.6136110647001922,0.3216178697432722,0.37651853872250346,0.5622020811050985,1
2025-11-22T17:45:23.384615,0.0860762962799683,-0.175845445132444,-9.257533260586936,0.2651197014616241,0.4903269957555272,0.2414388009263759,23.384615,0.5767156255248739,0.6074551123025533,0.33260091272454656,0.3690017134625077,0.5614797894828795,1
2025-11-22T17:45:23.394231,0.0771647753928728,-0.1805235405174412,-9.24898766274542,0.2414116615430262,0.4999429430290686,0.2300119445849249,23.394231,0.5849425160211382,0.6009392908316694,0.34215774704913954,0.36112803126526977,0.5604679402957208,1
2025-11-22T17:45:23.403846,0.0682034236014214,-0.1846906513626504,-9.24197589854765,0.2170283775788846,0.5084160222803659,0.217843735324353,23.403846,0.5917374768369988,0.5941751100525662,0.35015324149341776,0.3530440614059791,0.559153975439284,1
2025-11-22T17:45:23.413462,0.0592121250934162,-0.1883389732064307,-9.236537593934948,0.192013794795255,0.5157607120311734,0.2049821886260612,23.413462,0.5970490161076808,0.5872785600722261,0.35646752763514966,0.3448961071205073,0.5575297678339374,1
2025-11-22T17:45:23.423077,0.0502062587197531,-0.1914598107697206,-9.232707209186453,0.1664198705608055,0.5219828788938992,0.1914774132068039,23.423077,0.600831622056992,0.5803665212124208,0.36099863806363613,0.3368252989442073,0.5555917822024177,1
2025-11-22T17:45:23.432692,0.0411969185727536,-0.1940437577777216,-9.230513548717251,0.140307205439655,0.5270793462505111,0.1773817714545431,23.432692,0.6030464196287119,0.5735529984112222,0.36366498422700844,0.32896304198650345,0.5533411407391224,1
2025-11-22T17:45:23.442308,0.0321913238030669,-0.1960809372843068,-9.22997933030116,0.1137453385128984,0.5310379517471681,0.1627500297344719,23.442308,0.6036618086133991,0.5669452181717497,0.3644075791784001,0.32142688040781286,0.5507836048578325,1
2025-11-22T17:45:23.451923,0.023193367252206,-0.1975612817157892,-9.23112082186041,0.0868126894736316,0.5338380046708464,0.1476394331182119,23.451923,0.6026540563527782,0.5606396886557915,0.3631919116384576,0.31431686049606283,0.5479294874823271,1
2025-11-22T17:45:23.461538,0.0142042544847471,-0.1984748360239312,-9.233947548898367,0.0595961607268504,0.5354510655080245,0.1321096519497787,23.461538,0.6000078322641804,0.5547184024938698,0.36000939877836086,0.307712506065351,0.544793510680238,1
2025-11-22T17:45:23.471154,0.0052231969583927,-0.1988120805633712,-9.238462060138977,0.0321904365050167,0.5358419900885588,0.1162225646692989,23.471154,0.595716696985879,0.549245434284856,0.35487838306776565,0.30167054708276003,0.5413946210614525,1
2025-11-22T17:45:23.480769,-0.003751862101817,-0.1985642805969992,-9.244659725698964,0.0046970402275545,0.5349701971530799,0.1000418634403253,23.480769,0.5897835791703472,0.5442642267038291,0.3478446702589852,0.2962235484695171,0.537755771119416,1
2025-11-22T17:45:23.490385,-0.0127235000394233,-0.1977238641072044,-9.25252854041781,-0.0227767737229477,0.532791125536037,0.0836324935655981,23.490385,0.582221274901383,0.5397958492348597,0.3389816129477918,0.2913795588511834,0.5339036696164919,1
2025-11-22T17:45:23.5,-0.0216940539883374,-0.1962848103977843,-9.262048914319925,-0.0501192306880183,0.5292578461170341,0.0670599584470386,23.5,0.5730529900067842,0.5358384485907292,0.32838972935571553,0.28712284298811946,0.529868499125032,1
2025-11-22T17:45:23.509615,-0.0306648624359064,-0.1942430144376516,-9.273193449190764,-0.0772153255758618,0.5243227914196655,0.0503895353234061,23.509615,0.5623129239325413,0.5323680131037224,0.31619582442156396,0.28341570137600514,0.5256835948942843,1
2025-11-22T17:45:23.519231,-0.03963553645149,-0.1915965897311267,-9.285926723046954,-0.1039482093092989,0.5179395664916188,0.033685452494947,23.519231,0.5500468734786511,0.5293404712148175,0.3025515630236392,0.28020133446592504,0.5213850774646834,1
2025-11-22T17:45:23.528846,-0.0486032976595288,-0.1883460837690632,-9.30020513020932,-0.1302007039443632,0.5100648043578607,0.0170100762977643,23.528846,0.536312818869367,0.5266950452091668,0.28763143968360644,0.27740767064788624,0.5170114326561314,1
2025-11-22T17:45:23.538462,-0.0575624217927251,-0.1844945925954086,-9.315976845951838,-0.1558569580854565,0.5006600275331399,0.0004231482153251,23.538462,0.5211814470549785,0.5243586879298828,0.27163010075432137,0.2749520336075483,0.5126030363091952,1
2025-11-22T17:45:23.548077,-0.0665038185278022,-0.1800477681560943,-9.3331819896957,-0.1808042097769547,0.4896934799346955,-0.0160188964691487,23.548077,0.5047365762863202,0.5222513490721784,0.2547590114412363,0.2727464716077103,0.5082016260937071,1
2025-11-22T17:45:23.557692,-0.0754147629469394,-0.1750137171481688,-9.351753043454847,-0.2049345778758926,0.4771418994305179,-0.0322635053259979,23.557692,0.48707547845519283,0.520291751978881,0.23724252171235502,0.27070350717725344,0.5038497275600936,1
2025-11-22T17:45:23.567308,-0.0842787778053207,-0.1694027968391232,-9.371615550237278,-0.2281467759262032,0.4629922008022621,-0.0482624643207596,23.567308,0.46830914657284495,0.5184033129056527,0.21931345676378639,0.26874199483155603,0.4995900459259912,1
2025-11-22T17:45:23.576923,-0.0930756543442602,-0.1632273199152471,-9.392689087048208,-0.2503476445384632,0.4472430310497693,-0.0639722173549915,23.576923,0.4485626101314618,0.5165198123420397,0.2012084152079498,0.2667927165418559,0.49546483892844884,1
2025-11-22T17:45:23.586538,-0.1017815926592681,-0.1565011835919144,-9.414888488933691,-0.2714534244541712,0.4299061546852543,-0.0793540295734173,23.586538,0.427975453765404,0.5145904444251729,0.18316298902570347,0.26480332549369695,0.4915152894100706,1
2025-11-22T17:45:23.596154,-0.1103694371153831,-0.1492394411174583,-9.438125287586514,-0.291390727304625,0.4110076341328358,-0.0943739694868395,23.596154,0.40670275499258857,0.5125839222910648,0.16540713091856152,0.2627422773912923,0.48778089877964853,1
2025-11-22T17:45:23.605769,-0.1188089762812587,-0.1414578444605001,-9.462309308891752,-0.3100971909474651,0.3905887822399733,-0.1090026925159876,23.605769,0.3849167409526092,0.5104913825138959,0.14816089746557806,0.2606014516209488,0.4842989234155875,1
2025-11-22T17:45:23.615385,-0.1270672723577421,-0.1331724050333521,-9.487350348194738,-0.3275218275328289,0.3687068642133186,-0.1232150313061388,23.615385,0.36280957255942925,0.5083278894259448,0.13163078594075575,0.25839724316823554,0.48110387463211346,1
2025-11-22T17:45:23.625,-0.1351089865183281,-0.1243990314648231,-9.51315981939686,-0.3436250840541856,0.3454355091797526,-0.1369894263910689,23.625,0.34059777814283876,0.5061323861762604,0.11600684647583841,0.25616999233647525,0.47822709865207647,1
2025-11-22T17:45:23.634615,-0.1428966776472471,-0.115153299246915,-9.539652261983196,-0.3583786364370578,0.3208647677855308,-0.1503072523940384,23.634615,0.3185289429557971,0.5039659873273122,0.10146068750053744,0.25398171638279265,0.4756964470327819,1
2025-11-22T17:45:23.644231,-0.1503910719697081,-0.1054503906867721,-9.566746592217283,-0.3717649383072375,0.2951007373424211,-0.1631521055224989,23.644231,0.29689124552004126,0.5019085813881342,0.08814441166644142,0.25191222407104935,0.4735360420564643,1
2025-11-22T17:45:23.653846,-0.1575513238758324,-0.0953052238693996,-9.594367002884688,-0.3837765564965695,0.2682646802466326,-0.1755091188564439,23.653846,0.27602614885994037,0.5000538318880857,0.07619043485444996,0.2500538347859579,0.47176613720205063,1
2025-11-22T17:45:23.663462,-0.1643353055552655,-0.0847327685954636,-9.62244344853357,-0.394415342383376,0.2404915899900621,-0.1873643639392562,23.663462,0.2563436437566692,0.4985028305212578,0.06571206369444611,0.2485050720377059,0.4704030701531347,1
2025-11-22T17:45:23.673077,-0.1706999694293375,-0.0737485249754996,-9.650911691806186,-0.4036914933614936,0.2119282096721287,-0.1987043823059094,23.673077,0.23833725713646287,0.49735683308349105,0.05680464813933242,0.24736381941483956,0.46945930419374043,1
2025-11-22T17:45:23.682692,-0.1766018227531544,-0.0623691194469981,-9.679712920129624,-0.4116225456486663,0.1827305613557402,-0.2095158738093634,23.682692,0.22259176185131554,0.4967096531352832,0.04954709244407277,0.24672047951777334,0.4689435524098303,1
2025-11-22T17:45:23.692308,-0.1819975419481985,-0.050612957636015,-9.708792966308318,-0.4182323189323401,0.1530610718295455,-0.219785555034795,23.692308,0.2097701116715323,0.4966403673797417,0.04400349975068714,0.2466516545110848,0.4688609770183842,1
2025-11-22T17:45:23.701923,-0.186844737899358,-0.0385008657445239,-9.73810118588362,-0.4235498134471032,0.1230853738261682,-0.2295001902706534,23.701923,0.20056105288109127,0.4972069901512544,0.04022473593277189,0.2472147910552696,0.4692134530028828,1
2025-11-22T17:45:23.711538,-0.1911028614286057,-0.0260566524270551,-9.767589063590789,-0.4276080424349253,0.0929688517422369,-0.2386467827443005,23.711538,0.19557536036225834,0.498441703977009,0.03824972158082721,0.24844413226350426,0.4699998814322189,1
2025-11-22T17:45:23.721154,-0.194734210523315,-0.0133075300968876,-9.797208640602149,-0.4304427759116366,0.0628730228393386,-0.2472128897696729,23.721154,0.19520833689344907,0.5003480920356785,0.03810629479270631,0.25034821320374384,0.4712165341831573,1
2025-11-22T17:45:23.730769,-0.197704975044202,-0.0002843457373188,-9.82691087006413,-0.4320911854123494,0.032951897140753,-0.2551869956589669,23.730769,0.19952827603458953,0.5029006092556199,0.03981153293733535,0.25290902278967364,0.47285740891079947,1
2025-11-22T17:45:23.740385,-0.1999862413195245,0.0129784126880099,-9.856644016797452,-0.4325904086182748,0.0033485076058737,-0.2625588520772825,23.740385,0.20825820644565554,0.5060462675841537,0.043371480551961286,0.2560828249358529,0.474914571447193,1
2025-11-22T17:45:23.75,-0.2015548835522046,0.0264428447359715,-9.886352214921631,-0.4319760843944052,-0.0258081817106747,-0.2693196892532199,23.75,0.22086262731241998,0.5097082447355393,0.048780300143344925,0.25980249475138445,0.47737846280408464,1
2025-11-22T17:45:23.759615,-0.2023942878893154,0.0400680852226879,-9.915974284496048,-0.4302809390932105,-0.054405799840449,-0.2754622196421607,23.759615,0.23668319308308702,0.5137909225097307,0.056018933888005856,0.2639811120534001,0.48023814986101815,1
2025-11-22T17:45:23.769231,-0.2024948783595703,0.0538109361912074,-9.94544288719736,-0.4275335329668522,-0.0823503748985192,-0.2809803957345306,23.769231,0.2550557312665908,0.5181857667325286,0.06505342605193538,0.2685164888441785,0.48348150239574905,1
2025-11-22T17:45:23.778846,-0.2018544308040973,0.0676266374996566,-9.9746840729244,-0.4237572898603646,-0.1095673219110036,-0.2858689355174514,23.778846,0.2753781012866004,0.5227774737251323,0.07583309866821315,0.2732962870344314,0.48709528405623775,1
2025-11-22T17:45:23.788462,-0.2004781674683955,0.0814697222089616,-10.003617233759128,-0.4189699206341935,-0.1360015697795455,-0.2901226784108818,23.788462,0.2971342948096204,0.527449893266675,0.0882887891520104,0.27820338990702687,0.49106515121500416,1
2025-11-22T17:45:23.798077,-0.198378627225918,0.0952948947022109,-10.032155441257864,-0.4131833115754365,-0.1616168416632056,-0.2937358685167745,23.798077,0.31989270951676624,0.5320913576886376,0.10233134560197818,0.28312121292693765,0.49537556111179454,1
2025-11-22T17:45:23.807692,-0.1955753125975746,0.1090578652562873,-10.06020610866378,-0.4064038991630314,-0.1863941540059611,-0.2967014761666421,23.807692,0.3432936641679303,0.5365991761659515,0.1178505398578437,0.2879386758619779,0.5000095980497394,1
2025-11-22T17:45:23.817308,-0.1920941243890033,0.1227160763965425,-10.087671906833627,-0.3986335084487444,-0.2103296472382355,-0.2990106660903997,23.817308,0.36703475858865814,0.5408831787006694,0.13471451401223455,0.2925546130013402,0.5049487322015357,1
2025-11-22T17:45:23.826923,-0.187966602971483,0.1362292616869586,-10.114451875432666,-0.3898705966154269,-0.2334319072404372,-0.3006525046636193,23.826923,0.3908578226613013,0.5448683015038447,0.15276983753553328,0.2968814659836846,0.5101725293281579,1
2025-11-22T17:45:23.836538,-0.1832290037379858,0.1495597879020789,-10.140442694896905,-0.3801118069927562,-0.2557189692855694,-0.3016139724703497,23.836538,0.41453857055380994,0.5484962766118994,0.17184222647679606,0.30084816545711723,0.5156583320413644,1
2025-11-22T17:45:23.846154,-0.17792124738616,0.1626727509961338,-10.165540099768888,-0.3693536981675801,-0.2772152014303689,-0.3018803156495394,23.846154,0.43787893158628394,0.5517265148883216,0.19173795872714552,0.3044021472308133,0.5213809349303401,1
2025-11-22T17:45:23.855769,-0.1720857994815536,0.1755358234113335,-10.189640411633809,-0.3575944799068523,-0.2979482424700519,-0.3014357313718822,23.855769,0.46070163670434644,0.5545362633755763,0.21224599806206362,0.3075104673985465,0.5273122770864126,1
2025-11-22T17:45:23.865385,-0.1657665395429336,0.1881188777793557,-10.21264215808628,-0.3448355845896291,-0.317946134616081,-0.3002643378397041,23.865385,0.48284656821717775,0.5569200997404334,0.2331408084391057,0.3101599974948943,0.5334211760833193,1
2025-11-22T17:45:23.875,-0.1590076744304027,0.2003934352749574,-10.234447737930957,-0.3310829451401665,-0.3372347602971949,-0.2983513327013564,23.875,0.5041684306086489,0.5588888242218379,0.254185806422388,0.31235671784006847,0.5396731272796014,1
2025-11-22T17:45:23.884615,-0.1518527380526155,0.2123320047711463,-10.25496509838756,-0.3163479288746563,-0.3558356746792306,-0.2956842114246598,23.884615,0.5245353897069402,0.5604678334780068,0.2751373750550117,0.31412419236353073,0.5460301915047027,1
2025-11-22T17:45:23.894231,-0.1443437044523777,0.2239073889983722,-10.274109400042905,-0.3006479562508641,-0.3737644123418503,-0.2922539123462335,23.894231,0.5438284169406249,0.5616950941683131,0.2957493470721462,0.3155013788127501,0.5524509926490477,1
2025-11-22T17:45:23.903846,-0.1365202263284346,0.235092032428728,-10.291804648711624,-0.2840068786820081,-0.3910293215165187,-0.2880557767669334,23.903846,0.561941143183697,0.5626188478474279,0.3157778484026003,0.3165399679531672,0.5588908441391698,1
2025-11-22T17:45:23.913462,-0.1284189993912889,0.2458574721496379,-10.30798526550491,-0.2664551895383533,-0.4076309375862971,-0.283090249869531,23.913462,0.5787800670259491,0.5632951614212542,0.3349863659865621,0.31730143888059686,0.5653020195395766,1
2025-11-22T17:45:23.923077,-0.1200732520901631,0.2561739308838698,-10.322597547708163,-0.2480301091474766,-0.4235618590474418,-0.277363290935364,23.923077,0.5942649792833049,0.5637854012316473,0.3531508656025868,0.31785397864192955,0.5716341773385799,1
2025-11-22T17:45:23.932692,-0.1115123726112272,0.2660100660404232,-10.3356009460406,-0.2287755405254336,-0.4388070462871613,-0.2708865005210612,23.932692,0.6083294649117371,0.5641536740804886,0.3700647378798004,0.31826936797851413,0.5778349430134455,1
2025-11-22T17:45:23.942308,-0.1027617004105522,0.275332868627258,-10.346969056410105,-0.2087418661769239,-0.4533444385202121,-0.263676999110584,23.942308,0.6209213350239646,0.5644642650267544,0.38554330428794253,0.318619906492194,0.5838506427006449,1
2025-11-22T17:45:23.951923,-0.093842513607567,0.2841076997466333,-10.356690211598996,-0.1879855674788349,-0.4671457887528565,-0.2557571012200466,23.951923,0.6320028434316133,0.5647791217408352,0.39942759410564427,0.31897545635434915,0.5896271729977557,1
2025-11-22T17:45:23.961538,-0.0847722316907529,0.2922984602042518,-10.36476757434847,-0.1665686855654794,-0.480177648343643,-0.2471538241128562,23.961538,0.6415505702117805,0.5651554775045992,0.41158713413906073,0.31940071375345147,0.5951109820730159,1
2025-11-22T17:45:23.971154,-0.0755648322102044,0.2998678984934714,-10.371218677993326,-0.1445581687379839,-0.4924024688414563,-0.2378982597994079,23.971154,0.6495549079964601,0.5656437372460048,0.42192157850228973,0.3199528374856273,0.600250129692338,1
2025-11-22T17:45:23.980769,-0.0662314596930167,0.3067780608506626,-10.376074417094374,-0.1220251408032866,-0.5037798056127908,-0.2280248323903803,23.980769,0.6560191452259474,0.5662857509402689,0.4303611189029827,0.32067955171798423,0.604995388515331,1
2025-11-22T17:45:23.990385,-0.0567811882341289,0.3129908726712125,-10.379377535775587,-0.0990440907326771,-0.5142675984672198,-0.2175704689080744,23.990385,0.6609581822431415,0.5671135721204208,0.43686571867415785,0.3216178036831837,0.6093013459829726,1
2025-11-22T17:45:24,-0.0472218858176349,0.3184688240601884,-10.38118068548473,-0.0756919600696209,-0.5238234743319395,-0.2065737317401741,24.0,0.6643969352570448,0.5681487584474919,0.44142328757895377,0.3227930117254265,0.6131274652082256,1
2025-11-22T17:45:24.009615,-0.0375611203692788,0.3231757255290599,-10.381544137190664,-0.0520471075398453,-0.5324059793028989,-0.1950739822922785,24.009615,0.6663684947800749,0.5694022187945103,0.4440469708354627,0.32421888676811134,0.6164390644322708,1
2025-11-22T17:45:24.019231,-0.0278070469343294,0.3270775059489487,-10.380533252893196,-0.0281881532807889,-0.5399756262596705,-0.1831106507642985,24.019231,0.6669121264992466,0.5708745565912265,0.4447717844717471,0.3258977593632295,0.6192081775252081,1
2025-11-22T17:45:24.028846,-0.0179692205284904,0.3301430383988453,-10.378215849569862,-0.0041927367107399,-0.5464956591308561,-0.1707226719388201,24.028846,0.6660712329649284,0.5725568226856828,0.44365088738341996,0.3278213152039244,0.6214142621588792,1
2025-11-22T17:45:24.038462,-0.0080592881111045,0.3323449913549808,-10.374659609986216,0.0198637430550983,-0.5519324767877221,-0.1579481212951679,24.038462,0.6638914163875812,0.5744315766406486,0.4407518127531087,0.3299716362418613,0.6230447273085644,1
2025-11-22T17:45:24.048077,0.0019084734541599,0.3336607041942158,-10.369929694473564,0.0439093049060112,-0.5562557002612316,-0.1448240596537948,24.048077,0.6604187795914304,0.5764741445937087,0.4361529644370343,0.3323224393850482,0.6240952577256789,1
2025-11-22T17:45:24.057692,0.0119167886288238,0.3340730744231253,-10.364086682698607,0.067876370450842,-0.5594378947608727,-0.1313865690216944,24.057692,0.6556985698502488,0.5786539469141723,0.42994061450366156,0.3348403902793497,0.6245699202543639,1
2025-11-22T17:45:24.067308,0.0219451800763676,0.3335714245613626,-10.35718493054869,0.0917024601369034,-0.5614539863017718,-0.1176709361200265,24.067308,0.6497742169731187,0.5809357702334002,0.42220653304302946,0.3374863691366739,0.6244810453568815,1
2025-11-22T17:45:24.076923,0.0319699141251643,0.3321522980753634,-10.349271376199644,0.1153305390295657,-0.5622804532785866,-0.1037119194034647,24.076923,0.642686758256435,0.5832808959655491,0.4130462692381653,0.34021660359837375,0.6238488864303234,1
2025-11-22T17:45:24.086538,0.0419640740501702,0.3298201217880327,-10.3403847856221,0.1387089833538912,-0.5618944178004841,-0.0895440291070353,24.086538,0.6344745958499853,0.5856480615242713,0.4025580127790022,0.34298365196713665,0.6227010686768816,1
2025-11-22T17:45:24.096154,0.0518977473862639,0.3265876660893757,-10.33055540117202,0.1617911609553347,-0.5602727930917376,-0.0752017582590236,24.096154,0.6251735067469485,0.5879942915431583,0.39084191353827685,0.3457372868873406,0.6210718479237367,1
2025-11-22T17:45:24.105769,0.0617383276931497,0.3224762334850627,-10.319804947841655,0.1845346385498264,-0.5573916518756675,-0.0607197204419797,24.105769,0.6148168231837225,0.5902756736101806,0.37799972606972476,0.3484253708559525,0.6190012075866947,1
2025-11-22T17:45:24.115385,0.0714509445482778,0.3175155175065101,-10.308146953364652,0.2069000582337947,-0.5532259627870996,-0.0461326757163897,24.115385,0.6034357194830656,0.5924481612492476,0.3641346675480451,0.3509948237676145,0.6165338285985394,1
2025-11-22T17:45:24.125,0.0809990381129467,0.3117431050294119,-10.295587342474228,0.2288497662620288,-0.5477497941368092,-0.031475455409143,24.125,0.5910595754484217,0.5944684657644299,0.3493514217292685,0.35339275678831517,0.6137179721892452,1
2025-11-22T17:45:24.134615,0.0903450819515332,0.3052036401870602,-10.282125268117005,0.2503463216617124,-0.5409370109038627,-0.0167828150487493,24.134615,0.5777164269545698,0.5962950556696875,0.33375626997315483,0.3555677934161158,0.6106043184567034,1
2025-11-22T17:45:24.144231,0.0994514343483743,0.2979477115250425,-10.26775414570256,0.2713510499476507,-0.5327624128692751,-0.002089241720711,24.144231,0.5634335519108615,0.5978892420883252,0.31745736741888947,0.3574715458049519,0.6072448041003314,1
2025-11-22T17:45:24.153846,0.1082812729165649,0.2900305525158396,-10.25246286376206,0.2918228222570533,-0.5232032066084948,0.0125712738112096,24.153846,0.5482382680375743,0.5992163147985203,0.30056519854083913,0.3590601919207194,0.6036915000776355,1
2025-11-22T17:45:24.163462,0.1167995478772566,0.2815106527216739,-10.236237150851377,0.311717222698368,-0.5122406818038188,0.0271655019402116,24.163462,0.5321590305191115,0.600246705544719,0.2831932337630407,0.36029610751728863,0.5999955646252532,1
2025-11-22T17:45:24.173077,0.1249738815941975,0.2724483613970954,-10.219061073751693,0.3309862199195393,-0.4998619592350731,0.0416612810367353,24.173077,0.5152269055887938,0.6009571685274862,0.26545876424260384,0.3611495184045734,0.5962063001842962,1
2025-11-22T17:45:24.182692,0.1327753478733641,0.2629045342696124,-10.200918625198495,0.3495783888320068,-0.486061675644423,0.0560278685486592,24.182692,0.49747746800580395,0.6013319586740354,0.2474838311734657,0.36160012452275186,0.5923703355114825,1
2025-11-22T17:45:24.192308,0.1401790822087661,0.252939244723833,-10.181795344923206,0.3674396427753291,-0.470843471815899,0.0702363272220207,24.192308,0.47895315221364204,0.6013639560999224,0.22939612201538417,0.3616386076961494,0.588530947435258,1
2025-11-22T17:45:24.201923,0.1471646972960446,0.2426105679913628,-10.16167991929337,0.3845143577872688,-0.4542211735390798,0.0842599146356822,24.201923,0.4597061016033897,0.6010556538709099,0.21132969985138605,0.361267899050187,0.5847275306860585,1
2025-11-22T17:45:24.211538,0.1537164977466626,0.2319734528659406,-10.140565719853385,0.4007467291077851,-0.4362196044177119,0.0980744198394622,24.211538,0.4398016076065434,0.6004199163883395,0.19342545405329997,0.36050407599578055,0.5809952189871799,1
2025-11-22T17:45:24.221154,0.1598234987558921,0.2210787103368648,-10.118452256047956,0.4160822055074725,-0.416875022685273,0.1116583817384864,24.221154,0.41932229406605404,0.5994804254446237,0.1758311863008183,0.359376780491267,0.5773646557652161,1
