Timestamp,Acceleration_X,Acceleration_Y,Acceleration_Z,Gyro_X,Gyro_Y,Gyro_Z,time_s,acc_mag,gyro_mag,acc_sq,gyro_sq,Energy,is_active
2025-11-22T17:45:42.528846,0.0314725074033082,0.0019418703959103,-9.773473776167256,0.0204803982606084,-0.0508160222023214,0.0463506758987795,42.528846,0.04120594779532055,0.07176419707384492,0.0016979301337106828,0.005150099981653652,0.0069959492501177655,0
2025-11-22T17:45:42.538462,0.0318744885960479,0.002070087817138,-9.773639404438867,0.0206072553852016,-0.0508266823515664,0.0475950413852742,42.538462,0.041414360856686996,0.0726174812138504,0.001715149285167888,0.005273298577843915,0.007049974843128802,0
2025-11-22T17:45:42.548077,0.0323228896315444,0.0022936630709001,-9.773649640293147,0.0207247628475204,-0.0504815136964661,0.0487758582659599,42.548077,0.0417656741965981,0.07319141595674636,0.0017443715410963806,0.005356983369753466,0.007125005570854359,0
2025-11-22T17:45:42.557692,0.0328135657515775,0.0026123328956967,-9.773516599076896,0.0207832115646085,-0.0497553127215575,0.04985533811267,42.557692,0.04224837162477351,0.0734376454230928,0.0017849249049449675,0.005393087765287904,0.007221712931392687,0
2025-11-22T17:45:42.567308,0.0333418330762532,0.0030237749373329,-9.773261344911305,0.0207401268349487,-0.0486380952245198,0.0507996580698032,42.567308,0.04284596508084079,0.07332409173121844,0.0018357767237086285,0.005376422428208136,0.007338885209238099,0
2025-11-22T17:45:42.576923,0.0339026954686922,0.0035237025167497,-9.772912524532686,0.0205637291295916,-0.047136461144935,0.05158046822532,42.576923,0.043537806176492534,0.07283719947476308,0.0018955405666618314,0.005305257627326428,0.0074730631133998965,0
2025-11-22T17:45:42.586538,0.0344911465599378,0.0041060387316121,-9.772504529451313,0.0202359910220565,-0.0452741175052716,0.0521763102826322,42.586538,0.044300108868696696,0.07198338977316505,0.0019624996457783795,0.005181608403235403,0.007618365064599722,0
2025-11-22T17:45:42.596154,0.0351025141197537,0.0047631443878144,-9.772075265816843,0.0197551099775156,-0.0430914669081118,0.0525738974016405,42.596154,0.045107259074196444,0.07078950189480679,0.0020346648211866775,0.005011153578514854,0.007766592848660903,0
2025-11-22T17:45:42.605769,0.0357327902132335,0.0054860557798102,-9.771663633606702,0.0191372284271724,-0.0406442498139859,0.0527691984054392,42.605769,0.045933416646461646,0.06930206963120275,0.0021098787648174398,0.004802776855168074,0.007907702126378579,0
2025-11-22T17:45:42.615385,0.0363788817347482,0.0062646840448211,-9.77130685040576,0.0184172634913904,-0.0380013097554095,0.052768244806051,42.615385,0.04675431676422782,0.06758537413930038,0.002185966136089754,0.004567782797549213,0.008030704039032423,0
2025-11-22T17:45:42.625,0.0370387278351759,0.0070879403018756,-9.771037782627651,0.0176487529892388,-0.0352416061455356,0.0525875587364355,42.625,0.04754909349813519,0.06571834309878995,0.0022609162924944024,0.004318900619650273,0.008125032884360462,0
2025-11-22T17:45:42.634615,0.0377112594445689,0.0079437702330332,-9.770882454562264,0.0169026744623344,-0.0324506277012898,0.0522541070034984,42.634615,0.04830190500103999,0.0637905583995032,0.0023330740267294915,0.004069235340920429,0.008182371186792433,0
2025-11-22T17:45:42.644231,0.0383962088948777,0.0088190988511479,-9.770857894503235,0.0162652387385801,-0.0297163780214368,0.0518047183394651,42.644231,0.04900313943850949,0.061897899448747455,0.002401307674830004,0.0038313499561672504,0.008198870176013055,0
2025-11-22T17:45:42.653846,0.0390938014647966,0.0096996982984868,-9.770970458370163,0.0158346832932775,-0.0271251253745211,0.0512849358985086,42.653846,0.049650012560814756,0.06013862545565891,0.002465123747289063,0.0036166542716960254,0.008177645567953695,0
2025-11-22T17:45:42.663462,0.0398043694532967,0.0105699982753715,-9.771214749298478,0.0157170940112089,-0.0247571266437006,0.0507473023600612,42.663462,0.05024642623177702,0.05861084422385402,0.0025247033490654095,0.0034352310606328824,0.008131372078012353,0
2025-11-22T17:45:42.673077,0.0405279253294992,0.0114128612593591,-9.771573220107088,0.01602129943518,-0.0226825416800922,0.0502490963416761,42.673077,0.05080204669812958,0.057412119067457044,0.0025808479487189383,0.0032961514158158646,0.008084752647990747,0
2025-11-22T17:45:42.682692,0.0412637197669848,0.0122093461966081,-9.77201650095466,0.0168529423042518,-0.020957745182158,0.0498495671795859,42.682692,0.05133068207590346,0.05664122258057955,0.0026348389223774765,0.0032082280954227544,0.008076607457128486,0
2025-11-22T17:45:42.692308,0.0420097979229437,0.0129384868279849,-9.772504446273787,0.018307929181664,-0.0196222204115238,0.0496067544887712,42.692308,0.0518481729440449,0.056400726021111354,0.00268823303763559,0.0031810418957084674,0.008161320272003413,0
2025-11-22T17:45:42.701923,0.0427625558396827,0.0135771160635283,-9.772987854630044,0.0204655437061721,-0.0186961919285094,0.0495740232147487,42.701923,0.05237012755409508,0.05679762186494557,0.0027426302600321883,0.0032259698495133433,0.008409400738163927,0
2025-11-22T17:45:42.711538,0.0435162905408751,0.014099779059643,-9.773410783634931,0.0233815486534176,-0.0181791339590476,0.0497964800945253,42.711538,0.05290990208719987,0.05793847735950252,0.0027994577388770767,0.003356867158737586,0.008906973185062046,0
2025-11-22T17:45:42.721154,0.0442627338348634,0.0144787931286555,-9.773713353905997,0.0270816058791442,-0.0180492735828118,0.0503074493578192,42.721154,0.053477217764855464,0.059916851675885216,0.002859812819869773,0.003590029114750029,0.009754083969046217,0
2025-11-22T17:45:42.730769,0.0449905609440754,0.0146845215227012,-9.773834909469096,0.0315553411930516,-0.0182641754911248,0.0511251716809092,42.730769,0.05407770066213667,0.06279413064596837,0.002924397708903657,0.0039431028435829435,0.011061824451498522,0
2025-11-22T17:45:42.740385,0.045684869706848,0.0146859204130421,-9.773717382468524,0.036751382765905,-0.0187624364034331,0.0522498654355441,42.740385,0.054713431283513685,0.06657883742625277,0.002993559562815774,0.004432741593031397,0.012948385056064935,0
2025-11-22T17:45:42.75,0.0463266322075652,0.0144513974351313,-9.77330870462762,0.0425736897043752,-0.019466442720883,0.0536612721826657,42.75,0.05538433883489799,0.07121090913274436,0.0030674249881787897,0.005070993579511974,0.015534273335507442,0
2025-11-22T17:45:42.759615,0.046892127052417,0.0139499989394866,-9.7725661177715,0.0488794440467998,-0.0202860752031211,0.0553168008320044,42.759615,0.056090034266694115,0.07655503479039481,0.00314609194403892,0.00586067335175856,0.018937029080279732,0
2025-11-22T17:45:42.769231,0.0473523703334406,0.0131529261073699,-9.771459256606198,0.055478703360348,-0.0211231906811437,0.0571503695464396,42.769231,0.0568315095246655,0.08240291530274918,0.0032298204748521455,0.006790240450392055,0.02326583569430296,0
2025-11-22T17:45:42.778846,0.0476725818990427,0.012035357130923,-9.76997290383423,0.0621359135665867,-0.0218766705067689,0.05907200993774,42.778846,0.05761207677508465,0.08848142644250553,0.0033191513903382476,0.007828962825300517,0.028616446704735014,0
2025-11-22T17:45:42.788462,0.0478117499611234,0.0105785132293967,-9.768109346493748,0.0685732789021845,-0.0224477961821642,0.0609682571372612,42.788462,0.05843699305701273,0.09446336068120788,0.0034148821575453537,0.008923326511187971,0.0350668149235879,0
2025-11-22T17:45:42.798077,0.0477223817796404,0.0087718549407306,-9.765890288788142,0.074475899543538,-0.0227457075293062,0.0627033254465128,42.798077,0.05931141172472075,0.09997866695390173,0.003517843560779342,0.009995733845879201,0.04267373494020537,0
2025-11-22T17:45:42.807692,0.0473505403763899,0.0066152511887331,-9.763358294575427,0.0794985382167078,-0.0226927348469773,0.0641210711540492,42.807692,0.06023661509951711,0.10462547280357308,0.003628449798647373,0.010946489559371211,0.051470700426297394,0
2025-11-22T17:45:42.817308,0.0466362626609314,0.0041209471786194,-9.760577736738384,0.083273866245262,-0.022229462598488,0.0650477587931436,42.817308,0.0612048857632836,0.10798100171262699,0.003746038041296595,0.011659896730862353,0.06146705302785566,0
2025-11-22T17:45:42.826923,0.0455144353792595,0.0013151739302697,-9.7576352227254,0.0854220436264787,-0.0213194363280201,0.0652956535126495,42.826923,0.06219379280833591,0.10961280158043818,0.0038680678638862154,0.01201496627031251,0.07264837690342839,0
2025-11-22T17:45:42.836538,0.0439161769920367,-0.0017607188176408,-9.754639455131809,0.085561483436315,-0.0199534343141711,0.0646674457161584,42.836538,0.06316098291738298,0.10909072153123309,0.0039893097630899444,0.011900785524205043,0.0849779877812295,0
2025-11-22T17:45:42.846154,0.0417707413080749,-0.0050496804184189,-9.751720482185798,0.0833206306738111,-0.0181532002080892,0.0629614736700931,42.846154,0.06404065850790594,0.10600006292633239,0.004101205942126225,0.011236013340386427,0.09839928870683287,0
2025-11-22T17:45:42.855769,0.0390079257695505,-0.0084789644461176,-9.749028298642992,0.0783505444377561,-0.0159745074336791,0.0599776575159977,42.855769,0.06474276368946075,0.0999565510736929,0.004191625450149357,0.009991312102547778,0.1128387214525758,0
2025-11-22T17:45:42.865385,0.0355609334591475,-0.0119607296132829,-9.746730770680523,0.0703380024174871,-0.0135094200310078,0.0555240085331263,42.865385,0.06515558175366905,0.09062480089491672,0.004245249833659051,0.008212854537243297,0.12820903255365174,0
2025-11-22T17:45:42.875,0.0313696026280465,-0.0153932205612649,-9.745010872612786,0.0590187577254971,-0.0108876184793012,0.0494235358607299,42.875,0.06515218598862663,0.0777459960164419,0.004244807339096596,0.0060444398965886,0.14441259225147246,0
2025-11-22T17:45:42.884615,0.0263838838581111,-0.0186624866948885,-9.744063233611866,0.0441905005144648,-0.0082766584833367,0.0415213383386979,42.884615,0.064601235058131,0.061199060032040745,0.004173319571035895,0.003745324948805327,0.1613445472620427,0
2025-11-22T17:45:42.894231,0.0205674173845736,-0.021644574635144,-9.744090002239355,0.0257250342449524,-0.0058810279392043,0.0316916432652919,42.894231,0.06338323215648564,0.04123983667984388,0.004017434118602956,0.0017007241293801965,0.17889564674253577,0
2025-11-22T17:45:42.903846,0.0139010435005917,-0.0242081216306265,-9.745296056556011,0.0035791664495457,-0.0039398750194743,0.0198445390057186,42.903846,0.06141492971266641,0.020546016061322402,0.0037717935916117555,0.0004221387759921181,0.196954646736927,0
2025-11-22T17:45:42.913462,0.0063860665581641,-0.0262172861680472,-9.7478836270879,-0.0221961810273452,-0.0027233055389627,0.0059321429298307,42.913462,0.0586876841050638,0.02313605768053763,0.0034442442656157585,0.0005352771649971643,0.2154102637156067,0
2025-11-22T17:45:42.923077,-0.0019529130850519,-0.0275349666804381,-9.752046454216911,-0.051449128163524,-0.0025271861206038,-0.0100460539074706,42.923077,0.05533110167691826,0.05248164114799285,0.0030615308127814665,0.002754322657586696,0.2341527059184486,0
2025-11-22T17:45:42.932692,-0.0110657840893759,-0.0280262646835354,-9.75796365393522,-0.0839227277940058,-0.0036664344156175,-0.0280389218892595,42.932692,0.05172018445541553,0.08855872696929881,0.002674977480102206,0.007842648122422812,0.25307485705020205,0
2025-11-22T17:45:42.942308,-0.0208755017268029,-0.0275621402806427,-9.765793504173594,-0.1192540219612142,-0.0064668317609845,-0.0479407597036029,42.942308,0.04863684309160662,0.12869210584922927,0.002365542505917562,0.01656165810790923,0.27207321711276017,0
2025-11-22T17:45:42.951923,-0.0312776153514078,-0.0260231915898254,-9.775667386808394,-0.1569766241587997,-0.0112554682436864,-0.0695899319554283,42.951923,0.04740856238406466,0.17207877477259895,0.0022475717873237508,0.029611104727238834,0.2910487181898019,0
2025-11-22T17:45:42.961538,-0.0421408760727903,-0.023303470991514,-9.787684129340304,-0.1965270786972285,-0.0183500298446192,-0.092769287018357,42.961538,0.049704988346653656,0.21809575161029468,0.0024705858665409757,0.04756575687045936,0.3099075290951554,0
2025-11-22T17:45:42.971154,-0.053309016949059,-0.0193142320378694,-9.801904985532303,-0.2372550941784166,-0.0280472508781006,-0.1172085128077781,42.971154,0.05673199993976947,0.266109871049609,0.003218519817166003,0.07081446347003952,0.32856194419501733,0
2025-11-22T17:45:42.980769,-0.0646037442949103,-0.0139874826905904,-9.818349477923178,-0.2784375501980334,-0.0406109603237268,-0.1425885120830392,42.980769,0.06860026814083811,0.31544920864816367,0.004705996788994888,0.0995082032367527,0.34693142225242507,0
2025-11-22T17:45:42.990385,-0.0758289051546885,-0.0072792058206844,-9.836992298230763,-0.3192959424203794,-0.0562602286885009,-0.1685477743736789,42.990385,0.08468435406102062,0.3654086266421761,0.0071714398227323,0.13352346442452126,0.3649438052138072,0
2025-11-22T17:45:43,-0.0867757011530162,0.0008278987913885,-9.857761421269108,-0.3590166713070908,-0.0751581652379471,-0.1946905797785813,43.0,0.10424533329618978,0.4152663505906521,0.010867089514033692,0.17244614193287838,0.38253670842750104,0
2025-11-22T17:45:43.009615,-0.0972287108216267,0.0103222909726682,-9.880537531066242,-0.3967733175551454,-0.0974019260271927,-0.220596695970434,43.009615,0.1266738560603794,0.4643049676565986,0.016046265809205717,0.2155791029905951,0.39965903614394627,0
2025-11-22T17:45:43.019231,-0.1069723873404798,0.0211622068236858,-9.905154787856024,-0.431749837837688,-0.123014471721202,-0.2458320671984073,43.019231,0.15148749143086127,0.5118338480295715,0.022948460060015264,0.26197388798875854,0.41627254209849046,0
2025-11-22T17:45:43.028846,-0.1157976512683457,0.0332751079376893,-9.93140289161915,-0.4631635285128359,-0.1519385497885483,-0.2699599075159167,43.028846,0.1782780097864127,0.5572110271004245,0.031783048773404265,0.31048412872230996,0.4323533268294018,0
2025-11-22T17:45:43.038462,-0.1235082138319536,0.046558016889943,-9.959030333302367,-0.4902866699240281,-0.1840332571559404,-0.2925516288649877,43.038462,0.20667020765205998,0.5998630793740976,0.04271257473094559,0.35983571399617487,0.4478931429136325,0
2025-11-22T17:45:43.048077,-0.129926330363616,0.0608787501775032,-9.987748676867332,-0.5124659358142096,-0.2190733796415302,-0.313197126327455,43.048077,0.2362977765666953,0.6393019012776916,0.05583663921036385,0.40870692097727135,0.4629003681163576,0
2025-11-22T17:45:43.057692,-0.134897767443759,0.0760780222424479,-10.017237686059117,-0.529138866830271,-0.2567515383225061,-0.3315140566490562,43.057692,0.2667910893825953,0.6751376619455548,0.07117748537395197,0.45581086257731024,0.47740050618164837,0
2025-11-22T17:45:43.067308,-0.1382958485079745,0.091972363991745,-10.047151096585534,-0.5398469332409818,-0.29668302700717,-0.3471558567008007,43.067308,0.297772265324026,0.7070874901209163,0.08866832199620214,0.4999727186854969,0.4914360866164599,0
2025-11-22T17:45:43.076923,-0.1400245062475641,0.1083577718580763,-10.077122835041411,-0.5442449399903531,-0.3384131024980873,-0.3598183519761769,43.076923,0.328854579979221,0.7349797473851479,0.10814533477330987,0.5401952290663359,0.5050658578451312,0
2025-11-22T17:45:43.086538,-0.14002031105923,0.1250139767027921,-10.106773499793048,-0.5421067361619109,-0.3814263852693874,-0.3692448961775275,43.086538,0.3596444939873885,0.7587539747012492,0.12934416205544474,0.5757075941249439,0.5183632007587256,0
2025-11-22T17:45:43.096154,-0.1382534710856052,0.1417091966706847,-10.13571694209961,-0.5333273546271969,-0.4251579436792445,-0.3752300534474082,43.096154,0.38974528079372694,0.7784567664792647,0.15190138390098107,0.6059949372773524,0.5314137296082582,0
2025-11-22T17:45:43.105769,-0.1347278243677178,0.1582052143724187,-10.16356681050816,-0.5179218188391022,-0.4690055789034922,-0.3776218838827733,43.105769,0.41876162935082417,0.7942339269128323,0.17536130221655705,0.6308075306593783,0.5443120918944099,0
2025-11-22T17:45:43.115385,-0.1294798734549714,0.1742625988911781,-10.189942943403176,-0.4960209276349219,-0.512342812927618,-0.3763229258200571,43.115385,0.44630481748705697,0.8063193307295571,0.19918799011215524,0.6501508631081608,0.5571580261161446,0
2025-11-22T17:45:43.125,-0.1225769435466341,0.1896458851514922,-10.21447751204166,-0.4678643844073094,-0.5545321110453147,-0.3712899894317428,43.125,0.47199817460703275,0.8150209817111628,0.22278227683237098,0.6642592006294276,0.5700517843775428,0
2025-11-22T17:45:43.134615,-0.1141145703876947,0.204128532681543,-10.236820827020034,-0.4337916810252976,-0.5949379280097072,-0.3625328863621835,43.134615,0.4954826212370664,0.8207048521882474,0.24550302794795417,0.6735564544053331,0.5830890748257251,0
2025-11-22T17:45:43.144231,-0.1042132430057425,0.2174975071299566,-10.256646724094784,-0.3942311764952448,-0.6329392344643345,-0.3501122192129293,43.144231,0.5164221105375104,0.8237771914099862,0.2666917962520166,0.678608861087325,0.5963557251947414,0
2025-11-22T17:45:43.153846,-0.0930146433097146,0.2295573497909898,-10.273657445751462,-0.3496878220545144,-0.6679412495892073,-0.3341363471480074,43.153846,0.5345088181020919,0.8246661047244728,0.2856996766288952,0.6800741842814351,0.6099223108873116,0
2025-11-22T17:45:43.163462,-0.0806775402188678,0.240133618976594,-10.287587939692662,-0.3007299793651585,-0.6993861709874577,-0.3147576415398246,43.163462,0.5494679420969864,0.8238033197099771,0.30191501939229715,0.6786519095651787,0.6238390258448993,0
2025-11-22T17:45:43.173077,-0.0673735047336423,0.2490756094604839,-10.298209507382628,-0.2479757627598014,-0.7267627430279735,-0.292168158825049,43.173077,0.5610619944486046,0.8216071424963811,0.314790561614646,0.6750382966010687,0.6381310983510168,0
2025-11-22T17:45:43.182692,-0.0532826103450725,0.2562582908751092,-10.305332754757869,-0.1920793154872653,-0.7496145365900689,-0.2665948839100853,43.182692,0.5690944923636077,0.8184676224703284,0.32386854123859227,0.6698892490322321,0.6527950627738309,0
2025-11-22T17:45:43.192308,-0.0385892721792075,0.2615834525841796,-10.308809819141477,-0.1337174010046929,-0.7675468369706927,-0.2382947209158923,43.192308,0.5734129983249089,0.8147348429345267,0.328802466647962,0.6637928642915479,0.6677961872209971,0
2025-11-22T17:45:43.201923,-0.0234783606898659,0.2649800919693849,-10.308535863552978,-0.0735766465860807,-0.7802320676482876,-0.2075494104978286,43.201923,0.5739114976025128,0.8107110213310111,0.3293744070803591,0.6572523601075712,0.6830673209661702,0
2025-11-22T17:45:43.211538,-0.0081317020266886,0.2664041233408072,-10.304449840501814,-0.0123417189168523,-0.787413722338819,-0.1746605245726692,43.211538,0.5705321402805802,0.806646754780119,0.3255069230931396,0.6506789869972975,0.6985093603067903,0
2025-11-22T17:45:43.221154,0.0072749522308249,0.2658375077970104,-10.29653453951626,0.0493153500311046,-0.7889088294680608,-0.1399446374255065,43.221154,0.5632664151308069,0.8027413322518735,0.31726905441431047,0.6443936465055128,0.7139934365929435,0
2025-11-22T17:45:43.230769,0.0225744376363317,0.2632869113336948,-10.284815950144507,0.1107445259991226,-0.7846090163151379,-0.103728721161598,43.230769,0.5521558733082118,0.7991466111519208,0.30487610842875407,0.6386353061155993,0.7293648099891279,0
2025-11-22T17:45:43.240385,0.0376101604309676,0.2587819978613973,-10.26936199110858,0.1713257178106761,-0.7744802631400735,-0.0663457866701512,43.240385,0.5372925881511762,0.7959735818390847,0.28868332528218943,0.6335739429857421,0.744448317044588,0
2025-11-22T17:45:43.25,0.0522375748656904,0.2523734622757502,-10.250280672810984,0.2304752551415274,-0.7585614425878212,-0.0281307911968586,43.25,0.5188196343586178,0.7933004770115984,0.26917381299600984,0.6293256468268297,0.7590550841926567,0
2025-11-22T17:45:43.259615,0.0663252008727268,0.2441309053889164,-10.2277177722016,0.2876509084993808,-0.7369617376240168,0.0105831543430209,43.259615,0.4969320113394984,0.791181174597941,0.24694142389391935,0.6259676510381776,0.7729901013593209,0
2025-11-22T17:45:43.269231,0.0797552386112923,0.2341406436791885,-10.201854101626695,0.3423555172120824,-0.709857029616268,0.0494682339365444,43.269231,0.47187864764433535,0.7896527140648504,0.2226694581026468,0.6235514088299844,0.78606016909207,0
2025-11-22T17:45:43.278846,0.0924238355751798,0.2225035327127534,-10.17290244323819,0.3941393359547745,-0.6774853475133115,0.0882049813130627,43.278846,0.4439664622751296,0.7887409783766409,0.19710621962509406,0.6221123309705408,0.7980817034614335,0
2025-11-22T17:45:43.288462,0.1042410568983429,0.2093328671606667,-10.141104202371949,0.4426012434761947,-0.640141473100693,0.126484895570374,43.288462,0.41356804046346696,0.7884639466187705,0.17103852409279185,0.6216753951176474,0.8088879099414371,0
2025-11-22T17:45:43.298077,0.1151306044765047,0.1947524048955035,-10.106725819291194,0.4873889826404178,-0.598170815120681,0.1640125873852939,43.298077,0.3811355185751667,0.7888323480196664,0.14526428351956125,0.6222564732822201,0.8183349141849512,0
2025-11-22T17:45:43.307692,0.1250293255436898,0.1788945477206796,-10.070054980785908,0.5281986202696948,-0.5519626959977479,0.200507450342691,43.307692,0.3472251201992353,0.7898479840265709,0.1205652840973734,0.6238598378708381,0.8263065505097593,0
2025-11-22T17:45:43.317308,0.1338865460167467,0.1618986955580428,-10.03139669444179,0.5647734249336201,-0.5019432239201397,0.2357048834585446,43.317308,0.3125399574874822,0.7915003560560167,0.09768122502627719,0.6264728136368012,0.8327176414001816,0
2025-11-22T17:45:43.326923,0.1416632606356114,0.1439097739562762,-9.991069319489611,0.5969023549623582,-0.4485679395877528,0.2693571245599444,43.326923,0.27800357426530065,0.7937624823187427,0.07728598730428253,0.6300588783368123,0.8375157361346192,0
2025-11-22T17:45:43.336538,0.1483312129575459,0.1250769194546962,-9.949400671570132,0.624418324734573,-0.3923144340213189,0.3012337810967691,43.336538,0.2448814921208615,0.7965868755381642,0.05996694518333955,0.6345506502796547,0.8406813978384029,0
2025-11-22T17:45:43.346154,0.1538719014274266,0.105552297388513,-9.906724320800942,0.6471963762108058,-0.333675134207694,0.3311221578363121,43.346154,0.21496029908638242,0.7999025740545513,0.04620793018330698,0.639844127979097,0.8422272237514764,0
2025-11-22T17:45:43.355769,0.158275548587498,0.0854900221178068,-9.863376180529432,0.6651518320677599,-0.2731504446238415,0.358827477432718,43.355769,0.19072554475181244,0.8036138896646994,0.03637623342087561,0.6457952836620277,0.8421958467721773,0
2025-11-22T17:45:43.365385,0.1615400693392484,0.0650451484010924,-9.819691443974568,0.6782384596497135,-0.211242414772396,0.3841730726095477,43.365385,0.17525358284055945,0.8076012107873228,0.030713818298452832,0.6522197156651498,0.8406571963714663,0
2025-11-22T17:45:43.375,0.1636700755805329,0.0443727039215068,-9.776001879843832,0.6864466393580664,-0.1484490753897917,0.4070006063954038,43.375,0.17126803631989523,0.8117238509963186,0.029332740264872953,0.6588956102762936,0.8377052966843824,0
2025-11-22T17:45:43.384615,0.164675957487289,0.0236267354807689,-9.73263346232122,0.6898015042981401,-0.0852595435143082,0.4271703578360551,43.384615,0.1794843837292267,0.8158246255820111,0.032214644002660296,0.6655698197060286,0.8334548539726799,0
2025-11-22T17:45:43.394231,0.1645730785894328,0.0029593442406035,-9.689904294248745,0.6883609993878648,-0.0221499373434625,0.4445615915927207,43.394231,0.19802555476403833,0.8197356244070598,0.03921412033960514,0.6719664939220322,0.8280378408592273,0
2025-11-22T17:45:43.403846,0.163381110714684,-0.0174803092158952,-9.648122777476653,0.6822138069885864,0.0404199244862032,0.4590730030733376,43.403846,0.22375352348075708,0.8232845625250744,0.05006563927005371,0.6777974708921032,0.8216002277491221,0
2025-11-22T17:45:43.413462,0.1611235238306562,-0.0375470401523334,-9.607585979171148,0.6714771086702833,0.1020091227650939,0.4706232012830246,43.413462,0.2537591881436712,0.8263011352899075,0.06439372556733512,0.68277356618139,0.8142989497918124,0
2025-11-22T17:45:43.423077,0.1578272408128231,-0.0571007147996159,-9.568578136708169,0.6562941918748857,0.1621976597036342,0.4791511744449532,43.423077,0.28587761084540925,0.8286229510905567,0.08172600838267925,0.6866159950740232,0.8062991370020456,0
2025-11-22T17:45:43.432692,0.1535224639043945,-0.0760073532327182,-9.531369246274698,0.6368319520189055,0.2205880418590668,0.484616684624046,43.432692,0.31860437303298816,0.830100807335729,0.10150874651574347,0.6890673503394291,0.7977715812580275,0
2025-11-22T17:45:43.442308,0.1482426704839885,-0.094140233544149,-9.49621369765226,0.6132783736385766,0.2768065524656343,0.4870005481352621,43.442308,0.3508908525711151,0.8306032536324026,0.12312439041808401,0.6899017649447333,0.7888903718950913,0
2025-11-22T17:45:43.451923,0.1420247598477788,-0.1113809552843939,-9.46334894424358,0.5858400941096504,0.3305043069465956,0.4863047670940246,43.451923,0.38198256891093424,0.8300205053340712,0.14591068295179663,0.6889340392750269,0.7798306063146232,0
2025-11-22T17:45:43.461538,0.1349093162853543,-0.127620409712571,-9.432994219777433,0.5547401620231942,0.3813581388400213,0.4825524809627909,43.461538,0.41131585832856266,0.8282678155671566,0.16918073531256222,0.6860275743043893,0.7707660768074713,0
2025-11-22T17:45:43.471154,0.1269409434227927,-0.1427596043675769,-9.405349322163218,0.5202160977221957,0.4290713243551945,0.4757877099109248,43.471154,0.4384557734518816,0.8252883948145109,0.1922434652732877,0.681100934615512,0.7618668494643478,0
2025-11-22T17:45:43.480769,0.1181686219712445,-0.156710297844065,-9.380593484445727,0.4825183334709026,0.4733741360284946,0.4660748718339945,43.480769,0.46305913872672405,0.8210559061058724,0.21442376595833548,0.6741328009513352,0.75329668131317,0
2025-11-22T17:45:43.490385,0.1086460432484854,-0.1693954109389526,-9.358884352359812,0.441909048861304,0.5140242227297319,0.4534980753814365,43.490385,0.48485233066754596,0.8155764914421422,0.23508178255375134,0.6651650133930747,0.7452102613853084,0
2025-11-22T17:45:43.5,0.0984318699939151,-0.1807491901301171,-9.340357088015772,0.398661345165464,0.5508068385770443,0.4381602141460801,43.5,0.5036176221107974,0.808890236566689,0.25363070930053394,0.6543034148129141,0.7377503044132017,0
2025-11-22T17:45:43.509615,0.087589877033301,-0.190717111770901,-9.325123611323043,0.3530586572949808,0.5835349691958887,0.4201818979127633,43.509615,0.5191845411833944,0.8010719712353899,0.26955258780381175,0.6417163030989533,0.7310445675651545,0
2025-11-22T17:45:43.519231,0.076188934257455,-0.1992555327223903,-9.31327197419412,0.3053942977515342,0.612049406433282,0.3997002503283208,43.519231,0.5314242110862667,0.7922313065809807,0.28241169212866096,0.6276304431270079,0.725202897044794,0
2025-11-22T17:45:43.528846,0.0643028132429369,-0.2063311140057088,-9.304865850505967,0.2559710440846839,0.6362187942288988,0.3768675875198819,43.528846,0.5402455056666113,0.7825117942005302,0.2918652063929726,0.6123247080629329,0.7203144391342309,0
2025-11-22T17:45:43.538462,0.052009817578975,-0.2119200660082213,-9.299944129794206,0.2051006950058519,0.6559396271097088,0.3518499837378636,43.538462,0.5455923467469115,0.7720890496316096,0.2976710088288021,0.5961215005610422,0.7164451664874423,0
2025-11-22T17:45:43.548077,0.0393922482094569,-0.2160072847868535,-9.298520623669738,0.1531035224976652,0.671136154982175,0.3248257390781063,43.548077,0.5474417422745306,0.7611676476920766,0.29969246118457354,0.5793761878930892,0.7136358728189482,0
2025-11-22T17:45:43.557692,0.0265357203816607,-0.2185854651892993,-9.3005839193485,0.1003075417925536,0.6817601446691542,0.2959837914344994,43.557692,0.5458023192159439,0.7499766013628106,0.2979001716615031,0.5624649025917122,0.7119007764352795,0
2025-11-22T17:45:43.567308,0.0135283522236198,-0.2196542815439059,-9.306097430625732,0.0470475145177122,0.6877904627954542,0.2655221455713594,43.567308,0.5407132028617022,0.7387632903193672,0.2923707677489603,0.5457711991234976,0.7112268465608168,0
2025-11-22T17:45:43.576923,0.0004598462115094,-0.2192197164276585,-9.314999693309687,-0.0063363975320861,0.6892324629334527,0.2336464027596845,43.576923,0.5322431709461939,0.7277858060016963,0.2832827930188594,0.5296721794175387,0.7115739297792505,0
2025-11-22T17:45:43.586538,-0.0125795175088716,-0.2172935942784056,-9.327204931825902,-0.0595003916527776,0.6861171741727818,0.2005684508929559,43.586538,0.5204900833492749,0.7173038246066149,0.27090992686493515,0.5145247767952773,0.7128757119585948,0
2025-11-22T17:45:43.596154,-0.0254999585188274,-0.2138933447503865,-9.342603901748696,-0.1120992269271825,0.6785002994563327,0.1665053263601113,43.596154,0.5055806577673705,0.7075683124238198,0.255611801508487,0.5006529167462922,0.7150415084200289,0
2025-11-22T17:45:43.605769,-0.0382133193687975,-0.2090419859373921,-9.361065001804413,-0.1637888615296966,0.6664610477150692,0.1316782079674205,43.605769,0.48767073143955597,0.6988106107781801,0.23782274230279152,0.4883362697361731,0.717958835728264,0
2025-11-22T17:45:43.615385,-0.0506341915692295,-0.2027682850218624,-9.382435644304897,-0.214229476498737,0.6501008474490692,0.0963114693242443,43.615385,0.4669462387830574,0.6912317119304608,0.21803878991364406,0.4778012795783156,0.7214966850798312,0
2025-11-22T17:45:43.625,-0.0626809829358692,-0.1951070311533431,-9.406543864372106,-0.2630888017163328,0.62954201211,0.060631707568781,43.625,0.44362528094160164,0.6849927492775011,0.196803389890515,0.46921506656274947,0.7255093911458933,0
2025-11-22T17:45:43.634615,-0.0742768603327841,-0.1860993511609545,-9.433200135669171,-0.3100456292937251,0.6049264380492573,0.0248666805606788,43.634615,0.4179619132846186,0.6802077914117205,0.17469216095653906,0.46268263949721067,0.7298409712021401,0
2025-11-22T17:45:43.644231,-0.0853505138398387,-0.1757930151365032,-9.462199353236583,-0.3547933748988642,0.5764144136744855,-0.010755887353124,43.644231,0.390252701896208,0.6769398823208602,0.15229717133729057,0.45824760427658007,0.7343297964527149,0
2025-11-22T17:45:43.653846,-0.0958367097449847,-0.1642427067000187,-9.493322946121207,-0.3970435274200017,0.5441836091335831,-0.0460096402918979,43.653846,0.36084783082993477,0.6752008961157856,0.13021115701466923,0.4558962501155599,0.7388134495757874,0
2025-11-22T17:45:43.663462,-0.105676624650398,-0.1515102573755176,-9.526341085089468,-0.436528813114274,0.5084282955184013,-0.0806710526111095,43.663462,0.3301698181201708,0.6749552245090691,0.10901210879750668,0.4555645550920879,0.7431336186013167,0
2025-11-22T17:45:43.673077,-0.1148179777250381,-0.1376648552518142,-9.561014947590524,-0.4730059001685383,0.4693588017875823,-0.1145209913576004,43.673077,0.2987451014753729,0.6761267069649385,0.08924863565553086,0.4571473238712518,0.7471408759889987,0
2025-11-22T17:45:43.682692,-0.1232149948457442,-0.1227832317203977,-9.59709900221062,-0.5062574950924095,0.4272011636533322,-0.1473463470319954,43.682692,0.2672573139325998,0.6786077155085074,0.07142647185046822,0.46050843154767535,0.7506991921130338,0
2025-11-22T17:45:43.692308,-0.1308282397218542,-0.1069498104268853,-9.634343286381746,-0.5360937381381301,0.3821968827756935,-0.1789416956858418,43.692308,0.23663566304736494,0.6822690698905349,0.055996437025866035,0.46549108372929565,0.7536900340450269,0
2025-11-22T17:45:43.701923,-0.1376243371350975,-0.0902567788910672,-9.672495662412894,-0.5623528793175336,0.3346027199517108,-0.2091109545887927,43.701923,0.20819246002483582,0.6869695280031274,0.04334410041119286,0.47192713240483963,0.7560159046388182,0
2025-11-22T17:45:43.711538,-0.1435756045712601,-0.0728040276422183,-9.711304030614905,-0.5849012857441951,0.2846904757533556,-0.2376689957567755,43.711538,0.18379705017788955,0.692563883402765,0.03378135565409365,0.47964473259391865,0.7576031858558286,0
2025-11-22T17:45:43.721154,-0.1486596084448246,-0.0546989030601341,-9.750518456559345,-0.6036328768058372,0.2327467296913993,-0.2644431783870134,43.721154,0.1659520181263851,0.6989090675748585,0.02754007232022005,0.4884738847383581,0.7584041669246228,0
2025-11-22T17:45:43.730769,-0.1528586674209018,-0.0360557364989002,-9.789893150192697,-0.6184681065042096,0.1790725032461137,-0.289274750644821,43.730769,0.1573783236446474,0.7058680057506185,0.024767936753199386,0.4982496415423552,0.7583981644221509,0
2025-11-22T17:45:43.740385,-0.1561593305507148,-0.0169951334347224,-9.829188229557513,-0.6293526251398778,0.1239828008768297,-0.3120200637963063,43.740385,0.15977022195394688,0.7133112798036845,0.02552652382321345,0.5088129818951702,0.7575916781148149,0
2025-11-22T17:45:43.75,-0.158551857702125,0.0023569749105434,-9.868171211503538,-0.6362557656866931,0.0678059790659148,-0.3325515487384594,43.75,0.17260232034762424,0.7211168994934145,0.0297915609893839,0.5200095827349953,0.7560175716071769,0
2025-11-22T17:45:43.759615,-0.160029728039761,0.0218704985587461,-9.906618193390228,-0.6391690109465941,0.0108828897362165,-0.3507584272749685,43.759615,0.1935336449444487,0.7291686609748579,0.03745527172548393,0.5316869361478672,0.7537333163015663,0
2025-11-22T17:45:43.769231,-0.1605892055983968,0.0414125387407211,-9.944314720358255,-0.6381045889150234,-0.0464342627099609,-0.3665471574078453,43.769231,0.21984228399413308,0.7373536639575343,0.04833062983175706,0.5436904257516004,0.7508183852103014,0
2025-11-22T17:45:43.778846,-0.1602289971904553,0.0608488678684028,-9.98105636439335,-0.6330942980263407,-0.1037834066074593,-0.3798416300687036,43.778846,0.24931370469523434,0.7455595547062381,0.062157323348862516,0.5558590496137641,0.7473709248308095,0
2025-11-22T17:45:43.788462,-0.1589500383726875,0.0800454715777965,-10.01664906239521,-0.624188587272351,-0.160794457758913,-0.3905831407859124,43.788462,0.2803733376330816,0.7536719710810692,0.07860920845551396,0.568021439993224,0.7435038657878739,0
2025-11-22T17:45:43.798077,-0.1567554345763603,0.0988700768359476,-10.050909262239893,-0.6114558458131645,-0.2170915372473402,-0.3987301614964428,43.798077,0.3119343139837884,0.7615725366703325,0.0973030162405367,0.579992728610485,0.7393406550896242,0
2025-11-22T17:45:43.807692,-0.1536505697678185,0.1171935907576022,-10.083663910227944,-0.5949818293092987,-0.2722955384468178,-0.4042579396368377,43.807692,0.343231771941996,0.7691376464753906,0.11780804927044235,0.591572719225703,0.7350108039243769,0
2025-11-22T17:45:43.817308,-0.1496433766180949,0.1348913845175658,-10.114750295111072,-0.5748691662843535,-0.3260270503239884,-0.4071579497921709,43.817308,0.37370653467023757,0.776238231451139,0.13965657405523746,0.602545791966392,0.730645444497742,0
2025-11-22T17:45:43.826923,-0.1447447421802851,0.1518443795603974,-10.144015761092472,-0.551236920761045,-0.3779096610851437,-0.4074372152153501,43.826923,0.4029325003929959,0.7827406588992591,0.16235459987295162,0.6126829390940464,0.7263730776952104,1
2025-11-22T17:45:43.836538,-0.1389690072931884,0.1679399296434348,-10.17131731934552,-0.5242202164396309,-0.4275736485894025,-0.4051175071048645,43.836538,0.4305725915599355,0.7885088806443002,0.18539275660263904,0.6217462548549273,0.7223156713205012,1
2025-11-22T17:45:43.846154,-0.1323345129701072,0.1830725273269104,-10.196521213049362,-0.493969945751732,-0.4746600134161577,-0.4002344270117129,43.846154,0.45635188833074275,0.7934078599356009,0.2082570459830347,0.6294960322075901,0.7185852379437605,1
2025-11-22T17:45:43.855769,-0.1248641533066678,0.1971443774843651,-10.219502510673356,-0.4606525910980803,-0.5188247537211852,-0.3928363906122236,43.855769,0.4800409553527051,0.7973081992231505,0.2304393188159378,0.6357003645484631,0.7152809844046313,1
2025-11-22T17:45:43.865385,-0.1165859059498487,0.2100658707437914,-10.240144808561894,-0.4244501749322078,-0.5597432410518131,-0.3829835590129058,43.865385,0.5014453071088408,0.8000917780963394,0.2514473960214797,0.640146853377362,0.7124870848489249,1
2025-11-22T17:45:43.875,-0.107533322099083,0.2217559719371105,-10.258340112687112,-0.3855603339530893,-0.5971145397044053,-0.3707467915870613,43.875,0.5203986792349412,0.8016581117387396,0.27081478534947123,0.6426557281165215,0.7102710893683241,1
2025-11-22T17:45:43.884615,-0.0977459660570547,0.2321425265587347,-10.273988940829188,-0.3441964861451509,-0.6306655181834505,-0.3562067058498971,43.884615,0.5367587377452504,0.8019310657361418,0.2881099425458745,0.6430934341927041,0.708682944612449,1
2025-11-22T17:45:43.894231,-0.0872697976795147,0.2411624857705597,-10.287000649978165,-0.300588032119294,-0.66015462503405,-0.3394529237537941,43.894231,0.5504043924327029,0.8008655202043574,0.3029449952092128,0.641385581452196,0.7077545745082957,1
2025-11-22T17:45:43.903846,-0.0761574866745832,0.2487620576598059,-10.297293965865943,-0.2549805072755377,-0.6853752287331015,-0.3205835673328071,43.903846,0.5612341869437458,0.7984535596359191,0.31498381259440744,0.6375280868952703,0.7074999504572088,1
2025-11-22T17:45:43.913462,-0.0644686352986368,0.2548968060493917,-10.304797684720786,-0.2076355843324321,-0.7061584372140707,-0.2997050423459542,43.913462,0.5691654321644234,0.7947297570478151,0.32394928917091487,0.6315953867372792,0.7079155713431089,1
2025-11-22T17:45:43.923077,-0.0522698710373145,0.2595317291146568,-10.309451530367369,-0.158830824790653,-0.7223753142250702,-0.2769321158188815,43.923077,0.5741338865013582,0.789775108671684,0.3296297196291545,0.6237447222773702,0.7089812733282252,1
2025-11-22T17:45:43.932692,-0.0396347618995557,0.2626413519624538,-10.31120716548265,-0.1088590944414279,-0.7339384051903887,-0.2523882566810209,43.932692,0.5760938813703059,0.7837191570750991,0.3318841601523041,0.6142157171665038,0.710661295971621,1
2025-11-22T17:45:43.942308,-0.0266435109230567,0.2642098633406168,-10.31002935295992,-0.0580275828738189,-0.7408024850616198,-0.2262061770837325,43.942308,0.5750188426838616,0.7767398256807014,0.3306466694414876,0.6033247567984864,0.7129055424190962,1
2025-11-22T17:45:43.951923,-0.0133824041407776,0.2642313198942935,-10.30589723753961,-0.0066563896848546,-0.7429644554233353,-0.198528491308819,43.951923,0.5709021755991779,0.7690604991855229,0.32592929410387456,0.5914540514074856,0.7156509845781874,1
2025-11-22T17:45:43.961538,5.698962133911125e-05,0.2627099272531806,-10.298805687020945,0.044923342624784,-0.7404623547910327,-0.1695083982856272,43.961538,0.5637584788982107,0.7609439550089243,0.3178236225296243,0.5790357026646238,0.7188231768460653,1
2025-11-22T17:45:43.971154,0.0135788469265848,0.2596603837062759,-10.288766617171683,0.0963717573227378,-0.7333735005355057,-0.1393102898256126,43.971154,0.5536250590533238,0.7526829104931705,0.3065007060117963,0.5665315637484701,0.7223378530402188,1
2025-11-22T17:45:43.980769,0.0270843084287801,0.2551082472226867,-10.275810227757695,0.1473430741339927,-0.7218118409527322,-0.1081101905022758,43.980769,0.5405637338953899,0.7445872202269295,0.29220915040292594,0.5544101285252659,0.7261025910419192,1
2025-11-22T17:45:43.990385,0.0404728360319286,0.2490902666067454,-10.259986086563051,0.1974888296479187,-0.705924652939264,-0.0760959452287082,43.990385,0.524662950098706,0.7369681447276913,0.2752712112062773,0.5431220463433755,0.7300185384326288,1
2025-11-22T17:45:44,0.0536436450822054,0.2416546013979814,-10.241364004677054,0.246461526497665,-0.6858887705728836,-0.0434670785890933,44.0,0.5060402865969161,0.7301205904250416,0.25607677165908904,0.5330760765626114,0.7339821989022864,1
2025-11-22T17:45:44.009615,0.0664971421401669,0.2328608466371468,-10.2200346506348,0.2939186095993248,-0.6619065643744033,-0.0104342504752758,44.009615,0.48484549244401126,0.7243047166860832,0.23507515154327577,0.5246173226137073,0.7378872817687033,1
2025-11-22T17:45:44.019231,0.0789362992552113,0.2227797916781999,-10.196109854071093,0.3395266532983037,-0.6342018975709406,0.0227817674260327,44.019231,0.46126434006165307,0.7197287017408589,0.2127647914125123,0.5180094041095822,0.7416266146480527,1
2025-11-22T17:45:44.028846,0.090867904260853,0.2114928821942205,-10.169722548321776,0.3829656271384276,-0.603016257430867,0.0559516572289404,44.028846,0.4355237972615563,0.7165346231984353,0.1896809779811252,0.5134218662421237,0.7450941124432037,1
2025-11-22T17:45:44.038462,0.1022036457444092,0.1990914036274834,-10.141026300601975,0.4239331046687289,-0.5686052014042594,0.0888396920229967,44.038462,0.4078993869866423,0.7147892298970283,0.16638190990407858,0.5109236431767868,0.7481867861494087,1
2025-11-22T17:45:44.048077,0.1128610188980326,0.185675434279625,-10.110194393128545,0.4621482787367406,-0.5312351853670606,0.1212064221214346,44.048077,0.37872620454625944,0.7144808258272483,0.14343353801001515,0.5104828504747867,0.7508067655090862,1
2025-11-22T17:45:44.057692,0.1227640654237836,0.1713526144034614,-10.07741845578794,0.4973556451065955,-0.4911807780380576,0.1528118313505035,44.057692,0.34841603555812617,0.7155226413148393,0.12139373383404144,0.5119726502341643,0.752863302771793,1
2025-11-22T17:45:44.067308,0.1318439765019213,0.1562367568893518,-10.042906698007368,0.5293282154260207,-0.4487222312153068,0.1834188388031313,44.067308,0.3174845228983357,0.717762126934006,0.10079642227998382,0.5151824708608281,0.7542747211265968,1
2025-11-22T17:45:44.076923,0.1400395887766216,0.1404463077940329,-10.006881826675484,0.557870122394337,-0.4041433722429834,0.212796992828921,44.076923,0.28659438585967806,0.7209947981402051,0.08213634200628603,0.519833498945235,0.75497026939096,1
2025-11-22T17:45:44.086538,0.1472977935950893,0.1241026639211974,-9.969578759461523,0.5828184908085812,-0.3577297976675381,0.2407261926987103,44.086538,0.25662242078748326,0.7249807592059713,0.06585506685082812,0.5255971012188665,0.754891842438417,1
2025-11-22T17:45:44.096154,0.1535738658829134,0.1073283718583916,-9.931242242590294,0.6040444776147844,-0.309767358075961,0.2670002794486448,44.096154,0.22875497355932087,0.7294619224414204,0.052328837928125586,0.5321146962919328,0.7539955233801573,1
2025-11-22T17:45:44.105769,0.1588317067986475,0.0902452644683485,-9.892124454093093,0.621453437084527,-0.2605409265968808,0.2914303559353668,44.105769,0.20459382660648373,0.7341781808639835,0.04185863388548393,0.539017601256748,0.7522528986571332,1
2025-11-22T17:45:44.115385,0.1630439886192191,0.0729726256618222,-9.852482628049062,0.6349842418749861,-0.2103334345990881,0.3138477191141089,44.115385,0.18617940962356866,0.7388812705251964,0.03466277256778057,0.5459455319329284,0.7496520922049377,1
2025-11-22T17:45:44.125,0.1661921925753468,0.0556254953435297,-9.81257669837558,0.6446078768351013,-0.1594251324532922,0.3341063116208953,44.125,0.17570490587130594,0.7433456229779831,0.03087221394724448,0.5525627152005258,0.7461984617862166,1
2025-11-22T17:45:44.134615,0.1682665364931788,0.0383132220286188,-9.77266695211184,0.6503254963802001,-0.1080929952968278,0.3520846238774118,44.134615,0.17472442815039071,0.7473760293488761,0.030528625792481046,0.5585709292452922,0.7419149018208133,1
2025-11-22T17:45:44.144231,0.1692657933426884,0.0211383424071727,-9.733011699713446,0.6521661704791543,-0.0566101689377525,0.3676869988479554,44.144231,0.1832625730773587,0.7508123295913717,0.03358517069093423,0.5637191542664225,0.7368417045334662,1
2025-11-22T17:45:44.153846,0.1691970021412383,0.004195826700499,-9.69386499527748,0.6501845305393209,-0.0052453670793282,0.3808443065687966,44.153846,0.19977454723445728,0.7535315676693987,0.0399098697227324,0.5678098234743015,0.7310359456048707,1
2025-11-22T17:45:44.163462,0.1680750716870984,-0.0124273099315182,-9.6554744541398,0.6444584807081871,0.0457378137798964,0.3915139652536408,44.163462,0.222016443447206,0.7554481226098178,0.04929130116094642,0.5707018659546982,0.7245703808527921,1
2025-11-22T17:45:44.173077,0.1659222784597551,-0.0286520550667894,-9.618079213532589,0.6350870825275244,0.0960816343976003,0.39967929496506,44.173077,0.24788367291483426,0.7565122746430518,0.061446315297748536,0.5723108216856042,0.7175318648661103,1
2025-11-22T17:45:44.182692,0.1627676637735356,-0.0444071394210357,-9.581908073028597,0.6221886631014033,0.1455349470182936,0.4053482087778061,44.182692,0.2757342833453145,0.7567075549080404,0.0760293950119542,0.572606323654905,0.7100193286915061,1
2025-11-22T17:45:44.192308,0.1586463431027515,-0.0596285038603725,-9.547177843265114,0.6058991470238138,0.1938538666141104,0.4085512837746331,44.192308,0.30437355927968174,0.7560471211765356,0.09264326358858194,0.5716072494393272,0.7021413795774792,1
2025-11-22T17:45:44.201923,0.1535987533364677,-0.0742585345882797,-9.514091918118435,0.5863705760490711,0.2408023530057128,0.409339305229256,44.201923,0.3329419442949653,0.7545693423899339,0.11085033827091179,0.5693748924747772,0.6940136094816857,1
2025-11-22T17:45:44.211538,0.1476698768256896,-0.088245129157303,-9.482839059196452,0.5637697573596705,0.2861527185411406,0.4077804249703814,44.211538,0.36081111085039397,0.7523327672186636,0.1301846577130953,0.5660045926308919,0.6857557179746782,1
2025-11-22T17:45:44.221154,0.1409084865624233,-0.1015406789960459,-9.453592351653812,0.5382769692925582,0.3296861013120657,0.4039571043673299,44.221154,0.38750996104490937,0.7494106772911426,0.15016396990902717,0.5616163632379692,0.6774885661583359,1
2025-11-22T17:45:44.230769,0.1333664536700973,-0.1141010625233489,-9.426508279430127,0.5100846552259946,0.3711929333276451,0.3979630191303132,44.230769,0.4126763002254187,0.7458854562496291,0.17030172876773988,0.5563451138447174,0.6693312789307769,1
2025-11-22T17:45:44.240385,0.1250981516301758,-0.1258847300089672,-9.40172588829443,0.4793960556259459,0.4104733979443487,0.3899000906967099,44.240385,0.4360261240402664,0.7418430220033058,0.1901187808455778,0.5503310692949972,0.6613985031884883,1
2025-11-22T17:45:44.25,0.116159981827092,-0.1368519346637023,-9.3793660463317,0.446423761142213,0.4473378496410405,0.379875782547846,44.25,0.4573341408400366,0.7373675721105236,0.20915451637789442,0.5437109364001682,0.6537979113047214,1
2025-11-22T17:45:44.259615,0.1066100279860667,-0.1469641400387343,-9.359530851667682,0.4113882003725655,0.4816071834854845,0.3680007606674269,44.259615,0.47642127068080525,0.7325368867452369,0.2269772271571131,0.5366102904424039,0.6466280157221772,1
2025-11-22T17:45:44.269231,0.0965078246399998,-0.1561836223332464,-9.342303260038062,0.3745160860864348,0.513113174872243,0.354386966595226,44.269231,0.49314641829142997,0.7274184153962151,0.243193389873666,0.5291375510575406,0.6399763354108179,1
2025-11-22T17:45:44.278846,0.085914206122162,-0.1644732827787138,-9.327747006444817,0.3360388336744589,0.5416988364453938,0.339146099871816,44.278846,0.5074008292104387,0.7220663433520829,0.2574556014834408,0.521379804201848,0.6339179314809761,1
2025-11-22T17:45:44.288462,0.0748911951155528,-0.1717966779128167,-9.315906878306606,0.2961909580164382,0.5672188509556568,0.3223884714800661,44.288462,0.5191039781378791,0.7165198078444199,0.2694689401185717,0.5134006350334045,0.6285143097010726,1
2025-11-22T17:45:44.298077,0.0635018932025579,-0.178118260224773,-9.306809364715445,0.2552084654110764,0.5895401426117539,0.3042221789176612,44.298077,0.528200348161749,0.7108024160859142,0.2789956077981928,0.5052400747135731,0.6238126733613437,1
2025-11-22T17:45:44.307692,0.0518103447041444,-0.1834038034840252,-9.300463661018762,0.2133272728555032,0.6085426500830474,0.2847525587564299,44.307692,0.5346567318509589,0.7049231887464043,0.2858578209135481,0.4969167020323987,0.6198455011934156,1
2025-11-22T17:45:44.317308,0.0398813535980568,-0.1876209727737679,-9.296862960518428,0.1707816887541047,0.6241203553040047,0.2640818819274491,44.317308,0.5384598706381651,0.6988789905848108,0.28993903228766954,0.4884318434808441,0.6166304214474001,1
2025-11-22T17:45:44.326923,0.0277802390468974,-0.1907399933686336,-9.29598593422912,0.1278029807545294,0.636182591131152,0.2423092673423974,44.326923,0.5396143671610887,0.6926584094545439,0.2911836652466622,0.47977567218809863,0.61417035394759,1
2025-11-22T17:45:44.336538,0.0155725203221854,-0.1927343755706773,-9.297798298038051,0.0846180534825128,0.6446555969358365,0.2195308051798343,44.336538,0.5381408666597273,0.6862469147899868,0.28959559236928234,0.4709348280587754,0.6124538962252594,1
2025-11-22T17:45:44.346154,0.0033235308328837,-0.1935816592270484,-9.302254384682874,0.0414482633773361,0.6494842299452983,0.1958399011821341,44.346154,0.5340745287071083,0.6796329821158344,0.2852356022137198,0.46190099037966215,0.611455936859135,1
2025-11-22T17:45:44.355769,-0.0089020258670146,-0.1932641457638858,-9.309298651640336,-0.0014916004095152,0.6506336882114149,0.1713278650964068,44.355769,0.527463827560122,0.6728147281873835,0.2782180893843741,0.4526796584658628,0.6111384875609578,1
2025-11-22T17:45:44.365385,-0.021040553289058,-0.1917695869966514,-9.318867053925413,-0.0439941459937963,0.6480910701502057,0.1460847574430294,44.365385,0.5183697436945838,0.6658064857354208,0.26870719117798847,0.4432982764473511,0.6114517328071041,1
2025-11-22T17:45:44.375,-0.0330300436107379,-0.1890918021296844,-9.330888205605191,-0.0858600057155383,0.6418665986332879,0.1202004791529175,44.375,0.5068654348581059,0.6586446888961677,0.25691256905389676,0.4338128262111295,0.6123352987176254,1
2025-11-22T17:45:44.384615,-0.0448105389142044,-0.1852311982120546,-9.345284264486382,-0.1268982531601892,0.6319943812637306,0.0937660486527185,44.384615,0.493036490852904,0.651392459646239,0.24308498131254572,0.42431213648397714,0.6137197391367892,1
2025-11-22T17:45:44.394231,-0.0563245530146689,-0.180195175703258,-9.361971503579731,-0.1669266105468488,0.6185326479956987,0.0668749738989156,44.394231,0.47698188675801123,0.6441423694178259,0.22751172029523226,0.41491939207921086,0.6155282264598132,1
2025-11-22T17:45:44.403846,-0.0675174370743876,-0.1739984126686631,-9.380860566493606,-0.2057714613707066,0.6015634730964887,0.0396246042588853,44.403846,0.45881577636385795,0.6370169666038883,0.21051191664036972,0.40579061574121933,0.6176784196144693,1
2025-11-22T17:45:44.413462,-0.078337672916578,-0.1666630361563521,-9.401856430180104,-0.2432677054693772,0.5811920312964461,0.0121173440219202,44.413462,0.4386703327189675,0.6301667904554876,0.19243166080776963,0.3971101837929705,0.6200844644389635,1
2025-11-22T17:45:44.423077,-0.0887370819921331,-0.1582186975350238,-9.42485811860669,-0.2792585165922577,0.5575454630914004,-0.0155383776026089,44.423077,0.41669996057771735,0.6237657442354732,0.1736388571454712,0.3890837036816337,0.6226590654933719,1
2025-11-22T17:45:44.432692,-0.0986709452079441,-0.148702564090899,-9.449758228818265,-0.3135950798047685,0.5307714475435173,-0.0432274624314135,44.432692,0.393087402845673,0.6180038973286974,0.1545177062759564,0.3819288171134592,0.6253155565044969,1
2025-11-22T17:45:44.442308,-0.1080980343062065,-0.1381592276553945,-9.476442343388277,-0.3461363905796445,0.5010366028193497,-0.0708278804650641,44.442308,0.3680525972728237,0.6130780267628522,0.13546271435927135,0.3758646668994325,0.6279698922627492,1
2025-11-22T17:45:44.451923,-0.1169805573351014,-0.1266405228452509,-9.504788406200865,-0.376749177400677,0.4685248363568277,-0.0982108153785396,44.451923,0.34186570160572655,0.6091804570179484,0.11687215793437566,0.3711008292125965,0.6305424891597163,1
2025-11-22T17:45:44.461538,-0.1252840229526426,-0.1142052500939438,-9.534666133627288,-0.4053079621911102,0.4334357362706013,-0.1252412186621966,44.461538,0.31486661652279185,0.6064869698055687,0.09914098620051086,0.3678264445439408,0.6329598535245592,1
2025-11-22T17:45:44.471154,-0.1329770336258137,-0.1009188129230879,-9.565936523959063,-0.4316952208545968,0.3959830459361482,-0.1517787483791373,44.471154,0.28749471141238825,0.6051447139627895,0.0826532090900924,0.3662001248371063,0.6351559535907985,1
2025-11-22T17:45:44.480769,-0.140031023449594,-0.0868527945250607,-9.598451516522704,-0.4558015852904878,0.3563932170111942,-0.1776790460552954,44.480769,0.260334182613715,0.6052611450374373,0.0677738866371511,0.36634105369202974,0.6370733088824792,1
2025-11-22T17:45:44.490385,-0.1464199590030611,-0.0720844992770421,-9.632053844176555,-0.4775260511044464,0.3149040051759297,-0.202795283347954,44.490385,0.23418132010549642,0.6068950394486886,0.05484089068635298,0.3683215889074253,0.6386637872600143,1
2025-11-22T17:45:44.5,-0.1521200226470229,-0.0566964665883567,-9.66657712564231,-0.4967761983166191,0.2717630613352361,-0.2269798916062539,44.5,0.21013484721864611,0.6100505093136133,0.044156654015603744,0.3721616239137989,0.6398891134775925,1
2025-11-22T17:45:44.509615,-0.1571093001823485,-0.0407759428560716,-9.70184625235749,-0.5134684601281291,0.2272264786961335,-0.2500863808835659,44.509615,0.18968439022718428,0.6146746538376513,0.03598016789585872,0.37782493007043644,0.6407211041831735,1
2025-11-22T17:45:44.519231,-0.1613674978004248,-0.0244142878269426,-9.737678122501478,-0.5275284726627624,0.1815572731766055,-0.27197116583506,44.519231,0.17469843505712282,0.6206590432426753,0.03051954321140776,0.38521764795891306,0.6411416542285611,1
2025-11-22T17:45:44.528846,-0.1648757113135082,-0.0077062945056963,-9.773882751704276,-0.5388915179228371,0.1350237836214356,-0.2924953394858778,44.528846,0.16710923916613452,0.6278447370597181,0.027925497814684345,0.39418901385358657,0.6411425090921133,1
2025-11-22T17:45:44.538462,-0.1676162619356209,0.0092505900793274,-9.810264749173482,-0.5475030465253535,0.0878979717818829,-0.3115263620616535,44.538462,0.1681848678023113,0.6360301200865259,0.028286149757680925,0.4045343136572806,0.640724867527915,1
2025-11-22T17:45:44.548077,-0.1695726042867593,0.0263571435087016,-9.84662510434731,-0.5533192400238464,0.0404535907847952,-0.3289396508034048,44.548077,0.17782988357958765,0.6449805952574205,0.0316234674939297,0.41599996825861646,0.6398988646880152,1
2025-11-22T17:45:44.557692,-0.1707293132372542,0.043513327855265,-9.882763197717576,-0.5563075521088328,-0.0070358088413029,-0.3446200620104304,44.557692,0.194657789456119,0.654439135656973,0.037891654995942756,0.4282905822794459,0.6386829860542019,1
2025-11-22T17:45:44.567308,-0.1710721682760272,0.0606192934987143,-9.918478933089236,-0.5564471667846219,-0.0542990504639154,-0.358463253009103,44.567308,0.2167432653830523,0.664136838356211,0.04697764308890824,0.4410777400617839,0.6371034552201832,1
2025-11-22T17:45:44.576923,-0.1705883669461501,0.0775763791149752,-9.953574880664656,-0.5537293353526144,-0.1010696733317667,-0.370376908280988,44.576923,0.24228852532694917,0.6738028716807473,0.05870372950510769,0.45401030988522156,0.6351936247359288,1
2025-11-22T17:45:44.586538,-0.1692668972369657,0.0942880612503289,-9.987858320232045,-0.5481575976489985,-0.1470884197928233,-0.38028181189583,44.586538,0.2698745439551134,0.6831734856947,0.07283226947498044,0.46672601155624655,0.6329933814377905,1
2025-11-22T17:45:44.596154,-0.1670990767450705,0.1106608134800619,-10.02114308658368,-0.5397479409076994,-0.1921058189084326,-0.3881127458733858,44.596154,0.29844963031118055,0.6919999919667342,0.08907218183288033,0.47886398888196025,0.6305485590795512,1
2025-11-22T17:45:44.605769,-0.1640792337669002,0.1266048406491201,-10.053251142923834,-0.5285289760120182,-0.2358847792118962,-0.3938191950275386,44.605769,0.32724138189041746,0.7000557591508665,0.10708692202155004,0.49007806592029596,0.6279103343205622,1
2025-11-22T17:45:44.615385,-0.1602054770752977,0.1420346595506981,-10.084013836844672,-0.514542199845311,-0.2782030576005311,-0.3973658468590854,44.615385,0.35567330363388,0.7071423003398782,0.1265034989178382,0.5000502329299745,0.62513456935891,1
2025-11-22T17:45:44.625,-0.1554804851262552,0.1568695113571086,-10.113272829654273,-0.4978423774199972,-0.3188554403533249,-0.3987328876554722,44.625,0.3833041750987174,0.7130944820261752,0.1469220906481082,0.5085037402961791,0.622281057651874,1
2025-11-22T17:45:44.634615,-0.1499122447301935,0.1710336170294045,-10.14088073313542,-0.4784980451372594,-0.3576554678659822,-0.3979161085496031,44.634615,0.40978757118432396,0.7177848161795239,0.16792585349714736,0.515215042337873,0.6194126295280662,1
2025-11-22T17:45:44.644231,-0.1435146830289394,0.1844563175926194,-10.16670152281459,-0.4565921169193216,-0.3944365500097057,-0.3949268433568311,44.644231,0.4348454946061471,0.7211267328425826,0.18909060417926468,0.5200237648202174,0.6165940821474281,1
2025-11-22T17:45:44.653846,-0.1363081571501475,0.1970721612061142,-10.190610806376904,-0.432222556301832,-0.4290523484939684,-0.3897917593535184,44.653846,0.45825118929090936,0.7230766706125923,0.20999415248653283,0.5228398715841913,0.6138909124166549,1
2025-11-22T17:45:44.663462,-0.1283197836096625,0.2088209939107945,-10.212496010815892,-0.4055030457006465,-0.461376357186988,-0.382552513517692,44.663462,0.47981781261489925,0.7236347757276039,0.23022513330254657,0.5236472886423397,0.6113678508686402,1
2025-11-22T17:45:44.673077,-0.119583601470403,0.2196480791788566,-10.2322565286929,-0.3765635422799205,-0.4913007007634662,-0.3732652764342604,44.673077,0.4993908519638993,0.7228439987553463,0.2493912230252292,0.5225034465366192,0.609087217213914,1
2025-11-22T17:45:44.682692,-0.1101405700168886,0.2295042311469179,-10.24980384595771,-0.3455505778206566,-0.5187342796400073,-0.362000119162719,44.682692,0.516842952081509,0.7207874450763204,0.267126637116329,0.5195345409796496,0.6071071415606306,1
2025-11-22T17:45:44.692308,-0.1000384030921285,0.2383459228646239,-10.265061661684504,-0.3126271561206379,-0.543600477799269,-0.3488402546358023,44.692308,0.5320703057004438,0.7175839612631003,0.2830988102081637,0.5149267414620426,0.6054797163054885,1
2025-11-22T17:45:44.701923,-0.0893312417158051,0.2461353338621259,-10.277965999804255,-0.2779721341146429,-0.5658346895828928,-0.3338811227774182,44.701923,0.5449900643963966,0.7133820907667413,0.2970141702907885,0.5089140074267271,0.6042491601268039,1
2025-11-22T17:45:44.711538,-0.0780791714876737,0.2528403224004407,-10.288465305581898,-0.2417790399152151,-0.5853819042016501,-0.3172293105473964,44.711538,0.5555384238817119,0.7083526758468902,0.30862294040897664,0.5017635133794495,0.6034500862318775,1
2025-11-22T17:45:44.721154,-0.0663476041975694,0.2584343336393034,-10.296520516752766,-0.2042543616395951,-0.6021945257578958,-0.2990013114854848,44.721154,0.5636691697643053,0.7026804930917148,0.3177229329427812,0.4937598753716154,0.6031059719416801,1
2025-11-22T17:45:44.730769,-0.0542065578975328,0.2628962743586812,-10.302105095928797,-0.1656154000512713,-0.616230527485554,-0.279322153000038,44.730769,0.5693525527723915,0.6965553738905783,0.32416232934843886,0.48518938889584334,0.6032279256036105,1
2025-11-22T17:45:44.740385,-0.0417298780046053,0.2662103906470434,-10.305205002604044,-0.1260877965500591,-0.6274519693475994,-0.2583239394921106,44.740385,0.5725744051762025,0.6901632879194267,0.32784144946288213,0.4763253639917535,0.6038138385714549,1
2025-11-22T17:45:44.75,-0.0289944406768341,0.2683661798521478,-10.305818576713609,-0.0859028396724646,-0.6358238710251096,-0.2361443626512224,44.75,0.5733354311632746,0.6836778867574265,0.32871351662717796,0.4674154528411005,0.6048479936388351,1
2025-11-22T17:45:44.759615,-0.0160793711418363,0.2693583625867121,-10.303956314,-0.0452946419760361,-0.6413134387067948,-0.2129252183510061,44.759615,0.5716506276495968,0.6772530397624619,0.326784440092178,0.45867167986749474,0.6063011775677738,1
2025-11-22T17:45:44.769231,-0.0030652971846844,0.2691869389225899,-10.299640537576591,-0.0044972752056226,-0.6438896811590619,-0.1888109528744578,44.769231,0.5675488269066981,0.6710169319121196,0.3221116709231691,0.4502637229127542,0.6081313166029858,1
2025-11-22T17:45:44.778846,0.0099663562109536,0.2678573469122541,-10.292904994483358,0.0362580436139378,-0.643523486331931,-0.1639472507297174,44.778846,0.561072384044727,0.6650682853732736,0.31480222013763365,0.44231582420934606,0.6102846232293281,1
2025-11-22T17:45:44.788462,0.022934038764888,0.2653807227387363,-10.28379441416779,0.0767456092868955,-0.6401882409736773,-0.1384796798668844,44.788462,0.5522770439873071,0.6594751656899771,0.305009933315358,0.4349074941618228,0.6126972128275677,1
2025-11-22T17:45:44.798077,0.0357567308136552,0.2617742342226259,-10.272364057563871,0.1167476120158538,-0.6338610603115057,-0.112552425488399,44.798077,0.5412320171419335,0.6542766212955742,0.29293209637952616,0.42807789717395217,0.6152971224095425,1
2025-11-22T17:45:44.807692,0.0483546031728128,0.2570614363156695,-10.258679273803644,0.1560561421946777,-0.6245246582545917,-0.0863071572151423,44.807692,0.5280202892936146,0.6494871004656361,0.2788054259057124,0.4218334936712592,0.6180066416662873,1
2025-11-22T17:45:44.817308,0.060649695607577,0.2512725870527195,-10.242815074888354,0.194474751278431,-0.6121698375118713,-0.0598820725537663,44.817308,0.5127392018656617,0.6451032486799714,0.26290148912983574,0.41615820145745297,0.6207448503409622,1
2025-11-22T17:45:44.826923,0.0725666193743179,0.244444863251519,-10.22485573416136,0.231819552798511,-0.5967985223169431,-0.0334111413292089,44.826923,0.4955013625281562,0.6411123814623367,0.24552160026725928,0.4110250856643088,0.6234302463378574,1
2025-11-22T17:45:44.836538,0.0840332818015763,0.2366224216107933,-10.204894407380763,0.2679198805825756,-0.5784271960279856,-0.0070235529408938,44.836538,0.4764359809958921,0.6375016971052648,0.22699124398751808,0.4064084138120928,0.6259833460153277,1
2025-11-22T17:45:44.846154,0.0949816281997728,0.2278562608278965,-10.183032764571012,0.3026185329131166,-0.5570905380298103,0.0191566456423207,44.846154,0.45569077676518954,0.6342671527811417,0.20765408402886182,0.4022948210970961,0.6283291409678752,1
2025-11-22T17:45:44.855769,0.1053483959419471,0.2182038556142951,-10.15938060904475,0.3357716369152327,-0.5328449886725191,0.0450107369891807,44.855769,0.43343468860932194,0.631420890179016,0.18786562928985986,0.398692340554461,0.630399303558392,1
2025-11-22T17:45:44.865385,0.1150758705465477,0.2077285563341445,-10.134055452750484,0.3672481789230598,-0.5057719319600936,0.07042536593778,44.865385,0.4098617506074996,0.6289961877852833,0.16798665461104417,0.3956362042484194,0.6321340467562765,1
2025-11-22T17:45:44.875,0.124112620303822,0.1964987772026809,-10.107182020249832,0.3969292578624118,-0.4759801886920969,0.0952924526227338,44.875,0.3851967101697485,0.6270491426526513,0.14837650552559722,0.39319062730142507,0.6334835633835266,1
2025-11-22T17:45:44.884615,0.1324141696437101,0.1845870241990581,-10.0788916684518,0.4247071200404319,-0.4436075533399634,0.1195090383741255,44.884615,0.35970327293051535,0.6256566226345043,0.12938644455692483,0.3914462094464145,0.634408995823471,1
2025-11-22T17:45:44.894231,0.1399435623050789,0.1720688309849937,-10.04932173170296,0.4504840320122743,-0.408821178713981,0.1429771239904432,44.894231,0.33369628275804997,0.6249104553835718,0.11135320912654044,0.3905130772477031,0.6348829179246324,1
2025-11-22T17:45:44.903846,0.1466717688613969,0.1590216711189386,-10.018614821785304,0.4741710574499157,-0.3718167104028164,0.1656035448179313,44.903846,0.30755965270270885,0.6249083068052526,0.09459293997061088,0.39051039191420767,0.6348893432341866,1
2025-11-22T17:45:44.913462,0.1525779060583733,0.1455238997904007,-9.98691811640127,0.4956868222108354,-0.3328161866911891,0.1872998922890193,44.913462,0.28177225744626255,0.6257421909130141,0.07939560506636287,0.39155328948861895,0.6344233047636215,1
2025-11-22T17:45:44.923077,0.1576492508732868,0.131653758179834,-9.954382654487594,0.514956364912038,-0.2920648306544077,0.2079824546382268,44.923077,0.2569435781459,0.6274859556244665,0.06602000235041823,0.39373862450595,0.6334900784031039,1
2025-11-22T17:45:44.932692,0.1618810453205137,0.1174884609117023,-9.92116263531572,0.5319101723408054,-0.249826956487086,0.227572131458764,44.932692,0.23385763934093104,0.6301833182843788,0.054689395478112975,0.39713101464391065,0.6321041417357779,1
2025-11-22T17:45:44.942308,0.1652760975897277,0.1031033863788946,-9.887414705488151,0.546483495871875,-0.2063812796910549,0.2459942858014667,44.942308,0.21351306155096203,0.6338380175677668,0.0455878274528649,0.40175063251423665,0.6302879692240021,1
2025-11-22T17:45:44.951923,0.16784419252838,0.0885713917903534,-9.853297216288286,0.558616042936441,-0.1620159455173096,0.2631785266880659,44.951923,0.19712218970289588,0.638407383210389,0.038857157673264475,0.40756398693753654,0.6280707618671377,1
2025-11-22T17:45:44.961538,0.169601330885467,0.0739622678201075,-9.818969441024745,0.568252130528235,-0.1170235721974976,0.2790584511575458,44.961538,0.18599695748050885,0.6438001393772678,0.03459486819200622,0.4144786194621894,0.62548719541359,1
2025-11-22T17:45:44.971154,0.1705688226646648,0.0593423332783028,-9.784590758175511,0.5753413557479947,-0.0716965628795353,0.2935714071008349,44.971154,0.18125308416059746,0.6498786377700408,0.032852680517728626,0.422342243829844,0.622576249533005,1
2025-11-22T17:45:44.980769,0.1707722682490038,0.0447741598508427,-9.75031982643581,0.5798397696177123,-0.0263228818187549,0.30665835954837,44.980769,0.18340123401609562,0.6564650805781396,0.03363601263862667,0.4309464020184633,0.6193801560046903,1
2025-11-22T17:45:44.990385,0.1702404733730523,0.0303164146081638,-9.716313790003204,0.5817114535243731,0.0188175897207812,0.3182639482263246,44.990385,0.19210488154287755,0.6633507801947226,0.03690428551260302,0.4400342575849472,0.615943481895261,1
2025-11-22T17:45:45,0.1690043539190439,0.0160238073230063,-9.682727550026437,0.5809303287353106,0.063456097245231,0.3283368050410716,45.0,0.20632998223118315,0.670307228565149,0.04257206156752035,0.4493117806666909,0.6123123469996956,1
2025-11-22T17:45:45.009615,0.1670958837368675,0.0019471277450245,-9.649713125503048,0.5774820024340104,0.1073375150013461,0.3368301533727926,45.009615,0.224746457845998,0.677097745885332,0.05051097031432296,0.45846135748299766,0.6085337636820429,1
2025-11-22T17:45:45.019231,0.1645471225890149,-0.011866641223765,-9.617419109209145,0.5713654698191097,0.1502223998424343,0.3437026502892434,45.019231,0.2460738799796523,0.6834886841286271,0.060552354408240326,0.46715678133188215,0.6046550795675633,1
2025-11-22T17:45:45.028846,0.1613893430194417,-0.02537414474886,-9.585990202968112,0.5625945338749735,0.1918886765095673,0.3489193840567217,45.028846,0.269240711051678,0.6892594651429272,0.07249056048761317,0.47507861028911413,0.6007234971628205,1
2025-11-22T17:45:45.038462,0.1576522662437989,-0.0385354213545786,-9.55556679565985,0.5511988502501858,0.2321329849938635,0.3524529178537026,45.038462,0.2934055335789946,0.6942110302659248,0.08608680713477454,0.48192895454287676,0.5967856390739749,1
2025-11-22T17:45:45.048077,0.1533634203588423,-0.0513136278259917,-9.526284534954556,0.5372245476505684,0.2707716675417805,0.3542842695515685,45.048077,0.31792071796262594,0.6981725103392448,0.10107358290987155,0.48744485419340283,0.5928871243295191,1
2025-11-22T17:45:45.057692,0.1485476429790437,-0.0636747463450228,-9.498273846618366,0.5207344231949983,0.3076413517661691,0.3544037250799232,45.057692,0.342285768315322,0.7010060921042478,0.11715954719121027,0.49140954116726915,0.5890721218745094,1
2025-11-22T17:45:45.067308,0.1432267576571694,-0.0755872951756837,-9.471659373062492,0.5018077621457211,0.3425991105747609,0.3528113995809308,45.067308,0.366107785493122,0.7026101795381056,0.13403491059867784,0.49366106439056895,0.5853828524047363,1
2025-11-22T17:45:45.076923,0.1374194549470888,-0.0870220506846612,-9.446559326566383,0.4805398558576724,0.375522221977163,0.3495174914247945,45.076923,0.38907229860339276,0.7029210262029865,0.1513772535405276,0.4940979690782596,0.5818590194449862,1
2025-11-22T17:45:45.086538,0.1311414024934093,-0.0979517707956537,-9.423084770589972,0.4570412782138835,0.4063075719905197,0.3445422158521754,45.086538,0.41092299401610216,0.7019130370299008,0.16885770701115754,0.49268191155253893,0.5785371644419789,1
2025-11-22T17:45:45.096154,0.1244055938770926,-0.1083509005465466,-9.401338851036652,0.4314369478739863,0.4348707344298135,0.3379154459882499,45.096154,0.4314480051291664,0.6995979161574054,0.18614738112993723,0.48943724429178403,0.5754499576703661,1
2025-11-22T17:45:45.105769,0.1172229259320094,-0.1181952437568099,-9.38141600526965,0.4038649760529478,0.4611447519431816,0.3296761174996384,45.105769,0.4504707433954084,0.6960228039199735,0.20292389065521185,0.4844477435766219,0.5726254555403476,1
2025-11-22T17:45:45.115385,0.1096029729300184,-0.1274615972708304,-9.363401186298168,0.3744752910182948,0.4850786577438695,0.3198714649718089,45.115385,0.4678437715517624,0.691267532786722,0.21887779457977763,0.4778508018850418,0.570086373171737,1
2025-11-22T17:45:45.125,0.1015549056950074,-0.1361273606873133,-9.347369146456249,0.3434280475162654,0.5066358094530147,0.3085561598838716,45.125,0.4834446677523307,0.6854411506783255,0.2337187467781614,0.46982957104322687,0.56784943537272,1
2025-11-22T17:45:45.134615,0.0930884855280457,-0.1441701498960866,-9.33338381676218,0.3108918650746634,0.525792133205272,0.2957914218953414,45.134615,0.49717316974913023,0.678677894421957,0.24718116071839746,0.46060368437702104,0.5659248757614943,1
2025-11-22T17:45:45.144231,0.0842150510177163,-0.1515674528936555,-9.321497793909206,0.277041970656626,0.542534385898701,0.2816441777849588,45.144231,0.508949141691333,0.671132815669114,0.25902922882834456,0.4504192562679529,0.5643161505418316,1
2025-11-22T17:45:45.153846,0.0749484179413858,-0.1582963698528773,-9.311751922593906,0.2420583306218391,0.5568585368387167,0.2661863388239389,45.153846,0.5187110863971033,0.6629772488178465,0.26906119115126315,0.43953883245008074,0.563019920184546,1
2025-11-22T17:45:45.163462,0.0653056318954101,-0.1643334756421773,-9.304174957462568,0.2061238480000136,0.568768351410141,0.2494942551175882,45.163462,0.5264150354816475,0.65439427077017,0.27711278958114416,0.42823186161682253,0.562026330227609,1
2025-11-22T17:45:45.173077,0.0553075430824237,-0.1696548299834407,-9.298783312354724,0.1694226875720184,0.5782742320739833,0.2316483858855712,45.173077,0.5320336959560246,0.6455742476495414,0.2830598536326276,0.4167661092282714,0.5613195943599201,1
2025-11-22T17:45:45.182692,0.0449792012096903,-0.1742361389575224,-9.295580939709584,0.1321387787969156,0.5853923380577222,0.2127331946839985,45.182692,0.5355557385039897,0.6367104981379581,0.2868199490445538,0.4054002584390867,0.5608788531267815,1
2025-11-22T17:45:45.192308,0.0343500885311737,-0.1780530496955558,-9.294559409111326,0.0944545303548856,0.5901439678765502,0.1928372370205945,45.192308,0.5369851096686764,0.627995032709159,0.28835300800588043,0.3943777611073777,0.5606792545393757,1
2025-11-22T17:45:45.201923,0.023454218113582,-0.1810815502751104,-9.295698259597868,0.0565497684428478,0.59255515507501,0.1720533651113606,45.201923,0.5363402591359113,0.6196142740149326,0.2876608735699765,0.383921848563052,0.5606931822521607,1
2025-11-22T17:45:45.211538,0.0123301213000834,-0.1832984537885337,-9.298965681606507,0.0186008932097652,0.5926564087853755,0.1504789441578442,45.211538,0.5336532050504097,0.6117446564845817,0.2847857432605746,0.3742315247374388,0.5608915449623968,1
2025-11-22T17:45:45.221154,0.0010207360122362,-0.1846819571879408,-9.304319541051225,-0.0192197589947911,0.5904825386986131,0.1282159607919733,45.221154,0.5289684154998711,0.6045480628085627,0.2798075845964442,0.36547836024558583,0.5612450377134072,1
2025-11-22T17:45:45.230769,-0.0104268046746691,-0.1852122638890612,-9.31170869995305,-0.0567443623601904,0.5860725375234891,0.1053709068144105,45.230769,0.5223415498045092,0.5981671755469179,0.2728406946521766,0.35780396990177726,0.5617252910819295,1
2025-11-22T17:45:45.240385,-0.0219614861731121,-0.1848722423284254,-9.321074536376624,-0.0938098817675965,0.5794695306218767,0.0820543446961327,45.240385,0.5138381579498917,0.5927209683484298,0.2640296525653379,0.3513181463199003,0.5623058368539141,1
2025-11-22T17:45:45.25,-0.0335288200535423,-0.1836480773147003,-9.33235254027417,-0.1302582296829834,0.5707208148165342,0.0583801115257095,45.25,0.5035324663451116,0.5883006818683351,0.25354494466359095,0.34609769228674797,0.5629628376723269,1
2025-11-22T17:45:45.259615,-0.04507132175527,-0.1815298705442948,-9.34547386499244,-0.1659363650046326,0.5598779895024838,0.0344641886156021,45.259615,0.49150638383392986,0.5849666833736993,0.24157852534950638,0.34218602065722575,0.5636755513716354,1
2025-11-22T17:45:45.269231,-0.0565290247419429,-0.1785121561380856,-9.360366735049514,-0.2006964163431677,0.5469971510451486,0.0104233308702103,45.269231,0.47784885495140467,0.5827465835257458,0.22833952817836858,0.33959358061092904,0.5644265254523251,1
2025-11-22T17:45:45.278846,-0.0678400007482009,-0.1745943043176693,-9.376957633810392,-0.2343959162176472,0.5321390970974959,-0.0136264131292857,45.278846,0.4626556823308129,0.5816348883397714,0.21405028039299004,0.33829914333401834,0.5652015402016516,1
2025-11-22T17:45:45.288462,-0.0789408695432183,-0.1697807900229744,-9.39517221204079,-0.2668982136551914,0.5153694759894075,-0.0375711602501084,45.288462,0.4460299490494016,0.5815943133460539,0.19894271544901176,0.33825194531646796,0.565989337542943,1
2025-11-22T17:45:45.298077,-0.0897672992783524,-0.1640813115253622,-9.414935873292697,-0.2980730899420298,0.4967588126889692,-0.0613005258766829,45.298077,0.42808320042775677,0.5825587003937901,0.18325522648847098,0.3393746394045017,0.5667811851527572,1
2025-11-22T17:45:45.307692,-0.1002545158360925,-0.1575107604285091,-9.436174013117531,-0.3277975519902343,0.4763823488020623,-0.0847087568112876,45.307692,0.40893759466121393,0.5844372941740406,0.1672299563272993,0.34156695082147404,0.5675703314152524,1
2025-11-22T17:45:45.317308,-0.1103378533157196,-0.1500890628210655,-9.458811917663716,-0.3559567413716173,0.4543196585793904,-0.1076956201502698,45.317308,0.3887293096502219,0.5871200051941218,0.1511104761811381,0.34470990049914557,0.5683514068577052,1
2025-11-22T17:45:45.326923,-0.119953382024542,-0.1418409231738688,-9.482774353123284,-0.3824448846838476,0.4306540457920852,-0.1301670327500934,45.326923,0.36761361833083955,0.5904832371819684,0.13513977238229216,0.3486704533928967,0.569119822841126,1
2025-11-22T17:45:45.336538,-0.1290386419526822,-0.1327955048049202,-9.50798489136944,-0.4071662215232386,0.4054717720438132,-0.1520354396842293,45.336538,0.3457722384488158,0.594395882214739,0.11955844088190475,0.3533064647938379,0.5698712102531325,1
2025-11-22T17:45:45.346154,-0.1375334921730738,-0.1229860767894515,-9.534365022015384,-0.4300358705284225,0.3788612010215056,-0.1732199662340552,45.346154,0.3234238366018643,0.5987251592197568,0.10460297808226941,0.3584718162827231,0.5706009318416657,1
2025-11-22T17:45:45.355769,-0.1453810652636735,-0.1124496513908958,-9.561833107089267,-0.4509806110065911,0.3509119665011809,-0.1936463782906477,45.355769,0.3008389055855098,0.6033420585063574,0.09050404711388728,0.36402163956268874,0.57130369289969,1
2025-11-22T17:45:45.365385,-0.1525287942982142,-0.1012266304313534,-9.590303249578293,-0.4699395496770625,0.3217142909015423,-0.2132468922484963,45.365385,0.2783605412697296,0.6081262224033792,0.07748459093597683,0.36981750237460426,0.5719732663533186,1
2025-11-22T17:45:45.375,-0.1589294613424548,-0.0893604757539918,-9.619684172286096,-0.4868646171299857,0.2913585916800837,-0.2319598729319809,45.375,0.256432575999488,0.6129701191816368,0.06575766603373319,0.37573236700955004,0.5726023394567353,1
2025-11-22T17:45:45.384615,-0.1645422041180172,-0.0768974205544516,-9.649878226275703,-0.5017208228089622,0.2599355037370713,-0.2497294441343649,45.384615,0.2356350932481675,0.6177823608770373,0.0555238971700726,0.38165504541080597,0.5731824800356329,1
2025-11-22T17:45:45.394231,-0.1693334145964235,-0.063886242044403,-9.680780648142946,-0.5144862034696056,0.227536407584177,-0.2665050213032741,45.394231,0.21672219793702843,0.6224899972824782,0.04696851107865653,0.3874937967167397,0.5737042109706552,1
2025-11-22T17:45:45.403846,-0.1732774708434859,-0.050378112929467,-9.712279156225517,-0.5251514188725975,0.1942544809155438,-0.2822407756290032,45.403846,0.20064391990976624,0.6270396092172575,0.04025798259675669,0.39317867152733105,0.5741571733551876,1
2025-11-22T17:45:45.413462,-0.1763572589219083,-0.0364265348301438,-9.74425393282108,-0.533718969309992,0.1601861959407856,-0.2968950566172558,45.413462,0.18851100556757283,0.6313970464098351,0.03553639922009748,0.3986622302150634,0.5745303527441822,1
2025-11-22T17:45:45.423077,-0.1785644603428573,-0.0220873373992541,-9.776578000233092,-0.5402020355092186,0.1254330965378442,-0.3104298226874795,45.423077,0.18144339900918247,0.635545730604144,0.0329217070440054,0.4039183756891552,0.5748123403971662,1
2025-11-22T17:45:45.432692,-0.1798995979332879,-0.0074187122592931,-9.809117968581072,-0.5446229809039179,0.0901036381782308,-0.3228101402622128,45.432692,0.1802832215687035,0.6394835757060008,0.03250203997919024,0.4089392435977324,0.5749916032502077,1
2025-11-22T17:45:45.442308,-0.1803718461620548,0.0075187562969771,-9.84173511051223,-0.5470116081125714,0.0543148682144747,-0.334003806384352,45.442308,0.18528991886670282,0.6432187396199623,0.03433235403362931,0.4137303469982929,0.5750567423346908,1
2025-11-22T17:45:45.451923,-0.1799986212959708,0.0226621039178315,-9.874286698349032,-0.547403310933994,0.0181937542921323,-0.343981132988868,45.451923,0.1960397617169354,0.646764576464301,0.03843158817403281,0.4183044173690466,0.5749967281558872,1
2025-11-22T17:45:45.461538,-0.1788049748846829,0.0379460786976101,-9.906627520379956,-0.545837288735056,-0.0181219814843685,-0.3527149085107708,45.461538,0.21161415839781406,0.650134262035403,0.04478055203441514,0.42267455867231807,0.5748011111865355,1
2025-11-22T17:45:45.471154,-0.1768228216624258,0.0533033382192572,-9.938611479427111,-0.5423549783119628,-0.0544836105850629,-0.3601805308919778,45.471154,0.23091275052484833,0.6533355961187033,0.053320698354950846,0.4268474011557814,0.5744602140371641,1
2025-11-22T17:45:45.480769,-0.1740900372241267,0.0686647558874654,-9.970093178742593,-0.5369988160161502,-0.0907317675861111,-0.3663562931514924,45.480769,0.25289104218327374,0.6563664491606418,0.06395387921654234,0.43081691558374935,0.5739653171443706,1
2025-11-22T17:45:45.490385,-0.1706494588234424,0.0839598202987782,-10.000929420754472,-0.529811392311468,-0.126697442140948,-0.3712238018242856,45.490385,0.2766642755146829,0.6592112440704813,0.07654312134606438,0.4345594643089516,0.5733088507293251,1
2025-11-22T17:45:45.5,-0.1665478156376308,0.0991170982733625,-10.030980571760155,-0.5208350217233846,-0.1622035671304282,-0.3747685138327039,45.5,0.3015201462497084,0.6618387688884714,0.09091439859444554,0.4380305560038074,0.5724846022118192,1
2025-11-22T17:45:45.509615,-0.1618346094364939,0.1140647315858638,-10.06011176526724,-0.5101117293510481,-0.1970671551485848,-0.3769803784013895,45.509615,0.32689346006559605,0.6642015099045833,0.10685933423365744,0.4411636457595282,0.5714879413308405,1
2025-11-22T17:45:45.519231,-0.156560968097354,0.1287309479073729,-10.08819392566551,-0.4976836431575273,-0.2311019085638759,-0.377854561207711,45.519231,0.35233326903829143,0.6662365722728577,0.12413873247120905,0.4438711702338867,0.5703160568996734,1
2025-11-22T17:45:45.528846,-0.1507784996266304,0.143044581759731,-10.11510460335807,-0.4835937642680104,-0.2641211931202523,-0.3773922093151833,45.528846,0.37747426319938715,0.6678681105921772,0.1424868193779202,0.44604781314596464,0.5689681915047238,1
2025-11-22T17:45:45.538462,-0.1445381766980793,0.1569356122378993,-10.14072863094202,-0.4678870548666716,-0.2959412330663577,-0.3756011940769507,45.538462,0.40201501322128763,0.669011036181523,0.16161607085531207,0.4475757665326751,0.5674458548729088,1
2025-11-22T17:45:45.548077,-0.1378892819528304,0.1703357255450101,-10.164958629830842,-0.4506117385297222,-0.3263843703339806,-0.3724967539342046,45.548077,0.4257023783847317,0.669575632614126,0.18122251496241726,0.44833152779060703,0.5657529934400998,1
2025-11-22T17:45:45.557692,-0.1308784484484691,0.1831789064313265,-10.1876954029193,-0.4318206681452279,-0.3552822335442565,-0.3681019573189324,45.557692,0.4483206502877295,0.669472632668144,0.20099140547441266,0.4481936058916157,0.5638960927482117,1
2025-11-22T17:45:45.567308,-0.1235488375030226,0.1954020600708708,-10.20884823994835,-0.4115726039798505,-0.3824786798383858,-0.3624479184825123,45.567308,0.4696841104797479,0.6686183085213679,0.22060316363715202,0.44705044248997516,0.5618841904268916,1
2025-11-22T17:45:45.576923,-0.1159394995623346,0.2069456624174877,-10.228335152875758,-0.3899332697205822,-0.4078323978384987,-0.355573720260883,45.576923,0.489631982147077,0.6669391952058661,0.2397394779412755,0.44480789010184835,0.5597287802547785,1
2025-11-22T17:45:45.586538,-0.1080849561276836,0.217754426131002,-10.24608306087433,-0.3669761042402923,-0.4312190843904191,-0.3475260224814172,45.586538,0.5080250437131775,0.6643761706500676,0.2580894450397759,0.44139569612764773,0.5574435918386509,1
2025-11-22T17:45:45.596154,-0.1000150233373223,0.2277779525967836,-10.262027952478872,-0.3427826760884155,-0.4525331227591903,-0.3383583614517206,45.596154,0.5247433939118874,0.6608877143545742,0.27535562945416625,0.4367725709848132,0.5550442359454691,1
2025-11-22T17:45:45.605769,-0.091754876491009,0.2369713279039145,-10.276115048749046,-0.3174427604627339,-0.4716887004804714,-0.3281301726992398,45.605769,0.5396850074383492,0.6564522424112735,0.2912599072537311,0.43092954656678945,0.5525477128051569,1
2025-11-22T17:45:45.615385,-0.0833253366598358,0.2452956179226728,-10.288298968505591,-0.2910540918015736,-0.4886203278119362,-0.3169055919226611,45.615385,0.5527648094308869,0.6510694765517234,0.30554893454516474,0.4238914632973351,0.5499717897775108,1
2025-11-22T17:45:45.625,-0.0747433503926123,0.2527182234308301,-10.298543867311391,-0.2637218065050752,-0.5032827581681444,-0.304752105017635,45.625,0.5639140506457921,0.6447608637381109,0.317999056515745,0.41571657140831486,0.547334265287237,1
2025-11-22T17:45:45.634615,-0.0660226301974945,0.259213067819037,-10.306823507246898,-0.2355575969618214,-0.5156503509256005,-0.2917391267829086,45.634615,0.5730798109551565,0.637569120952526,0.32842046972439787,0.4064943839921768,0.5446521473628705,1
2025-11-22T17:45:45.644231,-0.0571744207035686,0.2647606077500891,-10.31312122293801,-0.2066786214289825,-0.5257159350383785,-0.2779365916077584,45.644231,0.5802245110544568,0.6295570235201885,0.3366604832283835,0.39634204586359917,0.5419407867678809,1
2025-11-22T17:45:45.653846,-0.0482083497926336,0.2693476825024454,-10.317429769434671,-0.1772062416946175,-0.5334892401279332,-0.2634136386842315,45.653846,0.5853253670877279,0.6208055786417175,0.34260578535638336,0.38539956647267765,0.5392130156457925,1
2025-11-22T17:45:45.663462,-0.0391333191815319,0.272967245751692,-10.319751054544115,-0.14726466844204,-0.5389949856456359,-0.2482374657611295,45.663462,0.5883737694893845,0.611411740588935,0.34618369262314735,0.37382431652999115,0.5364783517333992,1
2025-11-22T17:45:45.673077,-0.0299583895170121,0.2756180399921829,-10.320095768166407,-0.1169795780774749,-0.5422707547355924,-0.2324724090170087,45.673077,0.5893745983126436,0.6014858386386702,0.34736241713619,0.36178521408286446,0.5337423341612593,1
2025-11-22T17:45:45.682692,-0.0206936203539875,0.2773042655557298,-10.318482927249535,-0.0864767408275432,-0.5433647947929294,-0.216179290137245,45.682692,0.5883455000830752,0.5911488919119782,0.34615042746800384,0.34945701240875965,0.531006057747494,1
2025-11-22T17:45:45.692308,-0.0113508323758306,0.278035267761976,-10.314939359128749,-0.0558806842319671,-0.5423338629486645,-0.1994150619922934,45.692308,0.5853161496960627,0.5805299619489452,0.3425949950950237,0.3370150367204438,0.5282659664320222,1
2025-11-22T17:45:45.701923,-0.0019442663478138,0.2778252378442044,-10.309499148526363,-0.0253134129877214,-0.5392411889403097,-0.1822327788735976,45.701923,0.580327515549546,0.5697636478600923,0.33678002530390855,0.3246306144228392,0.5255139519416703,1
2025-11-22T17:45:45.711538,0.0075088806030947,0.2766929140842339,-10.302203074109787,0.0051067867103183,-0.5341545904729559,-0.1646819079291998,45.711538,0.5734311463791066,0.5589877785721592,0.3288232796376564,0.31246733659303727,0.5227377815809688,1
2025-11-22T17:45:45.721154,0.0169880559615909,0.2746612818542978,-10.293098058355422,0.0352664152871294,-0.5271447629759589,-0.1468089789062668,45.721154,0.5646885061244712,0.5483413147554038,0.31887310894908694,0.3006781974676848,0.5199218517542158,1
2025-11-22T17:45:45.730769,0.0264690989355672,0.2717572916143096,-10.282236649396324,0.0650576400302771,-0.5182837736497921,-0.1286585389766653,45.730769,0.5541703932591479,0.5379624394012914,0.30710482476499856,0.2894035862065881,0.5170482351206876,1
2025-11-22T17:45:45.740385,0.0359241360312045,0.2680116206993935,-10.269676546222133,0.0943789189119122,-0.5076438065146922,-0.1102743437820704,45.740385,0.5419564839086758,0.5279867853689842,0.2937168304506548,0.2787700455242738,0.5140979628595104,1
2025-11-22T17:45:45.75,0.0453216246236458,0.2634584868448208,-10.255480171737885,0.1231353126609562,-0.4952962143391298,-0.0917006825558208,45.75,0.5281350308353552,0.5185457167347813,0.27892661079546155,0.2688896603439881,0.5110524621955123,1
2025-11-22T17:45:45.759615,0.054626546840923,0.2581354911234648,-10.239714298488224,0.1512384654527457,-0.4813109228317458,-0.0729837106763307,45.759615,0.5128027454024656,0.5097645533908125,0.262966655692306,0.25985989989373454,0.5078950547808257,1
2025-11-22T17:45:45.769231,0.0638007584486941,0.2520834471013775,-10.222449741387882,0.1786062779356518,-0.4657562070434338,-0.054172652275636,45.769231,0.49606490006835724,0.5017606233774131,0.24608038507982927,0.2517637231720902,0.5046124145669202,1
2025-11-22T17:45:45.778846,0.0728034930145515,0.2453461502595519,-10.20376113768206,0.2051623291936129,-0.4486988348577413,-0.03532074185473,45.778846,0.47803570823173136,0.4946410623148987,0.228518138344613,0.24466978052801147,0.5011958849134518,1
2025-11-22T17:45:45.788462,0.0815920117190141,0.2379700516803248,-10.183726820278467,0.2308351201092944,-0.4302045531269498,-0.0164857992911418,45.788462,0.45883905072924525,0.4885003498312962,0.21053327447411488,0.23863259178529878,0.4976425640796292,1
2025-11-22T17:45:45.798077,0.0901223785923483,0.2300038166700988,-10.162428757907538,0.2555572106527051,-0.4103388690493477,0.0022696213684054,45.798077,0.438609625252747,0.4834176522950364,0.19237840336435516,0.23369262655044473,0.49395608546126446,1
2025-11-22T17:45:45.807692,0.0983503300608825,0.2214977705163661,-10.139952503868749,0.2792643071397827,-0.389168044007766,0.0208785073122954,45.807692,0.4174946163167093,0.47945409768473457,0.1743017546534363,0.229876231786683,0.49014704237438633,1
2025-11-22T17:45:45.817308,0.1062321951024258,0.2125032575390437,-10.11638708369174,0.301894326910112,-0.3667601774234391,0.0392700254427263,45.817308,0.3956560380784656,0.4766501308742655,0.15654370046794822,0.22719534726245444,0.48623303417309816,1
2025-11-22T17:45:45.826923,0.1137258119102675,0.2030719601320038,-10.091824764531596,0.3233864448205149,-0.3431862392648626,0.0573704291574807,45.826923,0.37327399384423343,0.4750231085495999,0.13933347448042482,0.22564695365612497,0.48223833775559827,1
2025-11-22T17:45:45.836538,0.1207913841512964,0.1932552333660651,-10.066360674902224,0.3436801278910506,-0.3185209324734848,0.0751041387433969,45.836538,0.3505512128675729,0.47456532362507753,0.12288615284292641,0.22521224638737458,0.47819323284906223,1
2025-11-22T17:45:45.846154,0.1273922248190544,0.1831035020268225,-10.040092270793028,0.3627141952510596,-0.2928433235060542,0.0923949220286124,45.846154,0.32771934622995275,0.47524269712997025,0.10739996989338764,0.22585562117536864,0.4741330285921922,1
2025-11-22T17:45:45.855769,0.1334953459764068,0.172665743535209,-10.013118668481354,0.3804259837031665,-0.2662372355334048,0.1091671257054621,45.855769,0.30504759176756696,0.47699439828553936,0.09305403324319218,0.22752365599578375,0.4700968522037131,1
2025-11-22T17:45:45.865385,0.1390718671742937,0.161989053490235,-9.98553988295416,0.3967507288454568,-0.2387914201069904,0.1253469217954084,45.865385,0.28285417772529003,0.47973360728606307,0.08000648585664996,0.23014433395969858,0.46612626872132457,1
2025-11-22T17:45:45.875,0.1440972319350627,0.1511182725848691,-9.957456019207068,0.4116212718045537,-0.2105995074631493,0.1408635314252017,45.875,0.2615208262164192,0.48334951994524433,0.06839314254491853,0.23362675843129815,0.4622638051257165,1
2025-11-22T17:45:45.884615,0.1485512384000434,0.1400956505158246,-9.928966458992685,0.4249681760952485,-0.1817597158227774,0.1556503690421989,45.884615,0.24150902523249568,0.4877105518365085,0.05832660926875023,0.23786158237267166,0.4585514533155331,1
2025-11-22T17:45:45.894231,0.1524179079102477,0.1289605333200952,-9.900169072719342,0.4367203035195662,-0.1523743083608701,0.1696460290037132,45.894231,0.22337385911380217,0.4926685787742143,0.04989588093539274,0.24272232851140424,0.45502922434980114,1
2025-11-22T17:45:45.903846,0.1556852321902181,0.1177490783489147,-9.87115947769059,0.4468058673356582,-0.1225488230317998,0.1827950363884331,45.903846,0.2077652719761857,0.49806397424457205,0.043166408239338414,0.24806772244029773,0.45173382088014064,1
2025-11-22T17:45:45.913462,0.1583448477072113,0.1064940156807649,-9.84203037018999,0.4551539627245509,-0.0923911400734454,0.1950483143900871,45.913462,0.19539861358142357,0.5037311758213374,0.03818061818954249,0.25374509749434715,0.4486974857728733,1
2025-11-22T17:45:45.923077,0.160391680872582,0.0952244777754447,-9.81287097710448,0.4616965624072365,-0.0620104720516626,0.2063633696232695,45.923077,0.1869728710598475,0.5095045188268691,0.03495885451236236,0.2595948547049994,0.44594707290734054,1
2025-11-22T17:45:45.932692,0.1618235993630653,0.0839659090971793,-9.783766689870692,0.4663709401275069,-0.03151635454992,0.2167042436450509,45.932692,0.18303188672766274,0.5152240906763818,0.033500671559087966,0.2654558636133044,0.4435033716799551,1
2025-11-22T17:45:45.942308,0.1626411028068558,0.0727400517132358,-9.754798949571406,0.4691224364638432,-0.0010176883886828,0.226041308271002,45.942308,0.18381071352160855,0.5207413649099668,0.03378637840532285,0.2711715691282952,0.44138070090049997,1
2025-11-22T17:45:45.951923,0.1628470856263958,0.0615649926419447,-9.726045442544873,0.4699074246483294,0.0293781480546022,0.2343509873660937,45.951923,0.189152579111143,0.5259243753641835,0.03577869818439721,0.27659644860220656,0.4395867717894593,1
2025-11-22T17:45:45.961538,0.1624466932176484,0.0504552598406729,-9.697580636133562,0.4686962915095571,0.0595661188089027,0.2416154714687492,45.961538,0.19855575407865808,0.530662201629091,0.039424387477744544,0.28160237223783396,0.4381228047592234,1
2025-11-22T17:45:45.971154,0.1614472669929231,0.0394219642751503,-9.669476631858334,0.4654762291840229,0.0894442886549098,0.2478224625433888,45.971154,0.21131886077167952,0.5348685573572531,0.04465566091784048,0.2860843736494292,0.43698387159204954,1
2025-11-22T17:45:45.980769,0.1598583464485515,0.0284730010255306,-9.641804248794406,0.4602536338423899,0.1189145213322172,0.2529649540037324,45.980769,0.2266964896423573,0.5384842976381999,0.051391298416167415,0.2899653388029055,0.43615942463953594,1
2025-11-22T17:45:45.990385,0.1576916833852935,0.0176133390566293,-9.614634196724968,0.4530559225738227,0.1478831188140378,0.2570410231311725,45.990385,0.24400282323245714,0.5414786915306127,0.05953737774540973,0.29319917338170437,0.4356339686816992,1
2025-11-22T17:45:46,0.1549612300506576,0.006845441943399,-9.588038177949198,0.4439326025769189,0.1762614082590437,0.260053595362693,46.0,0.2626550149936406,0.5438493469089037,0.06898765690130956,0.2957721121332411,0.4353878293260739,1
2025-11-22T17:45:46.009615,0.1516830813756907,-0.0038301363922566,-9.562089773995842,0.4329554567232109,0.2039662845708103,0.2620101398120203,46.009615,0.2821767225654122,0.5456207346796301,0.07962370275775761,0.29770198611233933,0.4353979738159654,1
2025-11-22T17:45:46.019231,0.1478753693392841,-0.0144139503755254,-9.53686501864056,0.4202177537046258,0.2309207068892931,0.2629222738533867,46.019231,0.30218356215666503,0.5468413439810926,0.09131490523769104,0.2990354554870477,0.4356388448709299,1
2025-11-22T17:45:46.028846,0.1435581165886223,-0.0249066524199889,-9.512442611592606,0.4058324561621227,0.2570541298371901,0.2628052800520823,46.028846,0.3223639647989891,0.5475796045911404,0.10391852580092388,0.2998434233641897,0.4360831744108437,1
2025-11-22T17:45:46.038462,0.1387530556844413,-0.0353078041532352,-9.488903769913374,0.3899294820830909,0.2823028312159665,0.2616775570294067,46.038462,0.34246155385678545,0.5479188200482041,0.11727991587000396,0.3002150333630163,0.4367027505384122,1
2025-11-22T17:45:46.048077,0.133483414784026,-0.0456145730412068,-9.4663317432561,0.3726521603639493,0.3066100810686139,0.2595600334101697,46.048077,0.36226097892907155,0.5479514443641051,0.13123301685464922,0.30025078538070904,0.43746911740730315,1
2025-11-22T17:45:46.057692,0.1277736666985639,-0.0558204028314215,-9.444811043382108,0.3541531005022373,0.3299260875748291,0.2564755755702667,46.057692,0.38157728205065483,0.5477730941930985,0.14560122217716498,0.30005536272188116,0.4383541937225036,1
2025-11-22T17:45:46.067308,0.1216492398208131,-0.0659137568888657,-9.424426463060987,0.3345897625299465,0.352207660244673,0.2524484199736532,46.067308,0.40024822616104955,0.5474767117166418,0.16019864254506666,0.29973074987206694,0.4393308020316144,1
2025-11-22T17:45:46.076923,0.1151361976076682,-0.0758770311089902,-9.40526197645805,0.3141200516040067,0.373417553153762,0.2475036605808727,46.076923,0.4181288976849991,0.5471472725180839,0.17483177507927244,0.2993701378239784,0.44037310764922677,1
2025-11-22T17:45:46.086538,0.1082609064169896,-0.0856857245402588,-9.387399610226558,0.2928982501446666,0.393523485447186,0.2416668210252659,46.086538,0.43508797833244545,0.5468573588430233,0.18930154888941453,0.2990529709207672,0.4414569720778646,1
2025-11-22T17:45:46.096154,0.1010497232680228,-0.0953079452195983,-9.370918349066962,0.2710715335209055,0.4124968751353257,0.2349635414151245,46.096154,0.45100522631334145,0.5466638035174094,0.20340571416194833,0.2988413140761208,0.44256022979430665,1
2025-11-22T17:45:46.105769,0.093528737989778,-0.1047043125222718,-9.355893101943074,0.2487772137591861,0.4303113617466645,0.2274194094834352,46.105769,0.46576985174275415,0.546605486565811,0.21694155479246718,0.29877755794384697,0.4436628985359841,1
2025-11-22T17:45:46.115385,0.0857235963486952,-0.1138282922157521,-9.342393721264076,0.2261407494695721,0.4469412338322646,0.2190599561363642,46.115385,0.47927958585594893,0.5467022676490675,0.22970892141824992,0.2988833694526326,0.4447473321384126,1
2025-11-22T17:45:46.125,0.077659417949544,-0.1226269696605238,-9.330484049459224,0.2032744725162125,0.4623599122099338,0.2099108084458768,46.125,0.4914403185500693,0.5469549772128632,0.2415135866965936,0.29915974709792376,0.44579832261019475,1
2025-11-22T17:45:46.134615,0.0693608127766701,-0.1310422348576105,-9.320220970264764,0.1802769262120156,0.4765386525024424,0.1999979575046102,46.134615,0.5021662145537102,0.5473463624244815,0.252170907039203,0.29958804045931187,0.44680315545602717,1
2025-11-22T17:45:46.144231,0.0608519954206798,-0.1390123209317332,-9.311653462395618,0.1572326882187368,0.4894456098619701,0.1893480760512161,46.144231,0.5113802220537025,0.5478428763449822,0.2615097315076941,0.3001318171619434,0.44775161972106553,1
2025-11-22T17:45:46.153846,0.0521569924185547,-0.146473605834418,-9.30482168140007,0.1342125582903542,0.5010453641307928,0.177988826210003,46.153846,0.5190148709581844,0.5483972009186545,0.2693764362757408,0.3007394899754151,0.44863597196057675,1
2025-11-22T17:45:46.163462,0.0432999306014326,-0.1533625609585534,-9.299756118710064,0.1112740178321061,0.5112989544675826,0.1659491259374956,46.163462,0.5250132377967958,0.5489514006572547,0.2756388998618748,0.30134764028356176,0.44945085156473685,1
2025-11-22T17:45:46.173077,0.0343053797117094,-0.1596177165530971,-9.29647689533472,0.0884619029221639,0.5201644278448194,0.1532593738886023,46.173077,0.529329945730026,0.5494406027483454,0.2801901914465523,0.3018849759484651,0.4501931440139551,1
2025-11-22T17:45:46.182692,0.025198702715152,-0.1651815139568695,-9.29499324222766,0.0658092626622664,0.5275978618365753,0.1399516484757269,46.182692,0.5319320751443193,0.5497970778184899,0.28295173256734174,0.3022768267777506,0.45086178907312746,1
2025-11-22T17:45:46.192308,0.0160063528530135,-0.1700019253784584,-9.295303211757686,0.0433383949469368,0.5335547751177804,0.1260598964288264,46.192308,0.5327998742737711,0.5499545544999226,0.28387570602614626,0.3024500120152083,0.451457532785654,1
2025-11-22T17:45:46.201923,0.006756060857829,-0.1740337403932069,-9.297393662706652,0.0210620620378938,0.5379917979804223,0.111620121671607,46.201923,0.5319271730613133,0.5498525590678649,0.28294651744100036,0.30233783671347986,0.4519826253539446,1
2025-11-22T17:45:46.211538,-0.0025231199431435,-0.177239446979252,-9.301240557578092,-0.0010151101376013,0.5408684588452382,0.0966705860676704,46.211538,0.5293214232437335,0.5494405540482804,0.2801811691047717,0.30188492243288134,0.4524404714238906,1
2025-11-22T17:45:46.221154,-0.0118009132299255,-0.1795896781744799,-9.306809594025996,-0.022895048713054,0.5421489627138927,0.0812520353841302,46.221154,0.5250033243748817,0.5486816693506235,0.2756284906046773,0.3010515742813869,0.4528352446001573,1
2025-11-22T17:45:46.230769,-0.0210460472950368,-0.1810632487276968,-9.314057161405684,-0.0445844702280335,0.5418038824286017,0.0654079554502205,46.230769,0.5190060486426679,0.5475558625714808,0.26936727852767534,0.2998174226363984,0.4531714836555944,1
2025-11-22T17:45:46.240385,-0.0302265882589127,-0.1816468531966719,-9.322931576494527,-0.0660929447535995,0.539811723816892,0.0491848385787986,46.240385,0.511374135658057,0.5460623800101866,0.26150350662002486,0.29818412286238943,0.45345369296326726,1
2025-11-22T17:45:46.25,-0.0393103573350325,-0.1813345236404382,-9.333374514666644,-0.0874308094438723,0.5361603370606208,0.0326324059262547,46.25,0.5021621821884866,0.5442213955675623,0.25216685722030285,0.29617692739350515,0.4536859730045669,1
2025-11-22T17:45:46.259615,-0.0482654114099861,-0.1801269510127305,-9.345322520628592,-0.1086069833456126,0.5308481306001736,0.0158037079132357,46.259615,0.49143349363597055,0.5420746920646083,0.2415068786672555,0.29384497177693997,0.453871707419271,1
2025-11-22T17:45:46.269231,-0.0570605655867189,-0.1780307663464773,-9.35870847009594,-0.1296267782014692,0.5238850221921101,-0.0012449687793309,46.269231,0.4792588823131565,0.5396852490585434,0.229689076276056,0.29126016805138205,0.4540133306136972,1
2025-11-22T17:45:46.278846,-0.0656659345633337,-0.1750578588617566,-9.373462870457002,-0.1504898357392428,0.5152930519008271,-0.0184544227211779,46.278846,0.4657157843471909,0.537135630652133,0.21689119179011923,0.28851468571606464,0.4541121947612442,1
2025-11-22T17:45:46.288462,-0.0740534661262748,-0.1712247813581593,-9.38951492516188,-0.1711883269079382,0.5051065871142129,-0.0357630754370462,46.288462,0.4508878333480763,0.534525121187417,0.20329983826132264,0.28571710518042287,0.45416854796969197,1
2025-11-22T17:45:46.298077,-0.0821974347104781,-0.1665522677586405,-9.406793322510298,-0.1917055174244213,0.4933720708759594,-0.0531076753662353,46.298077,0.43486499904110504,0.5319656294481847,0.18910756739102028,0.28298743091420336,0.45418162749217317,1
2025-11-22T17:45:46.307692,-0.0900748586498768,-0.161064869551153,-9.425226734354483,-0.2120147566456504,0.4801473052118453,-0.0704240993498661,46.307692,0.4177443871638861,0.5295764774864449,0.17451037300693079,0.28045124550695105,0.4541498638991326,1
2025-11-22T17:45:46.317308,-0.097665804521598,-0.1547907033428816,-9.444744029328684,-0.2320789084335658,0.465500312193454,-0.0876481804857983,46.317308,0.3996318004261607,0.5274783066007451,0.15970557591185475,0.2782333639343897,0.4540711844123423,1
2025-11-22T17:45:46.326923,-0.1049535452333515,-0.1477612868659009,-9.465274226496811,-0.2518502224894709,0.4495078543696733,-0.1047164968716488,46.326923,0.3806441750514837,0.5257864494498631,0.14488998800062455,0.2764513904250934,0.4539433962550537,1
2025-11-22T17:45:46.336538,-0.1119245415650636,-0.1400114282213712,-9.486746239665326,-0.271270635146144,0.4322537112183333,-0.1215670626844373,46.336538,0.3609130385576998,0.5246042118438781,0.1302582214009517,0.2752095790843365,0.45376462443620696,1
2025-11-22T17:45:46.346154,-0.1185682191036105,-0.131579126192304,-9.50908848509471,-0.2902724774565901,0.4138268133851078,-0.1381398727931223,46.346154,0.34058919321584985,0.5240165713988055,0.1160009985354235,0.2745933671005595,0.4535337739882488,1
2025-11-22T17:45:46.355769,-0.124876520252497,-0.122505438578945,-9.53222843910052,-0.3087795478978748,0.3943193484708817,-0.1543772721886335,46.355769,0.3198489278055135,0.5240848213284945,0.10230333661833658,0.27466489994692006,0.45325098530338204,1
2025-11-22T17:45:46.365385,-0.1308432332439865,-0.1128342800612679,-9.5560922317764,-0.3267084807354597,0.373824965226759,-0.1702241536776115,46.365385,0.2989022011335856,0.5248426416617832,0.08934252584250248,0.27545979850651897,0.45291805282497577,1
2025-11-22T17:45:46.375,-0.1364631373405695,-0.10261212000681,-9.580604348794136,-0.3439703222512161,0.3524371956038293,-0.1856280224848568,46.375,0.2780033934921813,0.5262939503417607,0.07728588679316858,0.2769853221663357,0.45253878082759463,1
2025-11-22T17:45:46.384615,-0.1417310421186905,-0.0918875657440557,-9.605687490438958,-0.360472224878063,0.3302481749628799,-0.2005389913164819,46.384615,0.2574652683573618,0.5284126881643606,0.06628836441032832,0.2792199690130858,0.45211925383854623,1
2025-11-22T17:45:46.394231,-0.1466408207906111,-0.0807108420492193,-9.631262612389046,-0.3761191829181635,0.3073476836515517,-0.2149097744919286,46.394231,0.23767641095449044,0.5311444714737911,0.05649007632420782,0.28211444957717285,0.45166800234452165,1
2025-11-22T17:45:46.403846,-0.1511845362387713,-0.0691332080224187,-9.657249150774405,-0.390815759566734,0.2838224869702817,-0.2286957337958197,46.403846,0.21912090133949388,0.5344098620835205,0.048013969403832214,0.28559390069212737,0.45119604675465624,1
2025-11-22T17:45:46.413462,-0.1553517435947419,-0.0572063729934142,-9.68356541682908,-0.4044677867045361,0.2597559356959261,-0.2418549997935361,46.413462,0.2023950234249208,0.5381088900362673,0.04096374550717424,0.2895611775360636,0.45071680512320306,1
2025-11-22T17:45:46.423077,-0.1591290396351721,-0.044981974083812,-9.710129133283534,-0.4169840397685261,0.2352278006808904,-0.2543486637028412,46.423077,0.18820786894297983,0.5421264154809923,0.035422201932057876,0.29390105036226943,0.45024585419275925,1
2025-11-22T17:45:46.432692,-0.1624999208548086,-0.0325111629148972,-9.73685807344509,-0.4282778860649205,0.2103143275692417,-0.266141017638516,46.432692,0.1773417685740272,0.5463379039960565,0.03145010288096382,0.29848510534280426,0.4498005398472366,1
2025-11-22T17:45:46.442308,-0.1654449987762893,-0.0198443249831037,-9.76367075535696,-0.4382688819836913,0.1850884927873527,-0.2771998180676714,46.442308,0.17054518131702012,0.5506152033991422,0.02908565887045527,0.3031771022142787,0.4493994422731102,1
2025-11-22T17:45:46.451923,-0.1679425914232933,-0.0070309288496654,-9.79048714107225,-0.4468842720950862,0.1596204250714936,-0.2874965516634866,46.451923,0.1683586720648496,0.5548319565096761,0.028344642459439573,0.3078384999643551,0.4490617124482139,1
2025-11-22T17:45:46.461538,-0.1699696644544248,0.00588051935012,-9.817229296269332,-0.4540603370244023,0.1339779435662908,-0.2970066832042131,46.461538,0.1709418497399431,0.5588683645447591,0.02922111599251329,0.31233384888893373,0.4488063086009943,1
2025-11-22T17:45:46.471154,-0.171503047976487,0.0188424525227277,-9.843821974851528,-0.4597435500259721,0.1082271580247217,-0.3057098574845445,46.471154,0.17801319884262604,0.5626151139880727,0.03168869896218431,0.31653576648781206,0.44865117183319764,1
2025-11-22T17:45:46.480769,-0.1725208210303611,0.0318081900696161,-9.87019310202184,-0.4638915216526911,0.0824330736634313,-0.3135900181881921,46.480769,0.18895043322507382,0.565976373183652,0.03570226621594308,0.3203292550021205,0.44861238691719785,1
2025-11-22T17:45:46.490385,-0.1730037406074687,0.0447318950321471,-9.896274135874858,-0.4664737217053615,0.0566601415779062,-0.3206354045541793,46.490385,0.20297769812418762,0.5688718373578548,0.04119994593579384,0.32361516733890167,0.4487033760434036,1
2025-11-22T17:45:46.5,-0.1729365916326865,0.0575685769457078,-9.922000293452903,-0.4674719650229988,0.0309726957783624,-0.3268383931750426,46.5,0.21932915305466993,0.5712378499534905,0.04810527737967883,0.3263126812194865,0.4489341700413236,1
2025-11-22T17:45:46.509615,-0.1723093442423453,0.0702741685890925,-9.947310633379542,-0.4668806412757115,0.0054352182329071,-0.3321951664220965,46.509615,0.2373381376660671,0.5730276637209266,0.056329391590797015,0.3283607033894634,0.44931079439352534,1
2025-11-22T17:45:46.519231,-0.1711180248859417,0.0828056889663633,-9.97214799347514,-0.4647066676944433,-0.0198876211400479,-0.3367052118683653,46.519231,0.256462652687631,0.5742109404858153,0.06577309222357645,0.32971820417360453,0.4498347978079472,1
2025-11-22T17:45:46.528846,-0.1693652381376989,0.0951214857239166,-9.996458790988765,-0.4609691537413526,-0.0449311812936846,-0.3403706902164194,46.528846,0.27627655979567217,0.5747726320136219,0.07632873749253162,0.3303635785118665,0.45050294094708815,1
2025-11-22T17:45:46.538462,-0.1670603119383293,0.1071815376531351,-10.020192707937426,-0.4556987856449366,-0.0696313172174598,-0.343195749331045,46.538462,0.2964487450933778,0.5747114284009026,0.0878818584674385,0.3302932259346058,0.4513070535051059,1
2025-11-22T17:45:46.548077,-0.1642190736997339,0.1189477952894041,-10.04330229909111,-0.4489369532479772,-0.0939250456488167,-0.3451858952673348,46.548077,0.3167214721392096,0.5740379817426894,0.10031249091402812,0.3295196044832202,0.45223405972507436,1
2025-11-22T17:45:46.557692,-0.1608632938036065,0.1303845386854044,-10.06574256415799,-0.4407346420305075,-0.1177513177350317,-0.346347537085275,46.557692,0.3368920266596022,0.572773091161877,0.11349623762681413,0.3280690139591319,0.4532661653954188,1
2025-11-22T17:45:46.567308,-0.1570198539096285,0.1414587306419965,-10.087470513437111,-0.4311511048924402,-0.1410517858194448,-0.3466877898237267,46.567308,0.3567984067963896,0.5709459739289585,0.1273051030924419,0.32597930514568696,0.4543811929200229,1
2025-11-22T17:45:46.576923,-0.1527197085243367,0.1521403429787971,-10.108444734350392,-0.420252327602557,-0.1637714567261055,-0.3462145605657178,46.576923,0.3763085801333104,0.5685926756838067,0.1416081474819481,0.32329763084127056,0.45555304536314867,1
2025-11-22T17:45:46.586538,-0.14799671017854,0.1624026367543144,-10.128624949289744,-0.4081093236173463,-0.1858591504900777,-0.3449368822378182,46.586538,0.39531253451428894,0.5657546257630137,0.1562719999441109,0.32007829657224773,0.4567522762471343,1
2025-11-22T17:45:46.596154,-0.1428863645957819,0.1722223838261844,-10.14797155582365,-0.3947963361159752,-0.2072677177140268,-0.3428654203437772,46.596154,0.4137164081112853,0.5624773331295179,0.17116126634050358,0.31638075028449464,0.4579467401627849,1
2025-11-22T17:45:46.605769,-0.1374245755992029,0.1815800228550461,-10.166445158984647,-0.3803890656088016,-0.2279539969219564,-0.3400130654692661,46.605769,0.431438145302363,0.5588092256192984,0.1861388732219429,0.3122677506372399,0.459102300073939,1
2025-11-22T17:45:46.615385,-0.1316464325380822,0.1904597453607543,-10.184006127590996,-0.3649630587695024,-0.2478785079052351,-0.3363955324153884,46.615385,0.4484042861417793,0.5548006337205732,0.20106640383031868,0.30780374317674963,0.4601835698521608,1
2025-11-22T17:45:46.625,-0.1255850888415857,0.1988495068157553,-10.200614216250893,-0.3485923820834593,-0.2670048831066445,-0.3320319002024497,46.625,0.4645476199083733,0.5505028966331266,0.21580449116253445,0.3030534392014628,0.46115467393787035,1
2025-11-22T17:45:46.634615,-0.1192707802367872,0.2067409559178827,-10.2162282895606,-0.331348664970248,-0.2852990510179112,-0.3269450299626474,46.634615,0.4798055136226285,0.545967525505467,0.23021333090267437,0.2980805389065628,0.46198000908963255,1
2025-11-22T17:45:46.644231,-0.1127300307986465,0.2141292740340201,-10.230806172364282,-0.3133005393802713,-0.3027282136623644,-0.3211617889539472,46.644231,0.4941187751840273,0.5412453177693778,0.24415336398936333,0.29294649400727474,0.4626249953117408,1
2025-11-22T17:45:46.653846,-0.1059850883297175,0.221012916498546,-10.244304634234195,-0.2945134477099773,-0.3192597023648578,-0.3147130069921562,46.653846,0.5074309373791007,0.5363853141223761,0.2574861562094328,0.2877092052061601,0.463056803854827,1
2025-11-22T17:45:46.663462,-0.0990536169261304,0.2273932481281712,-10.256679500800905,-0.2750497627894019,-0.3348598400972746,-0.3076331134154516,46.663462,0.5196878628294023,0.531433548988171,0.2700754747721916,0.2824216169901627,0.4632450495237355,1
2025-11-22T17:45:46.673077,-0.0919486587436725,0.2332740692281794,-10.26788587769035,-0.2549691653209659,-0.349492969009339,-0.299959445617749,46.673077,0.5308375851059367,0.5264316476682801,0.2817885417611026,0.2771302796667402,0.4631624327413214,1
2025-11-22T17:45:46.682692,-0.0846788649864053,0.2386610380147835,-10.2778784817128,-0.2343292326916113,-0.3631208031108201,-0.2917312702111679,46.682692,0.5408303287777143,0.5214154207200894,0.29249744452581056,0.27187404096470785,0.4627853147848176,1
2025-11-22T17:45:46.692308,-0.0772489907712995,0.2435610101688027,-10.286612093658173,-0.2131861880448029,-0.3757022277012884,-0.2829886049471638,46.692308,0.5496186877681848,0.5164136570644959,0.3020807019440214,0.26668306520272683,0.46209420839832727,1
2025-11-22T17:45:46.701923,-0.0696606453173428,0.2479813312056556,-10.294042163483551,-0.191595741600716,-0.38719359355825,-0.2737709655440372,46.701923,0.5571579717028781,0.5114473078108771,0.3104250054320651,0.2615783486669941,0.46107416639302556,1
2025-11-22T17:45:46.711538,-0.0619132780588306,0.2519291258608089,-10.300125601158898,-0.1696139398608126,-0.3975494719744336,-0.2641161732239051,46.711538,0.5634067406337361,0.5065291938483883,0.31742715539152994,0.2565718242206982,0.45971505320407774,1
2025-11-22T17:45:46.721154,-0.0540053571576684,0.2554106284597484,-10.304821770754495,-0.1472979320974403,-0.4067237794195058,-0.2540593390311977,46.721154,0.5683275358097957,0.5016642914284791,0.3229961879596346,0.25166706129443805,0.4580116886137709,1
2025-11-22T17:45:46.730769,-0.0459356663113232,0.2584305938429106,-10.308093668618374,-0.1247065761696327,-0.4146711598970786,-0.2436321025088683,46.730769,0.5718877803936209,0.49685058353918904,0.3270556333635423,0.24686050236323268,0.45596385868485206,1
2025-11-22T17:45:46.740385,-0.0377046239994128,0.2609918252770488,-10.309909214256155,-0.1019008393960395,-0.4213485147196297,-0.2328621633767108,46.740385,0.5740607792870992,0.4920804193000748,0.32954577831571163,0.2421431390585374,0.45357619592258913,1
2025-11-22T17:45:46.75,-0.0293155262794894,0.2630948537036606,-10.310242538111966,-0.0789439896134673,-0.4267165743092603,-0.2217731111218099,46.75,0.5748267128668731,0.4873422833111943,0.3304257498253346,0.23750250110296836,0.4508579381802748,1
2025-11-22T17:45:46.759615,-0.0207756276120444,0.2647377982228452,-10.309075138585298,-0.0559015964771185,-0.4307414115283263,-0.2103845304765393,46.759615,0.5741735149205279,0.482622836962715,0.3296752252361937,0.2329248027579394,0.4478225831147732,1
2025-11-22T17:45:46.769231,-0.0120969960060109,0.2659164289993291,-10.306396803822668,-0.0328413699257709,-0.4333958084221017,-0.1987123493403955,46.769231,0.5720975506379468,0.4779090709714849,0.32729560744593805,0.22839708011682777,0.44448746126246436,1
2025-11-22T17:45:46.778846,-0.0032971022076424,0.2666244392271025,-10.302206236156737,-0.0098328602285994,-0.4346604069519898,-0.186769403008933,46.778846,0.5686040503820298,0.4731904103130766,0.32331056611084985,0.2239091644122578,0.4408732550418713,1
2025-11-22T17:45:46.788462,0.0056008777786111,0.2668539104607283,-10.296511360155224,0.0130529629291883,-0.4345245890365116,-0.174566200732731,46.788462,0.5637072911744737,0.4684606245532704,0.3177659101232629,0.2194553567568402,0.43700349215560025,1
2025-11-22T17:45:46.798077,0.0145680549059261,0.2665959285733555,-10.289329324491815,0.0357442434433136,-0.4329870388257255,-0.1621118788660634,46.798077,0.5574305384200324,0.4637194065379304,0.31072880516324725,0.2150356879998904,0.43290403943747485,1
2025-11-22T17:45:46.807692,0.0235701138901778,0.2658412861576776,-10.28068621974729,0.058168877700239,-0.430055946313339,-0.1494153036044863,46.807692,0.5498057671120806,0.45897349405340143,0.30228638154970344,0.21065666824358772,0.42860261774651026,1
2025-11-22T17:45:46.817308,0.0325678853009101,0.264581200205671,-10.27061654011346,0.0802552451156418,-0.4257488202388454,-0.1364862560913597,46.817308,0.540873188911791,0.45423722921528203,0.29254380648361,0.20633146040517666,0.4241283517160139,1
2025-11-22T17:45:46.826923,0.0415181828644816,0.2628079786927937,-10.259162428300256,0.1019330016071937,-0.4200918939412857,-0.1233366104836474,46.826923,0.5306806278125735,0.4495324856530655,0.2816219287355472,0.20207945565742355,0.4195113620296299,1
2025-11-22T17:45:46.836538,0.0503748768484165,0.2605155769401913,-10.246372759043696,0.1231338944055084,-0.4131191388095531,-0.1099814131326202,46.836538,0.5192828074009914,0.4448879522271442,0.26965463406225515,0.19792529003686177,0.41478240365237284,1
2025-11-22T17:45:46.846154,0.0590901638897455,0.2576999932290512,-10.232302131387172,0.1437925476983044,-0.4048709486934962,-0.096439786218104,46.846154,0.5067406306787143,0.44033784102133944,0.2567860667806612,0.1938974142353344,0.4099725509840454,1
2025-11-22T17:45:46.855769,0.0676159727252739,0.2543594712738691,-10.21700984870406,0.1638471629728426,-0.3953926134561072,-0.0827355977340149,46.855769,0.4931205474430064,0.43592016553757246,0.2431678743104903,0.19002639072230457,0.4051129293024266,1
2025-11-22T17:45:46.865385,0.0759054169898832,0.2504945078673402,-10.200558962599542,0.1832400815916908,-0.3847327410295731,-0.068897851672795,46.865385,0.4784941100148778,0.4316747890333469,0.22895661331892997,0.18634312348698454,0.40023449038023234,1
2025-11-22T17:45:46.875,0.0839141902424926,0.2461076981994286,-10.18301543804649,0.2019181794660685,-0.3729417968410878,-0.0549607642065691,46.875,0.4629378103147538,0.42764146271394304,0.21431141621901895,0.18287722063212075,0.3953678286952012,1
2025-11-22T17:45:46.884615,0.0916018083730649,0.2412034762421004,-10.16444746701087,0.2198330968702024,-0.3600708992311131,-0.0409635150013597,46.884615,0.44653327363045164,0.4238580570355043,0.1993919644591278,0.1796556525139128,0.39054303363717524,1
2025-11-22T17:45:46.894231,0.09893263157756,0.2357878173724354,-10.144924928321169,0.2369413260450359,-0.3461709483696275,-0.0269496951611227,46.894231,0.4293678686039294,0.4203591363969442,0.18435676658948116,0.17670180355238477,0.3857895731211593,1
2025-11-22T17:45:46.903846,0.1058766245701503,0.2298679677000695,-10.124518970949628,0.2532041762889783,-0.3312920993800018,-0.0129665016978174,46.903846,0.41153578788622264,0.41717495151083617,0.16936170471113404,0.1740349401680685,0.3811362051583754,1
2025-11-22T17:45:46.913462,0.112409833595045,0.2234522538153411,-10.103301686404071,0.2685876266812401,-0.3154835450213095,0.0009362545902063,46.913462,0.39313966144307366,0.41433085446069723,0.15455879339957457,0.17167005695813148,0.37661091540763597,1
2025-11-22T17:45:46.923077,0.1185145766744261,0.2165500098972743,-10.08134583097381,0.2830620718695466,-0.2987935582013382,0.0147072541713521,46.923077,0.37429278416390965,0.41184709575151507,0.14009508827717107,0.1696180302789576,0.37224087903236946,1
2025-11-22T17:45:46.932692,0.124179363256658,0.2091716382225354,-10.058724559008668,0.2966019607904311,-0.2812697468148999,0.02829481539908,46.932692,0.3551220718707271,0.4097389293153804,0.12611168592975786,0.16788599019651432,0.3680524431570388,1
2025-11-22T17:45:46.942308,0.1293985793108311,0.2013287977444846,-10.035511134127225,0.3091853187195419,-0.2629594764590803,0.0416480228931729,46.942308,0.33577190386748,0.4080169180098401,0.11274277142679225,0.16647780538224857,0.3640711219822774,1
2025-11-22T17:45:46.951923,0.1341719865122505,0.1930346971406818,-10.011778596375056,0.3207931395872461,-0.2439104160612289,0.0547177940132809,46.951923,0.31640905509707956,0.40668730795426106,0.10011469014742673,0.16539456645108397,0.360321591591069,1
2025-11-22T17:45:46.961538,0.1385040807414201,0.1843044563114935,-9.98759937981689,0.3314086521185161,-0.2241711607533714,0.0674578525227565,46.961538,0.29722893584909027,0.40575234550093175,0.08834504030598261,0.1646349658795075,0.3568276673786869,1
2025-11-22T17:45:46.971154,0.1424033364090638,0.1751554965394153,-9.963044893936296,0.3410165063393018,-0.2037918839952263,0.0798255845010436,46.971154,0.2784632751856155,0.40521045583637166,0.07754179562709981,0.16419551351912012,0.3536122450488822,1
2025-11-22T17:45:46.980769,0.1458813437457929,0.1656079245390642,-9.93818509586588,0.3496019827856546,-0.1828249594442192,0.0917827520521676,46.980769,0.26038907780987414,0.40505627477884004,0.06780247184267668,0.16407058573771116,0.35069718682918566,1
2025-11-22T17:45:46.990385,0.1489518425870279,0.1556848828244732,-9.9130880822714,0.357150363964461,-0.161325473397621,0.10329603731738,46.990385,0.2433379306683682,0.40528059683679285,0.05921334850196357,0.16425236217238703,0.34810313825182637,1
2025-11-22T17:45:47,0.1516296708924702,0.1454128385273116,-9.887819722330985,0.3636466026879403,-0.1393515399758228,0.114337384608653,47.0,0.22770321546658043,0.40587034981538267,0.051848754333819955,0.1647307408592611,0.34584926746290623,1
2025-11-22T17:45:47.009615,0.1539296676108896,0.1348217727323263,-9.862443345403465,0.3690753784998298,-0.1169643533934435,0.1248841035600618,47.009615,0.21394023548332913,0.40680871954954356,0.04577042435866232,0.16549333430153917,0.34395292783891745,1
2025-11-22T17:45:47.019231,0.1558655856784027,0.1239452213818452,-9.837019494276287,0.3734215703481636,-0.0942279589483989,0.1349186933628341,47.019231,0.2025510840719894,0.4080755215246365,0.041026941658738124,0.16652563126760406,0.34242925418723974,1
2025-11-22T17:45:47.028846,0.1574490800928471,0.1128201175396103,-9.8116057598448,0.3766711056016984,-0.0712087696750193,0.1444283553847978,47.028846,0.19404454489964523,0.4096478493938339,0.03765328540531043,0.16781136051299322,0.3412907111149451,1
2025-11-22T17:45:47.038462,0.1586888414959235,0.1014863959762762,-9.786256726720849,0.3788120835755507,-0.0479748788233766,0.153404187865115,47.038462,0.18886639336842675,0.4115009459473006,0.03567051454399731,0.1693330285155232,0.34054661800268815,1
2025-11-22T17:45:47.048077,0.1595899458577905,0.089986343013916,-9.761024074256117,0.3798360296699565,-0.0245952190396447,0.161840099161312,47.048077,0.1873115467223081,0.4136091777651791,0.035085615535503406,0.17107255193158752,0.3402026784342499,1
2025-11-22T17:45:47.057692,0.1601534795752032,0.0783637082869604,-9.735956878366022,0.3797391251732872,-0.0011386099491057,0.1697315208056402,47.057692,0.18945059837634062,0.4159469783217389,0.03589152922515352,0.1730118887749851,0.34026054378848514,1
2025-11-22T17:45:47.067308,0.1603764752671686,0.0666626371086311,-9.71110213702446,0.3785232788094592,0.0223272660336547,0.1770740356177054,47.067308,0.1951085622083661,0.418489657577271,0.03806735104701586,0.17513359349914157,0.3407174415674232,1
2025-11-22T17:45:47.076923,0.1602521635817098,0.0549265182902983,-9.68650550054906,0.3761969473229083,0.0457369067987216,0.1838620546429573,47.076923,0.20390850828185922,0.4212140346143749,0.04157867974973305,0.17742126295611982,0.3415658985038942,1
2025-11-22T17:45:47.086538,0.1597705191018338,0.0431968595315638,-9.662212139093318,0.3727756525115874,0.0690279842287753,0.1900876797441329,47.086538,0.2153557105365407,0.4240988984925991,0.04637808206069831,0.17985987570263584,0.34279358562929124,1
2025-11-22T17:45:47.096154,0.1589190573443017,0.0315123004864144,-9.63826764075032,0.3682821663938809,0.0921422191869665,0.1957398749430837,47.096154,0.22892279899043588,0.427125322690195,0.05240564789761551,0.1824360412832032,0.3443833066656227,1
