Timestamp,Acceleration_X,Acceleration_Y,Acceleration_Z,Gyro_X,Gyro_Y,Gyro_Z
2025-11-24T18:00:00,0.11244562246823554,-0.14009052506304875,9.818647294672013,-0.08966080810564887,0.14263446833784887,0.4604622082693205
2025-11-24T18:00:00.009615,-0.2718033032789441,0.08147290290117493,9.736391839118872,0.0631618755693473,0.013902622210806553,0.47082024565565217
2025-11-24T18:00:00.019231,0.15231300564952802,0.40190634458613594,9.94431584604322,0.0732108283574829,0.05904823691449694,0.5134391112278424
2025-11-24T18:00:00.028846,0.13835918924011936,0.11321604910819322,9.972758660447708,0.08868983827107986,-0.01093784849620245,0.5997387086403312
2025-11-24T18:00:00.038462,0.07852882068514397,0.006902465620684875,10.17273204640449,0.06685889283795828,-0.0061159167172330706,0.6519427317476069
2025-11-24T18:00:00.048077,-0.028050892885635864,0.1132346922031315,10.066649185991102,0.10887908974443791,-0.09750726811688318,0.7812656259563531
2025-11-24T18:00:00.057692,0.1188675797815707,0.0817565867179829,9.961439029725838,0.0901524729662071,-0.0452528292949156,0.712875458113335
2025-11-24T18:00:00.067308,0.01142097586504981,0.23074187012108316,10.280009800399718,0.0609709347229318,0.03596125029344614,0.7703498523262133
2025-11-24T18:00:00.076923,0.12385807275217778,0.25413661274882626,10.368366383652573,-0.05836454142238107,-0.10421954516318686,0.7775563360054378
2025-11-24T18:00:00.086538,0.20441385320245753,-0.1181570811604879,10.6682417796009,0.10005949754778411,0.1685548358062995,0.7540415203261035
2025-11-24T18:00:00.096154,0.11233341575803607,-0.04106320610599987,10.664662376296405,0.13139881074192294,-0.14024087360519366,0.7451371449040678
2025-11-24T18:00:00.105769,0.24972003329086917,0.1240403287211786,10.512433756472223,0.1256992542752108,-0.04061331670218772,0.7365247192734945
2025-11-24T18:00:00.115385,0.14726479167584702,-0.12536821200020812,10.630544791048598,0.206409451056917,-0.1195381855259763,0.910771712020881
2025-11-24T18:00:00.125000,0.11138910089080228,0.29191239023093607,10.776845817651514,-0.01050084455104864,-0.003913239511291678,0.9006119936823318
2025-11-24T18:00:00.134615,0.21048941040724917,0.2784978746497717,10.889240093490855,0.00157563177339037,-0.018934216888384436,0.8357659628886697
2025-11-24T18:00:00.144231,0.04982534650993037,0.4373416359552017,10.752883216747085,0.09720591042903581,-0.04312407859419359,0.8432639189649467
2025-11-24T18:00:00.153846,-0.10458705439478982,0.21483216868457566,10.793005004256463,0.04791125680793447,-0.0077803659116032,0.9691339847562417
2025-11-24T18:00:00.163462,0.28101223315846513,0.03525657967162557,10.837847143795377,-0.1548913897690348,-0.031190148062537792,0.8428030181355062
2025-11-24T18:00:00.173077,0.33918554837821524,-0.11893212836429123,11.185177572039855,-0.08282207271124153,-0.002547475955030999,0.8945462720273403
2025-11-24T18:00:00.182692,0.190974223759922,0.1328377822330128,11.19974795865602,0.035680115189629276,-0.0548594349049874,0.9165356955254789
2025-11-24T18:00:00.192308,0.04188922612702351,-0.22504581834871276,11.289050651761647,-0.06803786510211013,-0.052537885215178895,0.8349337830824477
2025-11-24T18:00:00.201923,0.3323119588161443,0.2594001019516642,11.365837297380494,-0.10593367514899331,-0.08335033382632914,0.8967056700858634
2025-11-24T18:00:00.211538,-0.034940437655115814,-0.20371773670682178,11.283619796170143,0.0739168524987819,0.13572195682277127,1.068427757876086
2025-11-24T18:00:00.221154,0.2802733600183872,0.30129659585181745,11.445686643678139,0.052516945713242294,0.17767325941810155,0.95176170159635
2025-11-24T18:00:00.230769,-0.07371778197142992,0.021761448642325765,11.500406595501186,0.08355374806837941,0.03509432587610769,0.9549492422167677
2025-11-24T18:00:00.240385,0.3250968510538488,0.055661707399097406,11.534796103902277,0.108947584545209,-0.013189194569172297,1.0369907331611954
2025-11-24T18:00:00.250000,-0.13524690974108117,-0.19126062681442144,11.612740752238418,0.0673214085984304,-0.04364569003533725,1.1416567082922149
2025-11-24T18:00:00.259615,-0.05381700166733758,0.14388672086348625,11.569718652498786,-0.03016805233176376,0.05225696232805864,1.1816692113165532
2025-11-24T18:00:00.269231,0.11535438814741336,-0.0471658307214817,11.662547060980753,-0.07453008444821634,-0.08579302852835574,0.8978536218780918
2025-11-24T18:00:00.278846,0.19328243869494532,0.11741252799732155,11.647689384306117,0.0012064855584482566,0.037350831736737124,1.0398061175007423
2025-11-24T18:00:00.288462,0.04778828381162937,0.16380045464314347,11.728504793127756,0.1510933034586835,0.01960110964324303,1.1149578627403136
2025-11-24T18:00:00.298077,0.20620409250765032,0.2594489221808841,11.737196242764217,-0.11268104868012017,-0.03496577129894357,1.1197835385378128
2025-11-24T18:00:00.307692,-0.18623615596956059,0.014409540598112308,11.75650191777874,0.044122832607096485,-0.012649981189289287,1.1038732803673175
2025-11-24T18:00:00.317308,0.03510519067318936,0.39231883058195594,11.532475865535066,-0.0795396553083435,-0.011096077425508718,1.0781683059878753
2025-11-24T18:00:00.326923,0.4009916560988739,-0.20542309945785622,11.337157441247342,0.011130433002265868,0.10364767362058053,1.0018434994418366
2025-11-24T18:00:00.336538,0.02822147272241317,0.16782259712090014,11.61105663496833,0.017617566895890627,0.03538283850908307,1.1992931267613445
2025-11-24T18:00:00.346154,0.01672089009298343,0.08087067516398552,11.791748835713824,-0.15415983053663743,0.04366508171892003,1.086177318674465
2025-11-24T18:00:00.355769,-0.16207818710944236,0.005384491460067559,11.669664210526825,0.07812686885281221,0.026207129074384973,0.8989538486397449
2025-11-24T18:00:00.365385,0.016053493323987852,0.06098402474684406,11.763325729508056,0.03476855272789216,0.011637944701737716,1.00067042282291
2025-11-24T18:00:00.375000,0.14108282313472587,0.09179181459759692,11.835809474489423,-0.046281790924787264,0.1654478169935821,0.8888058021123119
2025-11-24T18:00:00.384615,0.09176455337169331,0.034850224306860356,11.638832829956563,0.24435732869734947,0.0015403352902632582,1.018470155110889
2025-11-24T18:00:00.394231,0.13945751268042944,0.0028443317780507543,11.74807360894159,0.012775104130594246,-0.038086148097366504,0.996654561621372
2025-11-24T18:00:00.403846,0.017865113644477654,0.12400306819061682,11.644120685499807,0.07215677886911592,0.04309005076771828,0.9017424880074225
2025-11-24T18:00:00.413462,0.04274671488749103,0.0383976799514469,11.95238728242134,-0.04012186016408126,0.014660672938047601,0.9738703405994503
2025-11-24T18:00:00.423077,-0.03598151174658126,0.12394772924663576,11.549316942694938,0.15124962391423236,-0.011512787205749591,0.8410479529754555
2025-11-24T18:00:00.432692,0.024847418182406808,0.10991587344952466,11.738493076841904,0.18550128244843153,-0.03879954838023433,0.6876863295411808
2025-11-24T18:00:00.442308,0.28322312035399333,0.03141331649809692,11.70736603084006,-0.12195014385765564,0.023771254933480236,0.8324092748361381
2025-11-24T18:00:00.451923,0.27194696205188457,0.17716277713337458,11.767139911722932,-0.03308774003197226,-0.021853503322288113,0.9298245911409343
2025-11-24T18:00:00.461538,-0.23135822666524794,-0.04787605029958225,11.923502736089631,0.14410661290681118,-0.014706425032577821,0.80842441203363
2025-11-24T18:00:00.471154,0.139314314480675,0.09979103799795248,11.870986738780896,0.07152266061734722,0.01574974859501145,0.7840117242978913
2025-11-24T18:00:00.480769,0.09323502490450701,0.15449193753052134,11.439955179487646,0.05069593887112507,-0.07866207841209617,0.7537299405966145
2025-11-24T18:00:00.490385,0.04746610549600103,0.28777156685881267,11.798860200847027,0.16783925382840462,0.19349879348403176,0.7890708594701442
2025-11-24T18:00:00.500000,0.11563272852523865,0.3404533364668632,11.659793150303038,0.11500170686806448,-0.13195024255738036,0.7548851275438272
2025-11-24T18:00:00.509615,-0.013634471948913943,-0.09394479299981259,11.638498263133258,0.06651347060677945,-0.15248057983685115,0.6720423069898503
2025-11-24T18:00:00.519231,-0.12628969842363422,0.2474567443654095,11.832463215178638,-0.0017142144882025118,0.07939356102329918,0.6136941841099093
2025-11-24T18:00:00.528846,0.22783882958897678,0.34951910071445047,11.619034716711733,0.030776838832665097,0.05593754829242001,0.495244771688646
2025-11-24T18:00:00.538462,0.1359037310548062,0.1016543483764139,11.513188453509082,-0.06619980519588019,-0.1202701436502857,0.5582061603661682
2025-11-24T18:00:00.548077,0.15277704627904704,0.3626433096516174,11.673798704302223,0.025273325169584186,0.1300818089050434,0.6466183572971742
2025-11-24T18:00:00.557692,0.005498864429882469,0.19887343209692931,11.526435711690558,-0.026491395968192857,0.07210946559796005,0.504301160217181
2025-11-24T18:00:00.567308,-0.09695716778330488,0.06499232047262808,11.61473592985584,-0.009051818736864402,0.022980679847416564,0.47514424906874103
2025-11-24T18:00:00.576923,0.10739776531204889,0.2509907984311265,11.23884099969574,-0.10284628501591513,-0.053155988436545024,0.31966725113034866
2025-11-24T18:00:00.586538,-0.16888022152234136,-0.005929519342250167,11.281475149543146,-0.06420515915263258,-0.018447264462532333,0.36803019605456394
2025-11-24T18:00:00.596154,0.2458283639817319,-0.08521425076708264,11.309293069195705,0.03227434080581479,0.21389387092591816,0.37762738933041823
2025-11-24T18:00:00.605769,0.06290068892542347,0.12352653523619544,11.295026992585566,-0.09709957023632595,-0.022079201223160688,0.258607722622584
2025-11-24T18:00:00.615385,0.03319065935504292,0.21239863968372832,11.249219684534491,0.0055528511664020615,-0.1259592925831567,0.3974196938331691
2025-11-24T18:00:00.625000,-0.13160545541207147,0.06136428904241325,11.075661484027957,0.07632889168318271,0.1142703901753027,0.37017893488830594
2025-11-24T18:00:00.634615,0.08502011582720749,0.11598717867670744,10.984377722872106,-0.0002720911344721612,-0.033781402299105937,0.28336276672166716
2025-11-24T18:00:00.644231,-0.03295040701668808,0.3303903452719107,11.168070848069338,0.04616632266973576,-0.11560203134135187,0.06051628600575315
2025-11-24T18:00:00.653846,0.27204632947762947,0.21773581546031157,10.780952419920801,-0.08753124616171033,-0.0654703713312327,0.06164766939233185
2025-11-24T18:00:00.663462,0.2450130421412464,0.13471897828470486,10.861232645748712,0.10535682968621088,0.08533408461680637,0.1145911370985418
2025-11-24T18:00:00.673077,0.08893110249463582,0.04566262302707259,10.859189652859659,0.027887570366650655,0.023459556826134476,-0.07152712141454258
2025-11-24T18:00:00.682692,0.17133672307653558,0.18037757576045654,11.042961861611479,-0.10406536964449523,0.05356933276724676,0.11292453352251357
2025-11-24T18:00:00.692308,0.09569317670091423,0.15590905697786886,11.027642998022227,0.032751168591268504,0.09846681640282036,0.005207455892418177
2025-11-24T18:00:00.701923,-0.04024317474903419,-0.017876839303185427,10.635683669915862,0.025715312527096162,-0.03771057242259096,0.011680537774016085
2025-11-24T18:00:00.711538,0.06108525033193626,0.11630078490025822,10.797509074167655,-0.04445217144224087,0.08989768410393663,-0.051015244400844074
2025-11-24T18:00:00.721154,-0.018969021988434143,-0.08125159820683375,10.444998350234037,0.0410325760548154,0.07624615620669513,-0.04944763970883737
2025-11-24T18:00:00.730769,-0.09642828827227562,0.042886917668685125,10.85384690233435,0.07584507769170895,0.026387693345752833,-0.21035316973167031
2025-11-24T18:00:00.740385,0.17487400940266729,0.32051615124947896,10.352463512797026,-0.022970506677934256,0.06782110782777676,-0.007365894007710205
2025-11-24T18:00:00.750000,0.10421385193864119,0.06391103585009889,10.494283915707491,0.09548739141588393,0.001642891607046816,-0.17850312829920356
2025-11-24T18:00:00.759615,0.07790000577219172,-0.2158494126264758,10.634121333312205,0.15906431218478595,-0.0545061939493567,-0.27341034804292974
2025-11-24T18:00:00.769231,-0.07231929440580215,0.06391827552516087,10.318370983060962,0.027922703288740282,-0.02893994102981962,-0.2421513919506975
2025-11-24T18:00:00.778846,0.08157823467395608,-0.16629132295765506,10.20837964142752,-0.11952418337939118,-0.03885324884389271,-0.1582219603253846
2025-11-24T18:00:00.788462,-0.1364333335700161,0.04734987081131796,10.296732975469773,0.12798508923980845,-0.06568503674877904,-0.4841529393127315
2025-11-24T18:00:00.798077,0.41104840206935433,0.11238783732807521,10.078302749178633,0.0265056913649896,0.08113103417809264,-0.42915796021220465
2025-11-24T18:00:00.807692,0.3557770464161185,0.11301416991674512,9.97502063823626,-0.015458039088030427,-0.07885723079174395,-0.4805625701112608
2025-11-24T18:00:00.817308,0.2633797450693227,0.1473929218922691,10.098874924440677,-0.017057999078075207,-0.02341425077969127,-0.5233575310022928
2025-11-24T18:00:00.826923,-0.12368253495853865,0.007544448407655335,10.096575358333988,-0.21513079448434122,0.007851111737320959,-0.44482320641990036
2025-11-24T18:00:00.836538,0.01348347509471233,0.14135186244847509,9.668867226257616,0.12768956050246946,-0.06791856200839984,-0.5402901038321287
2025-11-24T18:00:00.846154,0.26803900243564954,0.09054006465072169,9.754944120849048,0.0053694477675127385,-0.08158102691093978,-0.5334840558672113
2025-11-24T18:00:00.855769,0.1081326620397291,0.04038219431495916,9.42490511821311,0.06165793587131799,0.14119985187437473,-0.4120524806930119
2025-11-24T18:00:00.865385,-0.129553771916726,0.07145204385336303,9.725055280682014,0.028629192715768484,0.07092777713588866,-0.598798883287624
2025-11-24T18:00:00.875000,0.34025378524802485,0.024116000254028505,9.60450760673825,0.07348223895824006,0.053502288807286774,-0.40275717960342783
2025-11-24T18:00:00.884615,-0.019097580035549344,0.014487359124120691,9.801330616446874,0.023851723707471253,0.0487086339987946,-0.6548324615975972
2025-11-24T18:00:00.894231,-0.0973230638296203,0.2728483538603894,9.398803616928857,0.20056181319997293,0.07826760006201437,-0.48765559840849426
2025-11-24T18:00:00.903846,-0.10932026941419223,0.11041995577462936,9.324965547012983,0.06126138170271743,0.06598593164168583,-0.7177382918004831
2025-11-24T18:00:00.913462,0.26017057191511844,0.16538044504843558,9.56253150246586,0.035725727830574414,-0.0025915959055666273,-0.6588145960398243
2025-11-24T18:00:00.923077,0.16477349582695378,-0.02627525996388097,8.792940533848252,-0.045786640579812646,-0.02784224522213333,-0.911085663073492
2025-11-24T18:00:00.932692,0.1233942269844293,0.11365524554730469,9.32213593251764,-0.0631162152868769,0.03322097896187696,-0.7458542518445159
2025-11-24T18:00:00.942308,-0.10330663985314781,0.040379360889703626,9.10193115535732,0.06800858055862334,0.07398571248946385,-0.8461775531802566
2025-11-24T18:00:00.951923,0.25075030886851934,0.028906350259501182,8.764290194391188,-0.0792458940478178,-0.025171475985711043,-0.6913211821327979
2025-11-24T18:00:00.961538,0.10704275840029259,0.17663881963824385,8.739612470550416,-0.06212276269805263,0.016360449650231736,-1.0058580351986406
2025-11-24T18:00:00.971154,0.055381990914112486,-0.12750306458684293,8.713226884066154,-0.09788165136132615,0.1260140800824986,-0.8800633933622374
2025-11-24T18:00:00.980769,0.03472876128834779,0.07533917356259096,8.774949281316866,-0.01224672801074422,0.0703528424664857,-0.9069344327132752
2025-11-24T18:00:00.990385,0.01305620821389171,-0.029061657598294516,8.620008502671856,-0.012729644830950296,0.04608770501779515,-0.8338339398143146
2025-11-24T18:00:01,0.2187416090751146,-0.024381529173936045,8.611446251722409,0.02385922675467513,0.05176848581588357,-0.8691834773594526
2025-11-24T18:00:01.009615,0.08580394510077602,0.1336282736281742,8.461445828000132,0.11862495198882972,-0.05628034397616333,-0.9306579178491042
2025-11-24T18:00:01.019231,-0.10935881101900236,0.04983510844658011,8.3352854473586,-0.012228343974237301,0.10207733232912727,-1.048284342624822
2025-11-24T18:00:01.028846,0.17928363381835405,0.25164544463704264,8.289107657053943,0.03236647547153994,0.02074656868218751,-0.9066413534424184
2025-11-24T18:00:01.038462,0.1823143962694987,0.3175954501499958,8.507117098092225,0.09650700785689542,-0.03632213655898936,-0.9349007282157126
2025-11-24T18:00:01.048077,0.01945954417998054,-0.08130731541721326,8.362864589302964,-0.08011876700605543,0.006735821348074178,-0.8761385184354243
2025-11-24T18:00:01.057692,0.04896073954096538,0.13230038156451068,8.43968320425932,0.13184001184918218,0.049395680108579795,-0.7737209956252595
2025-11-24T18:00:01.067308,0.1407116932251608,0.20265104640446688,8.152593485297034,0.036988435826213056,0.05321975083975075,-0.8237357771292592
2025-11-24T18:00:01.076923,-0.01329964782490868,-0.22247633250570456,8.075203891793961,0.15434885678391388,-0.08062463963983928,-1.0189868748206539
2025-11-24T18:00:01.086538,-0.11194972446265641,0.1487120558453012,7.93005192587699,0.018905287515937355,0.05130949921125223,-0.9975258777446951
2025-11-24T18:00:01.096154,0.11546906649607762,-0.2615107517848936,8.153567311347425,-0.0087353566830453,0.11538934872515509,-1.0012691160727414
2025-11-24T18:00:01.105769,0.07928117313371214,0.35845009993536103,8.255224630330025,-0.03392820140532685,0.08242225457482598,-0.9880511112774667
2025-11-24T18:00:01.115385,0.05798753456872906,-0.16119480426590102,8.193233231880008,-0.024417308412918972,-0.04927495573257283,-1.0980473622157803
2025-11-24T18:00:01.125000,0.32614040084078966,0.20191236030063664,7.882327721028584,0.03591772167406129,0.043443870228252,-0.8775359270822671
2025-11-24T18:00:01.134615,-0.0808851522617435,0.06951507258049447,8.26618153580694,-0.0810476931537919,0.1408540271910433,-0.9692466319514094
2025-11-24T18:00:01.144231,0.13874171737082341,-0.02854837862895196,7.715886939359288,0.055002809694260746,0.06409425433041188,-1.0337083085187522
2025-11-24T18:00:01.153846,0.03911897811696324,0.20217833099205262,7.777110988809924,-0.049215512498273176,-0.14108189092425485,-1.035212687145448
2025-11-24T18:00:01.163462,-0.01822690941253398,0.06590623631107523,8.028175754493294,-0.05405933236357206,-0.033686464268588984,-1.0120917090794102
2025-11-24T18:00:01.173077,0.14034396766816165,0.28060188697737815,7.839805187166906,0.11269927374756812,0.07938336017142902,-1.004943016887025
2025-11-24T18:00:01.182692,-0.149485382690158,0.07869303446683572,7.656537388780306,-0.0287540848226862,0.07922618263571175,-0.8880039685564797
2025-11-24T18:00:01.192308,0.19555948450029603,0.15448003892749643,7.746304413829827,0.022808580563251277,0.09066249468754103,-0.8508778455660801
2025-11-24T18:00:01.201923,0.030047494347449605,0.12454904141183139,7.69600157169718,0.001485624214682367,-0.04570052545034045,-0.844547959223499
2025-11-24T18:00:01.211538,0.28004364039769825,0.2196050462970957,7.988433348638334,-0.007319097847839587,-0.08398794427098087,-0.8696792560171367
2025-11-24T18:00:01.221154,0.03356757423337878,0.1351399621252043,7.704810917290894,-0.013200039701910266,-0.027142121239854138,-0.8469456808275875
2025-11-24T18:00:01.230769,0.22541920038063393,-0.010865867267133442,7.93265049164544,0.05266757351049342,-0.11777363887215235,-0.9419560732292015
2025-11-24T18:00:01.240385,-0.07679741235597279,0.035873414044783086,7.99874009648623,-0.04124378971724316,-0.02357041864690521,-0.7812854119670115
2025-11-24T18:00:01.250000,0.06493467287673578,0.00034251095221483896,7.774181914281527,-0.10553664053855859,0.10622689259171245,-0.8953582342883173
2025-11-24T18:00:01.259615,0.030849224188164104,0.16825287872379835,7.835191643284084,0.049379814628422114,0.08871284048650492,-0.9832408062327225
2025-11-24T18:00:01.269231,-0.07628811829282484,0.35980603309770554,8.126168548943307,-0.11301822530035673,-0.002884662854079484,-0.9858994280380122
2025-11-24T18:00:01.278846,-0.0682158412447334,0.16761720551279724,7.768219756795088,0.07533657602429843,0.019300656491156757,-0.8746264016356602
2025-11-24T18:00:01.288462,0.10071062222698429,-0.012391968316403157,8.005530371458237,0.3421916871033749,0.08903183797128708,-0.6371592200925233
2025-11-24T18:00:01.298077,0.08782251256256542,0.26161995035508867,7.9481123568724845,0.09098567142112596,0.09730424830273593,-0.7535625142853524
2025-11-24T18:00:01.307692,0.4112553493015313,0.09154446754041241,8.014441291699866,0.022948893306798352,0.05927451611289633,-0.7361327496552037
2025-11-24T18:00:01.317308,-0.04587614719647887,0.019426151583401607,7.854973032449817,0.16950472700130798,0.17578271622678188,-0.8173407836241182
2025-11-24T18:00:01.326923,-0.07276945390894923,-0.09766250151479824,8.02052132712288,-0.028828640126362746,-0.06289521638559806,-0.5603357603410053
2025-11-24T18:00:01.336538,-0.14990005467533532,-0.02828798456785475,8.159275899818418,-0.05863729344871331,-0.07526854440929895,-0.6563087273371205
2025-11-24T18:00:01.346154,-0.13324077007862137,0.22128133382759654,7.820885089003667,0.049965439203941926,-0.06104480500772311,-0.5728001862655647
2025-11-24T18:00:01.355769,0.013224117682734668,-0.10042909645746212,7.892178998050096,-0.0018102250788961938,0.15296753342043573,-0.5598603625148175
2025-11-24T18:00:01.365385,0.23330932768575818,0.12092644831929948,8.004551982065328,-0.026946339505782683,-0.005605031374997717,-0.5499844120630552
2025-11-24T18:00:01.375000,0.18282900830711304,-0.06928800658012291,7.99843666433432,0.05665329615563283,-0.03985011995127445,-0.6208406056403214
2025-11-24T18:00:01.384615,-0.059845527764452955,0.13252276334729127,8.15651135121652,0.035405405898126525,-0.018823524882015944,-0.48852899642432923
2025-11-24T18:00:01.394231,0.2333635463942324,0.1021375309689535,8.092483419634283,-0.08416758182394578,0.1140330825845311,-0.5545834958130665
2025-11-24T18:00:01.403846,0.024533353768036295,0.005806122186482882,8.043211276900193,0.007023750926240007,-0.06352894988614821,-0.4375109240295651
2025-11-24T18:00:01.413462,0.02022097960652615,0.233976624708436,8.26667395149553,-0.01487799686429504,0.08815654123039858,-0.37813191137674984
2025-11-24T18:00:01.423077,0.022093940846837093,0.1544565845624756,8.06817792930303,0.08134917573750143,-0.12144735632186944,-0.3698549824617453
2025-11-24T18:00:01.432692,0.22106129935293045,0.22706303393887686,8.245754418801747,0.027808661066258192,-0.02197753412017758,-0.3394474518998166
2025-11-24T18:00:01.442308,0.0029103652961822435,0.2744149429898518,8.309480737058246,0.09382765320930726,0.039229038630138845,-0.29761276319130714
2025-11-24T18:00:01.451923,-0.03963833011314,-0.0685897365641644,8.417714588892853,0.05971532018435455,-0.05901289472823465,-0.4119064790457378
2025-11-24T18:00:01.461538,0.26291555723174664,0.24170350506133073,8.439105828410623,-0.003672602476684026,-0.06375637494856862,-0.20091830190265453
2025-11-24T18:00:01.471154,-4.7677132880674655e-05,0.10006778399013178,8.655970188029128,0.07714412652967485,0.0587055213619605,-0.2558579904889373
2025-11-24T18:00:01.480769,0.04213275857460744,-0.1823458415684164,8.409301786955217,0.19033882634095078,-0.09649441320503012,-0.1102022485058258
2025-11-24T18:00:01.490385,-0.07499868861961093,0.38897268551841835,8.634719456399695,0.06471263432485316,0.11162004438181955,-0.18059378303376283
2025-11-24T18:00:01.500000,0.026207457869988293,0.20440393672509544,8.68626039264552,-0.04999945499197776,-0.08818188187864404,-0.14043112580356135
2025-11-24T18:00:01.509615,0.06553377145278746,0.04330363715729621,8.824320381781956,0.04140510297135083,-0.03782852588209876,0.019102158763200178
2025-11-24T18:00:01.519231,0.32053549638345014,-0.031095741489019335,8.809664569711805,-0.17845116916576695,-0.08430012481698444,-0.06925646094596782
2025-11-24T18:00:01.528846,-0.2530106055110122,-0.16916149064352312,8.899024268564483,0.14727037913798197,-0.028233838448319528,0.006686435319737706
2025-11-24T18:00:01.538462,-0.19912278507324024,0.0693208871360873,8.981637412311356,-0.017968598343991237,0.13549425958180894,0.14496020577318247
2025-11-24T18:00:01.548077,0.15288148773920263,0.12096733473459682,9.021611551720333,-0.023312941399523685,0.17594479215029832,-0.0425623617162524
2025-11-24T18:00:01.557692,0.3733596213590247,0.008106789415032623,9.00482109690049,-0.07048131991957339,0.07068406744615115,0.21091856671004816
2025-11-24T18:00:01.567308,0.41960037205664136,-0.018300930817945885,9.098933943910735,-0.050602069369291264,0.17447592748135235,0.233917432527385
2025-11-24T18:00:01.576923,0.17415558787883478,0.009141270377083191,9.244809838789712,-0.04665234473069042,-0.07072022391166362,0.3011036564262996
2025-11-24T18:00:01.586538,0.37862922775482644,0.30414921297885117,9.377496717160241,0.09190312585460804,-0.07472244858030398,0.2821711252221673
2025-11-24T18:00:01.596154,0.37460316412077443,0.06954824260643591,9.170959346366136,0.04569731481183953,0.03179813633156622,0.26829216262103733
2025-11-24T18:00:01.605769,0.1927133621061654,0.32397026075429364,9.215327489614607,0.08034307304661088,-0.07778444443995264,0.32811267110047987
2025-11-24T18:00:01.615385,0.10650564419022779,0.010334429217911958,9.32959931604757,-0.004183732042601716,0.0928166790146424,0.2841445052685421
2025-11-24T18:00:01.625000,0.20673507634577365,-0.12323507532402186,9.624184239097163,-0.03322681552688782,-0.021685550849276983,0.43780868245868065
2025-11-24T18:00:01.634615,0.14018392293796525,-0.03170203384398501,9.671919382887548,0.08705035991039231,0.03777932741286781,0.36026021351739135
2025-11-24T18:00:01.644231,0.4349868758141907,0.19868165864724066,9.485540345701981,0.049568876169817595,-0.012022249304904187,0.5762312471189115
2025-11-24T18:00:01.653846,0.061640006496473214,-0.07077188448556929,9.535625776718165,-0.008734874800894868,-0.01510928047608651,0.4702682393839655
2025-11-24T18:00:01.663462,0.017144496658166725,0.11907908533071442,9.746443334002063,0.03774501204439854,0.0592042883274921,0.4525394383655538
2025-11-24T18:00:01.673077,0.004776078458144636,0.11085207592236257,10.018195821421578,0.12497134600210542,-0.12704471037197487,0.5344564957614278
2025-11-24T18:00:01.682692,0.08605647834221716,0.16471543920335396,9.844658158233306,0.12097670851773284,0.03805787323699562,0.6091538313343932
2025-11-24T18:00:01.692308,0.24525376359404122,0.03997319777059105,10.036560146582007,0.2085585262719067,-0.012858657350048864,0.7423739930728399
2025-11-24T18:00:01.701923,-0.05399566087160182,0.25545044251865545,10.17878997821928,-0.020349924116207455,-0.061060761218809434,0.4702724245582929
2025-11-24T18:00:01.711538,-0.02337683880840656,0.12971419886745467,9.961762194431433,-0.015678775036751916,-0.00028678048005887843,0.556971323296115
2025-11-24T18:00:01.721154,-0.059296889188335256,0.2462322322720752,10.237725808722704,0.0633638679224511,-0.033636822326279375,0.5707202017596819
2025-11-24T18:00:01.730769,0.1980530567321615,0.22961012187727664,10.0839307714203,0.06446282583883277,0.029058658542301413,0.5394053650896312
2025-11-24T18:00:01.740385,0.1607667212295138,0.3117977839468232,10.625938633242331,-0.07420765957100667,-0.017409849278531734,0.8851971588388544
2025-11-24T18:00:01.750000,0.200915688105457,0.09217319571120192,10.547834389117726,0.03031735522430968,-0.05573291132582894,0.8413403244887339
2025-11-24T18:00:01.759615,0.11964222838768916,0.031744820254977296,10.65023958126712,0.04589854774947877,-0.11520086727376487,0.7308353808601514
2025-11-24T18:00:01.769231,-0.06603125651163039,0.38191948086439864,10.723483616703843,-0.033955766860035805,-0.0007403751363722413,0.7278219217311751
2025-11-24T18:00:01.778846,0.09886680063482564,0.07538538360162289,10.678857888226021,-0.035017148410405846,-0.0048448921446904505,0.900592293505268
2025-11-24T18:00:01.788462,0.21130526840662178,0.08251803278647898,10.926844966953121,-0.028759304306674,-0.10470416465449019,0.8469932253861805
2025-11-24T18:00:01.798077,0.08704835447940426,0.10287576571145196,10.981580858853711,-0.0034643007679968155,0.10536298910829925,0.7967182848690706
2025-11-24T18:00:01.807692,0.2680069815661985,0.058983815022648184,10.839626477008313,0.07493049992823272,-0.06448621222242863,0.9215641272462249
2025-11-24T18:00:01.817308,-0.019767287582776294,-0.03943173391291624,10.894032089040051,-0.03166169672129647,0.01179997330946355,0.8278101489169671
2025-11-24T18:00:01.826923,0.21858068194053876,0.12393572243150508,11.151591118913569,0.05329037501128328,0.11519342994693806,0.7868218862884637
2025-11-24T18:00:01.836538,0.04771429700551406,0.017918569145361232,11.004332146872173,-0.0014862959801018386,-0.064446700664636,0.7642790437646801
2025-11-24T18:00:01.846154,0.05010669516026409,0.04341610162357341,10.977757055638236,0.07688177397339199,0.09248718970974998,0.8866328954378699
2025-11-24T18:00:01.855769,0.02997075192050483,0.48302892245415385,10.958958124435288,0.06938659718948627,-0.02335676916499577,0.8564876966072587
2025-11-24T18:00:01.865385,-0.05607481024225197,0.3078377602045055,11.24885659645826,-0.019118338767461603,0.059082903340282836,0.791211239790709
2025-11-24T18:00:01.875000,0.12626488088751892,0.051720096951110704,11.358300241886086,0.026285099832492737,0.08460073503643223,1.1442519980246615
2025-11-24T18:00:01.884615,0.28098407557215244,0.1357958547641591,11.233646653883604,-0.05534322801109534,0.032031529121051276,0.8947265659976207
2025-11-24T18:00:01.894231,0.2666291834649175,-0.005087345482201022,11.488104296764233,0.07480560726021514,0.10243643986656864,0.9257485460083097
2025-11-24T18:00:01.903846,4.330520495773871e-05,-0.0042484183294096145,11.597369182977765,-0.0330595895211578,-0.0011827031795572443,1.0729019017461148
2025-11-24T18:00:01.913462,0.04775525348028984,-0.004124048497752886,11.303568995091167,0.05304798204211128,0.01780451641386469,1.0017753102257154
2025-11-24T18:00:01.923077,0.337915597199616,0.3635975184480147,11.255512355791268,0.01055957436876796,-0.026009673731514218,1.1803036337079582
2025-11-24T18:00:01.932692,0.028530394803064366,0.05378570094298969,12.032043036164982,0.05500863936523186,0.12271559309772766,1.0028343569958063
2025-11-24T18:00:01.942308,0.11327063299230862,0.053870790152648944,11.655349722680324,0.056618038383459246,0.06092727033243944,1.0185838170833936
2025-11-24T18:00:01.951923,0.2708628190111916,0.21547290609055886,11.730770918846813,-0.03520992066313429,0.05624303113354835,0.976994483364487
2025-11-24T18:00:01.961538,0.0818029933482404,-0.07214747914596842,11.395085185194937,-0.08171406334654355,-0.06797008940016541,0.9568092106307624
2025-11-24T18:00:01.971154,0.0744497182805324,0.1661967156074194,11.834790501301592,0.044196277957429156,0.1283544108583562,1.0694714787976873
2025-11-24T18:00:01.980769,0.13341963145687843,0.11314584452257129,11.376087620940472,0.010862946242254558,0.022550693612374967,1.06310818488979
2025-11-24T18:00:01.990385,-0.024899560766293197,0.1450646588751002,11.842602334756258,0.061163219323422,0.007418436221218568,0.9769705259784025
2025-11-24T18:00:02,0.26227381353815904,0.14264509031979064,11.652798223499094,0.02462853832882663,0.047742033502368456,1.0790986497203605
2025-11-24T18:00:02.009615,0.22158600647507737,0.3044708861051575,11.854361288064135,0.0723386973845903,0.13067451895943685,0.9910977755638968
2025-11-24T18:00:02.019231,0.1184377580555585,0.1534826692834547,11.780549561475896,0.015426079012734694,0.003503019758448866,1.0558155524624768
2025-11-24T18:00:02.028846,0.07164262160959439,-0.11380554054873593,11.696067694100075,-0.12699264352770395,-0.021844491093504958,1.174660815840577
2025-11-24T18:00:02.038462,0.061406273597562074,-0.0653484043272565,11.65664461240872,-0.12950140092004103,-0.08548119864976109,0.932260173031556
2025-11-24T18:00:02.048077,0.2359457941238901,0.38897901361440856,12.111665114903118,0.02289627935012927,-0.0037698782713606917,0.8863226859473954
2025-11-24T18:00:02.057692,0.16276167018429594,0.029423662081612054,11.854210032695121,-0.04475945363162534,0.10155075176648262,1.0245909414352519
2025-11-24T18:00:02.067308,-0.10623481563133819,0.08252376559464826,11.958767412262553,0.04299348099551294,-0.07312577003424275,0.7529459514015425
2025-11-24T18:00:02.076923,-0.03425442359802916,0.25823257291582036,11.903632387779622,-0.02607002563159112,0.02242645786218653,0.8736273204837809
2025-11-24T18:00:02.086538,0.08189883757745926,-0.0027479824656824192,11.710505970725245,0.0017281546112639552,0.060468850712106725,0.8939202678807421
2025-11-24T18:00:02.096154,-0.0706529510068031,0.06101745317409871,11.646763251520783,-0.003838424621912938,0.09648190423068903,0.8683799304663855
2025-11-24T18:00:02.105769,0.11071088975442371,0.31922259702965095,11.623587046545518,0.13172194429630252,0.11101022398206432,0.7228243527761454
2025-11-24T18:00:02.115385,0.13385447844203058,0.12092925008149455,11.699831008778801,0.0310402555551594,0.008297263514909526,0.9245323094128314
2025-11-24T18:00:02.125000,-0.0788427537349482,-0.06691797642428537,12.001483402618868,-0.039526498041682,-0.09274710759164112,0.8000942664900733
2025-11-24T18:00:02.134615,0.07652443668591873,0.08112186108156293,11.886665927714287,-0.0459596377473198,0.10105307268845941,0.865335362840783
2025-11-24T18:00:02.144231,0.2720852860698296,0.254716622543788,11.762306548362703,0.08428566782238435,-0.08623690113686203,0.6744621767092891
2025-11-24T18:00:02.153846,0.062135617726358006,0.24675891232925304,11.869111479803665,-0.009085724645207346,-0.0013434510711536653,0.7429817819174874
2025-11-24T18:00:02.163462,0.18561409021271869,0.06565628142576956,11.575742203233574,0.053727806715841334,-0.003633832497953477,0.7140579212485624
2025-11-24T18:00:02.173077,0.11127077616885865,0.042352465734760876,11.817627711104807,0.03778150945616431,0.07879044270843999,0.6541264799567594
2025-11-24T18:00:02.182692,0.1503435622362326,0.08391494303848618,11.732084808764233,0.10101907765959914,-0.07688145487652644,0.6191615425206917
2025-11-24T18:00:02.192308,-0.001470294762488042,0.006875705140958449,11.545942745350807,-0.011524865403217382,-0.10897037942463135,0.6550156687657265
2025-11-24T18:00:02.201923,0.06832847656036686,-0.03636874312697791,11.425146734169791,0.06264907762746275,-0.033523488535947915,0.5053705371170122
2025-11-24T18:00:02.211538,-0.03166696946959488,-0.16219748341422494,11.456044363006031,0.024200584895321526,-0.022557704741573977,0.6397516880611129
2025-11-24T18:00:02.221154,0.09203325718717872,0.0017522408030111042,11.620561603182537,0.024268554617745724,-0.04107785844185746,0.6013320605809688
2025-11-24T18:00:02.230769,-0.036216098949822,0.08458860994443823,11.936500535672685,-0.03586658196561322,0.03707027109352082,0.42785610841313215
2025-11-24T18:00:02.240385,0.14637963582506244,0.25448421128402676,11.38347981912694,0.07656343932725006,0.07816510241821167,0.4223244422290573
2025-11-24T18:00:02.250000,-0.06472570411411577,0.0962224867503804,11.538268545075619,-0.0669788474364824,-0.03304289165299873,0.33742021626832297
2025-11-24T18:00:02.259615,0.31002525570594613,-0.037409281725133386,11.499865970659341,0.010991318943452016,0.1907606347534061,0.4361851398360952
2025-11-24T18:00:02.269231,0.1649426463640332,0.17021434836640453,11.2734914488253,0.05580029554530527,0.10104382220886639,0.3723833013899579
2025-11-24T18:00:02.278846,-0.026286726105492597,-0.06273032208760809,11.3551352972586,0.12963103358390435,-0.05689660749843434,0.18040887997850766
2025-11-24T18:00:02.288462,0.2514641390282099,0.1664402130800384,11.361649874622476,0.02604096628649468,0.08493647524939486,0.29891668820093376
2025-11-24T18:00:02.298077,0.08166906120176066,-0.040585526477328215,10.92104459515606,-0.0057906927948741145,-0.04943209485382889,0.19104575534128843
2025-11-24T18:00:02.307692,0.09112082751677507,0.18071965874407797,11.15943481556795,0.03910018407220736,-0.0007418027324880283,0.1692381932701062
2025-11-24T18:00:02.317308,0.576146331853386,0.07941430358618473,11.259683080518766,-0.0052104708820482,0.00026860156967944623,0.2253365165039124
2025-11-24T18:00:02.326923,0.26250511342238453,0.06037399009373949,11.150775437189038,-0.07874378741384003,0.007405235175674752,0.13461224962366483
2025-11-24T18:00:02.336538,-0.09625255635582694,0.1984550761217055,11.122676351971888,0.025263945812276256,0.0035300465487607784,0.06158500673710534
2025-11-24T18:00:02.346154,0.051076132246663436,0.19650388128391083,10.895723027642633,-0.019632460619326,-0.018969243848898153,0.15068089815186061
2025-11-24T18:00:02.355769,-0.19203608581252454,-0.10686564856666,10.807958263182561,-0.10365402199386986,-0.05773682964627597,0.07406327046998237
2025-11-24T18:00:02.365385,-0.02530349422569156,0.11383242187938396,10.748470853748888,-0.10606908098546554,0.0936306274385744,0.08016547439385872
2025-11-24T18:00:02.375000,0.11458752758436747,0.09717013313750972,10.765607701168566,0.06362423079464438,0.07360135014633339,-0.03525029336685817
2025-11-24T18:00:02.384615,0.11296680849053259,0.2763243428122003,10.62606358060722,0.05524346066373109,0.16007043287757883,-0.013701309531170283
2025-11-24T18:00:02.394231,-0.10435379361699251,0.12517963146274208,10.550993483631647,0.04143359270551303,0.09034131333885598,-0.13718554462588614
2025-11-24T18:00:02.403846,-0.1079760382897682,0.21153182066206855,10.379712825858663,-0.08563997162969615,0.0639598815931016,-0.11948657177883797
2025-11-24T18:00:02.413462,0.23302050163068178,0.22997142302372686,10.514277443223445,0.021954847971784854,-0.03195896089507759,-0.2715342767782355
2025-11-24T18:00:02.423077,0.07812080318580022,0.14223877146773758,10.530481784937946,-0.04500030970620837,-0.13816670682122165,-0.2929415289626769
2025-11-24T18:00:02.432692,0.03196171519782759,0.18292443422772345,10.414748767044319,0.0894371722406938,-0.05299129704487361,-0.36731420929633596
2025-11-24T18:00:02.442308,0.13453160748504395,0.31138396314417427,10.153324644149203,-0.046338662653371374,0.05292943673898309,-0.04055200380660712
2025-11-24T18:00:02.451923,0.28887203040595055,-0.011277971300173509,10.037525865119614,-0.07797404782157388,0.016221236622339402,-0.31008384377842807
2025-11-24T18:00:02.461538,-0.060705687194936686,0.03410626454787993,10.401064585468276,0.021338368437434245,0.07234611976370398,-0.41016048789720205
2025-11-24T18:00:02.471154,0.11148155329316352,0.2527983915806828,10.063229402622092,-0.07334216424053626,0.1957275683395776,-0.36579662125439155
2025-11-24T18:00:02.480769,0.23787574019710941,-0.033571208659770535,9.981537680731833,0.01651102852747992,0.11618697898649218,-0.4204173290156729
2025-11-24T18:00:02.490385,-0.055668445610587175,0.037679276254491696,9.804027188406108,0.036765611635784026,0.18619590529825913,-0.5242163427921165
2025-11-24T18:00:02.500000,0.10740344109493183,0.08556521047663443,9.970418368076912,0.1212403604099366,0.12945043135674608,-0.6704079025667655
2025-11-24T18:00:02.509615,0.11272918802923852,0.17225960941983814,9.638747999222247,-0.0039059627461301635,-0.10238422648059911,-0.5163605442013643
2025-11-24T18:00:02.519231,-0.006322959610244483,0.0034000888567710524,9.677944278354001,-0.006403636420428006,-0.021181598528722864,-0.5106891012152626
2025-11-24T18:00:02.528846,0.013083127776977524,0.4282360143686186,9.603885226230643,0.10078180025455112,-0.03052773247265991,-0.5405505857061174
2025-11-24T18:00:02.538462,0.11691963374497313,0.1311711661814422,9.529602483695877,-0.09379371883490395,0.10214608126086581,-0.5385291502214431
2025-11-24T18:00:02.548077,0.2535745779818009,0.2932883861232982,9.403243140988886,0.07343786128582737,-0.043633609917284266,-0.5801554305722556
2025-11-24T18:00:02.557692,0.05163876034563585,0.07581151234317096,9.43177511380287,0.059160216822526146,0.20401593029229234,-0.6456258274058545
2025-11-24T18:00:02.567308,-0.33143022544073786,0.10632166164582828,9.209786155864425,0.0395173583812194,0.03703091052746216,-0.5615476491552753
2025-11-24T18:00:02.576923,0.09644264808639483,-0.03626434315216551,9.292899464343266,-0.08292900984745927,0.04958290161499035,-0.6370572749641183
2025-11-24T18:00:02.586538,0.12237977421822496,0.34717675598748,9.031091047817831,0.048159695683153966,-0.03156118026068298,-0.7229719242926848
2025-11-24T18:00:02.596154,0.20004747900205333,-0.07504697074513389,9.13708534779903,-0.0036976382843447626,-0.04441426053134907,-0.8042750478202708
2025-11-24T18:00:02.605769,0.289939631176218,0.0734864153566704,9.3330399214147,-0.010315865785000343,0.05641534457802136,-0.778663120223024
2025-11-24T18:00:02.615385,0.10937419240592015,0.08253021107827228,9.047602213635084,0.08931309738146387,0.034401479165008006,-0.7148979263141096
2025-11-24T18:00:02.625000,0.3856757879331484,0.17293005890786145,9.085375502993648,0.13580613140954673,0.03223678147067344,-0.8363867651295464
2025-11-24T18:00:02.634615,0.11564618292836805,0.06821471549918084,8.716766180297759,0.002508440139763927,0.08849677232128367,-0.8057651814973
2025-11-24T18:00:02.644231,-0.00045016539412472134,0.1926178839287303,8.74528796682475,0.021906699019296705,-0.055913713742356985,-0.8124810768928844
2025-11-24T18:00:02.653846,0.1134519029045325,-0.09905637002046266,8.889713642679745,0.07390062765941716,0.00922330134193717,-0.8480022674251327
2025-11-24T18:00:02.663462,0.36223141205289433,0.059203361806101674,8.769428324906201,0.03391481960511759,0.09429728868530751,-0.7765734760082764
2025-11-24T18:00:02.673077,-0.14814929269237706,0.03004736481331423,8.281188707259847,-0.04029284915565519,0.09588964749310594,-1.0628634137777206
2025-11-24T18:00:02.682692,0.08976072996594454,0.07389881878424001,8.568431728803324,0.04908383904081287,-0.004502788050320682,-0.9627778448839585
2025-11-24T18:00:02.692308,0.3619073617372359,0.1426781642212399,8.49957974482684,0.09151395154459542,0.07143532997805963,-1.0093278557713274
2025-11-24T18:00:02.701923,0.26770087307178125,0.06466803013192962,8.182166596439583,0.10810795055185603,-0.030889921519866536,-1.1155270230063299
2025-11-24T18:00:02.711538,0.031098414872147095,-0.15927824586872777,8.31918455997051,0.031091040322764794,0.09659819614358203,-1.086932695699685
2025-11-24T18:00:02.721154,0.316804154705727,0.4382030259764299,8.21487565937068,-0.0692279600050899,-0.04193151568433455,-1.1389772518392278
2025-11-24T18:00:02.730769,0.02065544571500269,0.2001754836717951,8.201902821142385,-0.04470085718129273,-0.08597587264298681,-0.7989046255963013
2025-11-24T18:00:02.740385,-0.022768497538459706,0.19621130709071005,8.407920620821045,-0.015531793905676477,0.03337826702742862,-1.0944156194400043
2025-11-24T18:00:02.750000,0.03509913730610534,0.16579243860939413,8.025801258208835,0.08723122862195909,-0.0920731151398716,-0.9058630289848362
2025-11-24T18:00:02.759615,0.022908186539064693,-0.1192358928638601,8.25573729463864,-0.007310968767016254,-0.04558444434220152,-0.9025326399286383
2025-11-24T18:00:02.769231,-0.14435343841935533,0.10629954414674163,7.9421309594187495,0.12221250956561687,0.06721857578462878,-1.0863972108715603
2025-11-24T18:00:02.778846,-0.019015512246419647,0.20300397487814204,8.088201759728186,0.01768879966026136,-0.08614617889278756,-1.021235754995879
2025-11-24T18:00:02.788462,0.06043602800119182,-0.03238294938103864,8.018788721161808,-0.0337801798003456,-0.14803226829466104,-1.0433230601387362
2025-11-24T18:00:02.798077,0.23532707120695653,0.21945431547444422,7.920130959723012,0.052949043777968274,0.14064839667760462,-0.9601540885759202
2025-11-24T18:00:02.807692,-0.0193802453761011,0.17257240480634853,7.931826750843161,-0.03522804911621713,-0.023185019033983876,-0.9913617803066548
2025-11-24T18:00:02.817308,0.20105245341715414,0.17033885241117225,7.964380367953884,-0.07745249721683524,-0.008981334826499592,-0.9615321267453701
2025-11-24T18:00:02.826923,-0.2534778233326548,0.07109117378922264,8.014084867684206,0.03555611957650082,-0.10448056730491004,-0.9531247954073631
2025-11-24T18:00:02.836538,0.008000338127278447,0.17393672044874883,7.941130968728485,0.016420358261955474,0.04489006434603762,-0.9364641619579442
2025-11-24T18:00:02.846154,0.12248542253100497,0.2714710673847056,7.789809856371578,0.25745797907656176,0.06396464027552762,-1.0856840594888544
2025-11-24T18:00:02.855769,-0.17029228941239097,0.19863159011969772,7.835560435814491,-0.06062048922617026,-0.13299080620717013,-0.8024114006640117
2025-11-24T18:00:02.865385,-0.06495873248812609,0.026567626781867165,7.798175446780389,0.019544062425159322,-0.04665607348194854,-0.8484239561089378
2025-11-24T18:00:02.875000,0.20666066153672863,0.2496814386128192,7.89894775449655,-0.057400996713676836,-0.06146895059608036,-0.8818317525755135
2025-11-24T18:00:02.884615,0.25170996657503747,-0.07266824387706175,7.925204268456042,-0.11577093676954432,-0.1221496824959203,-0.8647222196302392
2025-11-24T18:00:02.894231,-0.06537597077344678,0.026155541132765664,7.9188752915780505,0.044873917946388446,-0.059082139335981956,-0.9270121579180276
2025-11-24T18:00:02.903846,-0.023670243363087567,-0.05143709624818274,7.825528134241126,-0.07129549816505185,-0.11761739684728793,-0.9216360960844928
2025-11-24T18:00:02.913462,-0.017504905250274483,0.04188099759732383,7.78318990699062,0.1434004764199861,0.005467260641592451,-0.7497403243775982
2025-11-24T18:00:02.923077,0.019061918789757076,0.18412475828357783,8.114731882862715,-0.002938330857815221,-0.04179395947316597,-0.7748010502210569
2025-11-24T18:00:02.932692,-0.01077912604360691,0.24777531100407169,7.543892999676411,0.08647048747011588,0.06927390871897571,-0.8759841352091664
2025-11-24T18:00:02.942308,0.11631559011540812,-0.060111448017513225,7.597963238611371,-0.01579758248849623,0.16582086340278873,-0.8249755948674036
2025-11-24T18:00:02.951923,0.15174467009603002,-0.13096837727399085,7.769185568975522,-0.09482580649995864,0.08282309958905842,-0.8597640500677676
2025-11-24T18:00:02.961538,0.20802922908166022,0.028250938212859136,7.775326691043586,-0.04177513218135645,0.08363443253416945,-0.8333503898724233
2025-11-24T18:00:02.971154,0.20534649150270606,0.06607554941703511,8.120437067401959,0.0072975109963455045,-0.04618471635822215,-0.7553591393705099
2025-11-24T18:00:02.980769,0.3499441286659499,0.1992557942081909,7.943191802847283,-0.0591711798570862,0.11985300057896757,-0.7174017698053852
2025-11-24T18:00:02.990385,-0.0496878151166017,0.0032445683931860148,8.078167373493772,-0.09536201835885043,-0.03524828211531311,-0.760055220038719
2025-11-24T18:00:03,0.14022973993491833,0.04017606269871457,7.750471939344644,0.30977556016626384,-0.10527005893954584,-0.6697561042070108
2025-11-24T18:00:03.009615,0.0713267244441153,0.4664340375205719,7.7621609959528595,0.0859981355868524,-0.027212550359659488,-0.6098195955905503
2025-11-24T18:00:03.019231,0.07054942005580475,0.23316534958969773,7.8457030189290995,-0.02411269498413841,0.1060005663048085,-0.581654258489813
2025-11-24T18:00:03.028846,0.15196274323059994,0.15641158146580023,8.033920508485629,0.06082378225532127,-0.06593564815583569,-0.636270490207985
2025-11-24T18:00:03.038462,0.1478387951299045,0.12120732352157133,7.978702702789138,-0.08864728988395253,-0.16106426223252587,-0.4962294895294327
2025-11-24T18:00:03.048077,0.3512329140948275,0.12127365093754575,7.925073550774379,0.027094549567290963,0.04372448805533684,-0.5390129970862741
2025-11-24T18:00:03.057692,-0.008543386408473796,-0.039325824593089254,8.134962392313822,0.1504513701462901,-0.0934343458020205,-0.5586472834640283
2025-11-24T18:00:03.067308,0.3944562949708931,-0.027077133882889043,8.270749653469597,0.024462851119994015,0.10173813537579923,-0.38709306757168593
2025-11-24T18:00:03.076923,0.22070651133106722,0.1924812876467141,8.050103739429593,0.06760882066768859,0.02880261666095644,-0.39149256866660875
2025-11-24T18:00:03.086538,0.0391988221965854,0.04127923675617786,8.315553533412874,0.036509040449537844,0.07496530322909918,-0.29671943435345505
2025-11-24T18:00:03.096154,0.1565487263689232,0.5018704786344742,8.532920930193521,0.0433390359897804,-0.02963295651399885,-0.519760148039785
2025-11-24T18:00:03.105769,0.20997006520857273,0.21021194666003812,8.00989169176531,0.06056399145607691,0.03716014952550094,-0.5306654819321223
2025-11-24T18:00:03.115385,0.21151729667766445,0.13465196260375392,8.452817636503767,0.09995581574806889,-0.0010161228521146752,-0.27009528867730054
2025-11-24T18:00:03.125000,0.08509024171350549,0.2564995691234567,8.555513977345441,0.053906681909126675,-0.05113388002250896,-0.18414257054327504
2025-11-24T18:00:03.134615,-0.008142108111942756,0.19378809755260815,8.43180646514485,0.04653561858312401,-0.03797910242581136,-0.2314889953486863
2025-11-24T18:00:03.144231,0.29117162327426327,0.023323451380266744,8.584201053016393,-0.06745288810353374,-0.1455726540759257,-0.22203938427771347
2025-11-24T18:00:03.153846,0.243537055239668,0.13091253903382483,8.41273512321499,-0.031638723256834964,0.17591448927470504,-0.16882517097204364
2025-11-24T18:00:03.163462,0.27669862407776613,-0.1319252834309028,8.447105609590515,0.046375060151806605,-0.06833752622945376,-0.030552453065089788
2025-11-24T18:00:03.173077,0.17608429038274423,-0.07342402648501231,8.460482298430442,-0.014436055212919827,0.10854585545457449,-0.13849439380017603
2025-11-24T18:00:03.182692,0.11565917588966705,0.0945341117089423,8.742701670146522,-0.07576166007762354,-0.019703598934123445,-0.004070723825607792
2025-11-24T18:00:03.192308,0.32098915879849754,-0.06984864923376949,8.762964406593762,-0.03453068650444062,-0.0392735802533085,0.07635028112371069
2025-11-24T18:00:03.201923,0.06475884791244499,0.08354557573772323,8.68198980716699,0.1434552533851437,0.0047709012850627106,0.17242415135325437
2025-11-24T18:00:03.211538,0.28384329004590714,-0.12728142266103196,8.980864340652566,-0.12134315982474371,0.01832993384433219,-0.05948885235818212
2025-11-24T18:00:03.221154,-0.2250040479971296,0.03055544492248259,9.047438478991396,0.02485242636262765,0.15159514313560843,0.1716592002807389
2025-11-24T18:00:03.230769,0.2198860355732584,0.009901123239311457,9.062035870034157,0.014870526077638595,-0.015945938388848408,0.1661510710681325
2025-11-24T18:00:03.240385,0.22211617409149484,-0.06592380724670646,9.048994937572646,0.023930239206875627,-0.09187939225002402,0.2514639291491936
2025-11-24T18:00:03.250000,0.2921960596943204,0.3038403573210014,9.04397146735327,0.017265719449226186,0.009559718957285626,0.20288347861156705
2025-11-24T18:00:03.259615,-0.04326438847096761,-0.20574577173963862,8.931065895880224,-0.024683821746325513,0.03306534593944186,0.14893756447516865
2025-11-24T18:00:03.269231,0.28850494489358647,0.2894282324552053,9.673138277764004,-0.009203098126389416,-0.0780917844750524,0.45300024357140345
2025-11-24T18:00:03.278846,-0.052553719333395865,0.40096480388268774,9.330621988363706,-0.10750565084145201,0.048828471987289485,0.23100478912408093
2025-11-24T18:00:03.288462,0.26532110364346306,-0.06344552415506521,9.434167588856534,0.07667860589159307,0.1228148744554844,0.3556742312449204
2025-11-24T18:00:03.298077,0.15952549098351218,-0.07382354946001507,9.495789857326209,0.01818554985176454,0.03623598243306995,0.3854757357669544
2025-11-24T18:00:03.307692,0.09637653315042553,0.040008709948622274,9.511672281638416,0.03748914110336306,-0.18026236267857754,0.43976906960776235
2025-11-24T18:00:03.317308,0.09754429053864197,0.06940134951336407,9.678059344571679,0.03273488845255054,-0.12940097660609448,0.5282759520794792
2025-11-24T18:00:03.326923,0.1895704674179481,0.23463041886353866,9.866770218509467,0.08484225464986583,0.12414469537291131,0.33079874239793183
2025-11-24T18:00:03.336538,0.18604562411683445,-0.11983592651506392,9.817713430129727,0.030166724021541705,-0.033251451996733405,0.5503794751932506
2025-11-24T18:00:03.346154,0.2824614279589056,0.11286100575575839,10.063066745383862,0.06455973591594442,0.07817768576683701,0.5518677384058325
2025-11-24T18:00:03.355769,-0.10616127798902911,0.09205067349559537,9.755892009346868,-0.02858172393323778,-0.06037675560521698,0.6371798504175097
2025-11-24T18:00:03.365385,0.40348616779566726,0.28789700936505275,9.9938114637308,-0.005642491688100222,-0.046991005216172346,0.5267037167763341
2025-11-24T18:00:03.375000,0.3836402645571717,0.19107322403613486,10.3088227140802,0.007521141575524035,0.02577685451580747,0.7441928267998503
2025-11-24T18:00:03.384615,0.05987146208926595,0.042262152528170574,10.394371224382837,0.052888246573759096,-0.1223394491756009,0.7177192099698109
2025-11-24T18:00:03.394231,0.2482104580569343,0.08185080729917252,10.159830836115372,-0.06321892358434333,0.03812340422318129,0.7033096711742229
2025-11-24T18:00:03.403846,0.3946773147565662,0.12271489475141016,10.291757213484846,0.05556108336385243,-0.12629715060738037,0.6357183326808526
2025-11-24T18:00:03.413462,0.15951051234728564,0.13843828778003883,10.463450851066598,-0.08592764516262327,-0.048613316361826794,0.750877456242421
2025-11-24T18:00:03.423077,-0.04536295038248159,0.1518559135650941,10.55444235644917,0.10094132746093482,-0.0708469147660854,0.8038063894560598
2025-11-24T18:00:03.432692,0.08204613367361066,0.20037940197606544,10.461154835421414,-0.06875682381313378,0.040225749631956687,0.5876432900225901
2025-11-24T18:00:03.442308,0.18423271304465422,-0.1645677354308118,10.529177285887494,0.058251451507167776,-0.024509551751183408,0.8553260494619404
2025-11-24T18:00:03.451923,0.3315419170351118,0.08024128319514832,10.593626268383195,-0.07035754671996443,-0.011271544721725407,0.7030461830670691
2025-11-24T18:00:03.461538,0.08152583094933555,0.07645961396669651,10.702023099120638,0.045531495420049,0.01133885959486959,0.9328643722811397
2025-11-24T18:00:03.471154,0.12512698605870703,-0.06961583463944704,10.70229033591197,0.051631263268827166,0.019524442413873806,0.991184636191321
2025-11-24T18:00:03.480769,0.18902797843801494,0.021874937688924304,10.658850417882613,0.05232685989648338,0.010589408278099,0.9239454755551056
2025-11-24T18:00:03.490385,0.2945062953126891,0.11684109420125577,11.03506330184183,-0.03408471899811477,-0.07729517807254217,0.8759630730118027
2025-11-24T18:00:03.500000,0.08271013657736825,0.21834212383969703,10.826949756717424,0.03797494013539217,-0.06385575375386332,0.8892631588420778
2025-11-24T18:00:03.509615,0.12838954981621203,0.19457996023074164,11.005747743753442,0.011488552527485036,0.014377000353584881,0.7842913168234756
2025-11-24T18:00:03.519231,-0.012642710100137775,0.16932899085160913,11.106978703353768,-0.014169588783331886,0.0331663344388463,0.957640663072755
2025-11-24T18:00:03.528846,-0.14412629716999178,-0.12136775634110858,11.249395235517431,-0.05302209123786755,0.030894869130944733,0.8468672169021088
2025-11-24T18:00:03.538462,0.17931117384634793,-0.02145487775368128,11.257724431203185,0.1349383764207531,0.08222485335195684,1.0674660339083857
2025-11-24T18:00:03.548077,0.18009904984403302,0.2461214992468751,11.221512381251147,-0.07226466185190002,-0.0624648774682349,0.9136237971867689
2025-11-24T18:00:03.557692,0.012098362112154482,-0.11587040166900656,11.248416130991158,0.04347210525473853,0.20221106184084858,1.1423923473135809
2025-11-24T18:00:03.567308,0.2678726423488896,0.06226264828156184,11.425673092408891,0.11538132122293909,0.004138478552621928,1.032341583169773
2025-11-24T18:00:03.576923,0.028368068321236048,-0.13545835407839016,11.461770816361177,0.10996838411863366,-0.10940884636683586,0.8866015545795218
2025-11-24T18:00:03.586538,-0.03119002763624945,0.27513417805198503,11.501224715068185,0.10382397448309792,0.03487797666501845,1.0678813478799407
2025-11-24T18:00:03.596154,0.16418611457975724,-0.11855751002060105,11.444437663395044,0.06055193672524807,0.025542726682595038,1.0777484852759174
2025-11-24T18:00:03.605769,0.06794525373899027,0.29496036072434717,11.500118998146599,0.0914938497844466,0.014803683688053898,1.0951183989826694
2025-11-24T18:00:03.615385,0.026957695632027795,0.10796222878607564,11.754220605885466,-0.06010118161557862,0.0640384228715499,1.0499737858884897
2025-11-24T18:00:03.625000,-0.07382096748090411,0.18618894245553458,11.54784149493472,0.05910353472302304,-0.04420738548006506,1.0634547770165148
2025-11-24T18:00:03.634615,0.12264986245511356,0.020869598852606808,11.903553396083156,0.005593918501831075,-0.17853407541063623,0.8522632562405692
2025-11-24T18:00:03.644231,0.32938038842204465,0.11026178251399844,11.464079703364801,0.06901047586743966,0.1351567800233614,0.9992865983077385
2025-11-24T18:00:03.653846,-0.23091764240655985,0.03220322190066216,11.419978113501593,-0.03439843449328954,0.040398985179320834,1.0739097878103105
2025-11-24T18:00:03.663462,0.1877767559376181,-0.0047107666151310484,11.84559366840476,-0.0454849724333435,0.011430182503194102,0.980893332510417
2025-11-24T18:00:03.673077,-0.030744245721946034,0.07012254026317644,11.832010737122905,-0.0379112235189326,0.04883016218085031,0.9596084420002249
2025-11-24T18:00:03.682692,0.17257123376292713,-0.14855229217871035,11.716818259668587,-0.08523694566605367,0.11629077581838815,0.9985656156881509
2025-11-24T18:00:03.692308,-0.003431676050618851,0.14208980201724825,11.906089161939201,0.21311264283151715,-0.04611814328066703,0.9853164258792565
2025-11-24T18:00:03.701923,0.28844467108211247,0.28774264747382877,11.693603011886918,0.11311166373703216,-0.09863631351221727,0.7903821215136891
2025-11-24T18:00:03.711538,-0.12784532997585576,-0.10771116866928274,11.920777736013736,0.14943536838046403,0.056248745608437525,0.7837806257001549
2025-11-24T18:00:03.721154,-0.07574926817466576,0.05707353789907393,11.72009761150274,0.10532712500401763,0.14934957843696617,0.9597386569865847
2025-11-24T18:00:03.730769,0.32812865001895014,-0.2457032875591255,11.751445015699337,0.042999480094857545,0.2338458281647682,0.9103451844824227
2025-11-24T18:00:03.740385,0.18564451433621168,0.23323292987627667,11.46648992532138,-0.03317795452298933,0.07264489369450544,0.7657069464329532
2025-11-24T18:00:03.750000,0.05368863193919798,-0.20158131471322596,11.923292282725505,-0.05466762786879675,0.1405455548592648,0.8662160597817301
2025-11-24T18:00:03.759615,0.17814059514396874,-0.03006504699863241,11.682651906944695,0.033031416899667196,-0.02590944168116156,0.8755776662798762
2025-11-24T18:00:03.769231,0.379248905298571,0.21869211722965673,11.954333299187804,0.017262058951049045,0.10876664500353751,0.9567242835357286
2025-11-24T18:00:03.778846,0.25420869739632834,0.24847521577580825,11.875140249892812,-0.0624887651940101,-0.006265729312224178,0.8019077485073528
2025-11-24T18:00:03.788462,-0.15858945454079312,0.22460106982803527,11.733428633640592,-0.16923259290860324,-0.024744925033174877,0.939940207945079
2025-11-24T18:00:03.798077,0.045774027398851204,-0.09123401245245782,11.712975634206884,-0.15158372543711057,-0.0020908462170499756,0.7643156349619203
2025-11-24T18:00:03.807692,0.08681429009490219,0.1322257569452699,11.62710746927949,0.051814973417863536,0.04340086503882728,0.8052696618245976
2025-11-24T18:00:03.817308,-0.07796092796826404,0.17627035352720427,11.765401990632443,-0.014456965759347174,0.024271060388830784,0.7168566850668648
2025-11-24T18:00:03.826923,0.012546397650632965,0.10347915327482178,11.973342211653499,-0.043898286770851044,0.034538518847062646,0.7037892511233512
2025-11-24T18:00:03.836538,-0.09860863859839838,0.16620324801306757,11.63051442109921,-0.03965646073689644,0.11908962775465816,0.5831777374198249
2025-11-24T18:00:03.846154,0.16808661852676418,0.11917119728279033,11.741298287188933,0.07527108169369146,-0.002500679818480015,0.435275015320766
2025-11-24T18:00:03.855769,-0.10498211678863895,0.2255637454303924,12.039380722004356,-0.022700399678880673,-0.05832944397615382,0.558168386030447
2025-11-24T18:00:03.865385,0.1430488764947158,0.057003408487207856,11.580804518536137,0.05552847352126604,0.008803571562830457,0.6503574565708894
2025-11-24T18:00:03.875000,0.16563733342497272,0.03302069423808429,11.38683113349071,0.05159485985418212,0.03965962552611539,0.6552586972296288
2025-11-24T18:00:03.884615,0.22345473540657745,0.11490357803307973,11.302652901511856,0.13468329909666696,-0.04200726220566457,0.4585042480979661
2025-11-24T18:00:03.894231,-0.17440886573680434,0.24368517438438883,11.27714464590962,0.11140197129466975,-0.035333141540544954,0.32449757320787453
2025-11-24T18:00:03.903846,0.21740324885658635,0.13772521884882402,11.463215062125741,0.06111138430295139,0.03970137266995584,0.49207041573266114
2025-11-24T18:00:03.913462,0.34581465142215495,0.15192069717272874,11.341017606500655,0.029698937991065738,-0.0872665461365791,0.4457297165063441
2025-11-24T18:00:03.923077,0.19998365233875692,0.13206342998865606,11.087139465402158,0.01688211463512814,-0.04265522419120776,0.32134880006024397
2025-11-24T18:00:03.932692,0.2162515885840794,0.0999038318761319,11.384258468132742,0.0950503492441111,0.16888265739923766,0.4551037384458028
2025-11-24T18:00:03.942308,0.33035527246310215,-0.22560763888457633,11.298374276337992,-0.008682583644315765,0.26096625264988954,0.4378737581773356
2025-11-24T18:00:03.951923,0.18597216717059423,0.044880329920813936,11.018267918060689,-0.007166545139758996,-0.008232007332085386,0.35563473670346246
2025-11-24T18:00:03.961538,0.23854337259475977,0.10381369855485134,11.26954895256011,0.0770139714178017,-0.10425197826581105,0.2666567187503499
2025-11-24T18:00:03.971154,0.3057956295544727,0.08989502548320237,11.303581598542486,-0.10051188694105677,0.011312106916104063,0.17884280233104763
2025-11-24T18:00:03.980769,0.23450305978092686,0.05893954629248365,11.359904816928612,0.08435307956533561,-0.0009308406611787771,0.14553077496246336
2025-11-24T18:00:03.990385,0.23602532522591593,0.06223973661845678,11.02893785669645,0.11255351695326438,0.14082447367939932,0.052709459796067754
2025-11-24T18:00:04,0.2839238624392733,0.20912486158976196,10.87816824700596,0.047842840774630614,-0.07300054404665435,0.10998854323764796
2025-11-24T18:00:04.009615,0.2069951794230908,-0.19646045988062757,10.841431164371128,-0.08065210841519377,0.003651873332277601,0.22813171170970548
2025-11-24T18:00:04.019231,0.07892810450491122,0.0967058585701888,10.780925939540634,-0.014105672056650542,-0.1527842740508226,0.11355913577467996
2025-11-24T18:00:04.028846,0.23972291876207877,-0.008560590193775267,10.560312919990492,-0.07279684612636698,-0.08211951927414597,-0.10368220193251512
2025-11-24T18:00:04.038462,0.20526995304451867,0.19478157133507684,10.794856219141128,-0.02701537758767324,0.08002328332929534,-0.018535454486758193
2025-11-24T18:00:04.048077,-0.03371646870907552,0.18222322599032803,10.392616777047555,0.08069047074999135,-0.027811303856364582,-0.18761212289132115
2025-11-24T18:00:04.057692,0.197912602653455,-0.04569411199463966,10.4705148377256,0.06140192393903736,-0.07823488507064125,-0.15752486532212262
2025-11-24T18:00:04.067308,0.1871783978243758,-0.1728054412873106,10.391208853703754,0.03144742010957296,-0.05847082170183043,-0.09284910348675164
2025-11-24T18:00:04.076923,-0.08915614304813418,0.3018231482457383,10.338671517994715,0.03857904464151999,0.12817317973722078,-0.07291690610879145
2025-11-24T18:00:04.086538,0.0499308214923094,-0.11416621614791539,10.41980350081627,0.07531609975950705,-0.020320095365141063,-0.21417246825877592
2025-11-24T18:00:04.096154,-0.23777472307927386,-0.23322634263963463,10.17964007087274,0.13792460485080357,-0.03137322848990566,-0.1392815056942908
2025-11-24T18:00:04.105769,0.2590660710180955,-0.10315316326868196,10.372239683376142,0.2205550478284417,-0.126073018394273,-0.21729729601653142
2025-11-24T18:00:04.115385,0.2457323668080909,0.0981563410673585,10.203963455158695,-0.03218763241351223,-0.009397750191628421,-0.36798054469047536
2025-11-24T18:00:04.125000,-0.021931125958783382,-0.13327851433619872,10.373231472882587,0.0684925749645375,0.03751054967064851,-0.21224635024938607
2025-11-24T18:00:04.134615,0.2801879870944103,-0.07570321868997035,9.96228995951542,-0.00807445027329725,-0.1724644862880079,-0.23706134919137886
2025-11-24T18:00:04.144231,0.1955244362627534,-0.012425115396971581,10.218793336994795,-0.004429350308451926,-0.10672757506220439,-0.25234378313986006
2025-11-24T18:00:04.153846,-0.020879184628189662,0.2648770553529429,9.972471647656713,-0.06229724750100242,0.02091430845354736,-0.3764905867208594
2025-11-24T18:00:04.163462,0.22342503548721726,0.13135495743087539,9.644299598291456,0.1734241855717856,0.002722929520557211,-0.5817773836688989
2025-11-24T18:00:04.173077,0.07686746448706638,0.17413846776355646,9.767672308448606,0.05148031739008774,0.1712079782887698,-0.3034832098412469
2025-11-24T18:00:04.182692,-0.029306745855224442,0.1171985423420038,9.683928382235061,0.06733985369682782,-0.14093433017652168,-0.45570793696105055
2025-11-24T18:00:04.192308,0.012722795567391726,0.12331339044537555,9.70226242767454,-0.09062581158976662,0.07965436462881298,-0.593632358807582
2025-11-24T18:00:04.201923,0.24261059361538104,0.18412436438636787,9.458185561199482,0.12547992085781454,0.1779227986931909,-0.537160947791402
2025-11-24T18:00:04.211538,0.008551085217674143,0.32149766984179173,9.523384827660703,0.039179110166308054,-0.021514716337626822,-0.6273112403570582
2025-11-24T18:00:04.221154,-0.13096088263709635,-0.058063166227267204,9.251997713855983,0.13960462084579456,0.06261196390664772,-0.7233059714270229
2025-11-24T18:00:04.230769,-0.11926653514315899,0.3689177107000614,9.131140026004507,-0.10136605704260178,-0.0808794464961118,-0.6462450981615278
2025-11-24T18:00:04.240385,0.07921440760570629,0.06558471383879788,9.271756783785099,0.03509178478101144,-0.02183072406525002,-0.6805769268499036
2025-11-24T18:00:04.250000,0.11763610030330357,-0.20366333676622542,9.359122766085457,0.06623083531840365,-0.09032797014699163,-0.619149268457744
2025-11-24T18:00:04.259615,-0.05380370477752014,0.006684716982984076,9.080923982182366,0.13040556475822954,-0.10465025641287609,-0.7798905714008875
2025-11-24T18:00:04.269231,-0.0837241083807923,0.13917188475193515,9.057318027476919,0.030884371997227645,-0.07289379617986036,-0.7796931062194868
2025-11-24T18:00:04.278846,0.1704100446233464,0.17869682162363057,9.141884511705372,0.05979828520665431,0.09266390504562115,-0.9234821416480157
2025-11-24T18:00:04.288462,0.15582631046933398,0.08907320784228444,8.741680785977666,0.003986154353586267,0.008382236476935334,-0.8227275859796727
2025-11-24T18:00:04.298077,-0.05069877620538038,0.04165190871162669,8.837863010169299,0.011877782733975146,-0.08896283851256699,-0.8468394242556676
2025-11-24T18:00:04.307692,0.2047020569649744,0.34905891033986225,8.742199343072551,0.05107965289656598,-0.007095137092286645,-0.9184502943822378
2025-11-24T18:00:04.317308,0.2786848838060153,0.2669698102675503,8.851571024368004,0.16921566933270174,-0.18281615412829316,-0.9902512454671442
2025-11-24T18:00:04.326923,0.15751753976979366,-0.09021910341883532,8.608383559194518,0.10409924021221731,0.03295150650721157,-0.7786218126677195
2025-11-24T18:00:04.336538,0.1583404565945291,0.08729454583721954,8.578484946805677,-0.10671609844023379,0.12978085918832827,-0.8846954842444199
2025-11-24T18:00:04.346154,0.20863675728727182,-0.16405525539167357,8.754954812229032,0.15974586496372775,0.033243775619732095,-0.8993091209173235
2025-11-24T18:00:04.355769,0.11125226072474345,0.22760519399212548,8.500947187341742,0.03722918938235477,0.00702712768290897,-0.8929383502114482
2025-11-24T18:00:04.365385,-0.16162024430488622,0.11306257953885691,8.650119405969129,0.06937922303773138,0.05760295091025722,-0.8269951351239113
2025-11-24T18:00:04.375000,0.14623614445031816,-0.10089946715625325,8.349785610631386,0.13296762567268533,-0.007354712460109547,-0.9629390953209236
2025-11-24T18:00:04.384615,0.20755998350844634,-0.07036105851317626,8.388950537848316,-0.02052881928358932,0.0842281107137319,-0.9977330494074382
2025-11-24T18:00:04.394231,0.10744080195626345,-0.05749766402958692,8.298667215548816,-0.0610486322293729,-0.0018032792630926081,-0.8717547816047013
2025-11-24T18:00:04.403846,0.0404954746537566,0.14540358846241394,8.407024312200221,0.040771353263392554,0.06593778175317841,-0.9756352676050081
2025-11-24T18:00:04.413462,0.26156249648247487,0.016901514371471693,8.190811548098807,0.09792820623412798,-0.09527434086254906,-0.9880459293309004
2025-11-24T18:00:04.423077,0.010554277481725396,0.12807225461014263,8.566238399236157,0.0847603304088813,0.11777248158856289,-1.0562705832582475
2025-11-24T18:00:04.432692,0.13488241820059954,0.13148665490549793,8.036534630652701,0.09595858158533307,0.08968356635499736,-0.9307064465771434
2025-11-24T18:00:04.442308,0.035792473666678384,0.03389381335053554,8.18319524354122,0.02586772804978142,0.09807275544914394,-1.0905220118307866
2025-11-24T18:00:04.451923,0.3057802159811197,0.1828576150571382,8.005994531094203,-0.037357832217944184,-0.07226418674178799,-1.0473835272428225
2025-11-24T18:00:04.461538,0.12639761261614726,0.19230308154749567,8.032386436029508,0.07760577636970349,-0.050096770894340364,-1.006785625794713
2025-11-24T18:00:04.471154,0.2848291458996765,0.22544142744299422,8.271715701288766,-0.13412220474493042,0.08597031552359813,-0.977327912848022
2025-11-24T18:00:04.480769,0.036693762161667864,0.3156532240603795,7.742122029008335,-0.014331041545640567,-0.0016568573879733421,-0.9227444377720159
2025-11-24T18:00:04.490385,0.006548043263701467,-0.004319455400541308,7.951858941373966,0.02497617648177028,-0.012181107396340322,-0.9991486954184097
2025-11-24T18:00:04.500000,-0.06041029765725428,0.25376198628861857,7.87196123400987,0.06609712137738769,-0.13474543093434277,-1.3411489981450395
2025-11-24T18:00:04.509615,0.24968495647139183,0.3645312296070743,7.887463903676365,0.11830614374121691,0.00035674567934413856,-1.099015335696359
2025-11-24T18:00:04.519231,0.11481197837861228,0.011205497792541083,7.944606045994449,-0.043777348040845154,0.03933021929803501,-1.0094681643168573
2025-11-24T18:00:04.528846,0.1859933955167598,-0.11169781567358861,7.772516441767015,-0.01821627560934493,0.2335381691379047,-0.9557210079060573
2025-11-24T18:00:04.538462,0.23021009777892243,-0.07106268404830338,7.753351518808191,-0.1357195715438611,-0.07243731104700973,-0.8405563573500061
2025-11-24T18:00:04.548077,0.21400018937814946,0.1906385110426046,7.806512552620501,0.08442362053678495,0.20476000771604858,-0.8027275275299356
2025-11-24T18:00:04.557692,0.12872499346970864,-0.00215712839200749,7.984585279064166,-0.028566786727407107,-0.02718429342175523,-0.9424068703123912
2025-11-24T18:00:04.567308,0.11555012258225478,0.15027040383942689,8.03478169196912,0.08873752064730582,-0.11700893246010781,-0.9093288701310911
2025-11-24T18:00:04.576923,0.08734568987820637,0.02610824700052357,7.888945677430422,0.08577298300215146,-0.05547088851324844,-0.8115176281639304
2025-11-24T18:00:04.586538,0.2516189774482167,0.07740183250833263,7.871258368153241,0.09134649938835027,0.06909616559889616,-0.787658246388424
2025-11-24T18:00:04.596154,0.06091392835682422,-0.07611618225831418,7.697666563189182,0.043960357396770414,-0.0984740437666418,-0.8801190175263731
2025-11-24T18:00:04.605769,-0.11169483946314337,-0.0012408743139723233,7.965557639094705,-0.14229916134219503,0.23003964967866025,-0.9310908599762422
2025-11-24T18:00:04.615385,0.2891865877540262,0.16405558052713737,7.929125233971694,0.060520094212198144,0.058204817747770116,-0.8698637671563709
2025-11-24T18:00:04.625000,0.37480869294347385,0.038855204523257456,7.747042783169477,0.007059492530205274,0.04602078084189727,-0.6796680439268529
2025-11-24T18:00:04.634615,-0.06848721071238154,0.11755328211675731,7.785881336223458,-0.016069521973931165,0.12027417507297429,-0.7692985971392172
2025-11-24T18:00:04.644231,-0.02691349609291893,0.17608554472483443,7.801187436193184,-0.06146858162898672,-0.0618904601466576,-0.7476905260392808
2025-11-24T18:00:04.653846,0.2833314942797216,0.19388856668059296,7.851773077315402,0.04664786658728255,0.06358934518431653,-0.728042643483644
2025-11-24T18:00:04.663462,0.07254667952229779,0.4870140585856807,7.874536720064077,0.03008110876649487,0.047274317766374196,-0.6964350214424363
2025-11-24T18:00:04.673077,0.0739248373421523,0.29324052273060863,8.14529027395796,0.11925974489097767,-0.11230401633231711,-0.6657277388390542
2025-11-24T18:00:04.682692,-0.01064587810881816,0.13615122537185304,7.856350330928475,0.08124010055214317,-0.061435633999795,-0.5607941079757833
2025-11-24T18:00:04.692308,0.09184378825875963,0.2574529594159012,8.153523448132042,-0.05848430981760308,0.07536915524195421,-0.49612331673490084
2025-11-24T18:00:04.701923,0.31475681749231055,-0.008588576850504528,8.09508705553114,-0.05530889302289782,0.01040874335099197,-0.43911099436158396
2025-11-24T18:00:04.711538,0.08956004982304787,0.010638811253972896,7.921798091856281,0.032749751081991865,-0.0769818380071181,-0.44216750471406996
2025-11-24T18:00:04.721154,0.09381165141648526,0.18318446475757466,8.100769855056042,0.016722219316651472,-0.008330294654903366,-0.3795729810516311
2025-11-24T18:00:04.730769,0.051555734027936714,-0.013220458799096113,8.319275488059427,0.09400848498729454,0.11298475809020442,-0.40837804333031996
2025-11-24T18:00:04.740385,-0.15286360347636727,0.39044861794888786,8.003006324900262,0.013520461584967971,-0.049648776024768124,-0.4449273469921113
2025-11-24T18:00:04.750000,0.3348484750494617,0.1991485209362025,8.25914898863227,0.0842189245525509,-0.11363850038798103,-0.31141682505235213
2025-11-24T18:00:04.759615,-0.1399667167643667,0.029183427630733533,8.06067228698651,0.15845441796628426,0.051103487710319674,-0.38839208698878447
2025-11-24T18:00:04.769231,0.06866206607554856,0.15119824537339727,8.600452192808437,0.11379558631700122,0.059630229083106404,-0.33048646809217497
2025-11-24T18:00:04.778846,0.21880458694145005,-0.02135557972493332,8.38955700859763,0.17678274479470965,0.02608632741779809,-0.4222253555668253
2025-11-24T18:00:04.788462,0.028228095864256397,0.20908620545119203,8.474152538584674,0.07441561875752084,0.07324864270436451,-0.2384455286763218
2025-11-24T18:00:04.798077,-0.013997903403358311,0.2046148339958334,8.710415022688558,0.01550390980337338,0.010615533250814775,-0.1653115414708435
2025-11-24T18:00:04.807692,0.07036512818025342,-0.14445963084602598,8.408651357095536,0.04156201634166212,0.0817026080984006,-0.13618882254397316
2025-11-24T18:00:04.817308,0.26734299250550014,0.23871430779044256,8.488165069689149,-0.07142360625371363,0.06460924338243033,-0.05166770975512161
2025-11-24T18:00:04.826923,0.0029870277884767316,0.09473955624294786,8.81289410591803,-0.058070416208120146,-0.09908345298468818,-0.03342898114530804
2025-11-24T18:00:04.836538,-0.10242982398943529,0.04220506238662331,8.587850936547689,0.01996715306175611,0.03467120364914175,-0.1904327355931431
2025-11-24T18:00:04.846154,0.08957706941817739,0.133034449636534,8.529805942827792,-0.00816389845130194,0.17962335227240248,0.09054760772662776
2025-11-24T18:00:04.855769,0.22909734377458962,0.16552550365288782,8.936754498036025,0.10104428638932193,-0.06031363695345146,0.0823184189924573
2025-11-24T18:00:04.865385,0.009687653284911932,0.3111853899195858,8.927640950584996,-0.14269116750441446,0.05103077733666772,0.06880431396455607
2025-11-24T18:00:04.875000,0.13876346517720778,-0.07279307473855648,8.896121334243146,0.08269261739494764,0.08327004491493885,0.07050715597908651
2025-11-24T18:00:04.884615,0.3430040570173382,0.1792034615236505,8.774773895916354,-0.1855841439856126,-0.0007297162272434238,0.12032338798197259
2025-11-24T18:00:04.894231,0.09894538287933144,0.016997795336053473,8.907926408117369,-0.09027412263878068,0.03460654623222964,0.1258133318096897
2025-11-24T18:00:04.903846,0.14932552855897013,-0.06428481981145756,9.554407801786326,-0.07582649355138639,-0.060194284043343343,0.1539283811291965
2025-11-24T18:00:04.913462,0.08560334528099597,0.2806503507861231,8.84631823554132,0.29690628344142717,0.14229002496560642,0.18884967584558202
2025-11-24T18:00:04.923077,0.2655908461031121,0.2420953638993566,9.207392566511151,0.030916841480729863,-0.10152986102707853,0.2845248520686768
2025-11-24T18:00:04.932692,0.12291154415180389,0.28056339279786613,9.36992314683828,0.04223365206235366,-0.0012845107479225286,0.2947469532215185
2025-11-24T18:00:04.942308,0.21112287157367005,-0.013355337254680813,9.21908953148064,0.060920852787220744,-0.18650181615761638,0.19440717329674445
2025-11-24T18:00:04.951923,0.22317562092745308,-0.04914496026482393,9.764481172797407,0.1737307336116396,0.02929616937181439,0.3313356223114966
2025-11-24T18:00:04.961538,0.09413356780690452,0.2510839262266801,9.423474215930534,0.09177728475294968,0.1656231661832712,0.30321243813541887
2025-11-24T18:00:04.971154,0.23622001151581182,-0.06801278454990653,9.722242240257646,0.012410409095814406,0.15379132704723733,0.4290812038562526
2025-11-24T18:00:04.980769,-0.17451108964817577,-0.004267921981097086,9.794721564327904,-0.012506135938434287,-0.12759103466979796,0.3522584058966064
2025-11-24T18:00:04.990385,-0.09962579091088786,0.10694004180095568,9.701949058241638,0.04908544914154397,0.01188137538524668,0.5030563578012897
2025-11-24T18:00:05,0.05287862085470327,0.27124332276187824,9.606904482773869,0.09467948620240443,0.0004376116618528894,0.4411113251739609
2025-11-24T18:00:05.009615,0.027626361701541632,-0.054958465989144,9.767403953334474,-0.06719174862346573,-0.1834796228797383,0.39988567100511574
2025-11-24T18:00:05.019231,0.33249366614821135,0.05340898917845666,10.184072515552957,-0.02850609695806088,-0.09618820363731061,0.6321472932726423
2025-11-24T18:00:05.028846,0.0001432197776091021,0.04623482702646021,10.106892249985426,0.042220291050589664,-0.0450461441829631,0.6984908968533287
2025-11-24T18:00:05.038462,0.1915109296260592,0.15929066270323844,10.268271749058911,-0.08267929687956756,-0.004970321601263174,0.6581922482491743
2025-11-24T18:00:05.048077,-0.19995191312257307,0.0369562946053234,10.004337522016451,-0.10841550401256735,0.08952258015809073,0.6533756714511941
2025-11-24T18:00:05.057692,0.07227938176193077,0.07918038790063352,10.154088661540877,-0.001320658235297572,0.03984998760355721,0.7130667391714485
2025-11-24T18:00:05.067308,0.1556870481157763,0.36298678495256476,10.411898364039489,-0.1460867919837656,0.12778861391549629,0.6822282744871456
2025-11-24T18:00:05.076923,0.10188434643356284,0.4639097309281939,10.568861388314204,0.053301195618982514,0.06066470300709095,0.7922364803360191
2025-11-24T18:00:05.086538,0.28388426321477644,0.3666963095721206,10.360585849547086,0.22335685400511823,0.02869870734807902,0.7554682171230646
2025-11-24T18:00:05.096154,-0.11430401371632173,0.09635213111786615,10.712577864602522,0.1166606295297624,-0.01132893634036752,0.6758704186776247
2025-11-24T18:00:05.105769,0.33980799314233584,0.11516529304405941,10.48273051085414,-0.06968380489998802,0.006321109999184485,0.7205032037440471
2025-11-24T18:00:05.115385,0.21353050840293475,-0.005061293423451421,10.389446615296924,0.05419436659741726,-0.02565449793978299,0.9261999247204404
2025-11-24T18:00:05.125000,0.06006077793755342,0.05333301319221049,10.435124335307663,-0.10638123986922228,0.07126133124087164,0.882918227476065
2025-11-24T18:00:05.134615,0.15463543195346946,0.269106933836975,10.446593779491408,-0.12160274703686562,0.11824582987627813,0.9261660049450026
2025-11-24T18:00:05.144231,0.26102151733877244,0.31252326614529646,10.890979732107587,0.07482461103635459,-0.006022456339633952,0.8730385137376375
2025-11-24T18:00:05.153846,0.07410751763644571,0.28672913785619397,11.236102872839739,0.053537725997637675,0.047634617304079835,0.9733807861531794
2025-11-24T18:00:05.163462,0.45841240460783506,-0.00866046393937732,10.91595724551871,0.0949166978424462,0.011650418953420436,1.0603370097814828
2025-11-24T18:00:05.173077,0.017873482280559946,0.10079484979146554,10.716320162201216,0.12172234750528532,0.1507232532716117,1.0522638007217149
2025-11-24T18:00:05.182692,-0.029438829712812864,-0.13484370547880228,11.108939449015965,-0.01583510200155294,0.01983095167579147,0.9554640703268789
2025-11-24T18:00:05.192308,0.05057328668618393,0.015501906247988043,11.310979088443695,0.15373368206153834,-0.018498991284064636,0.9826621845049935
2025-11-24T18:00:05.201923,0.4156223577333802,0.17755387621035112,11.422466193324533,0.056072039099227755,0.08795787464991492,0.9243650030749977
2025-11-24T18:00:05.211538,0.24774224132196368,0.23888617853743027,11.326055677386634,-0.009319642219309771,-0.05138411144341751,0.8956607399830254
2025-11-24T18:00:05.221154,0.07845216344215072,0.17602440750754056,11.437693190996214,0.09023699296877442,-0.03883279857668036,0.8136713199857764
2025-11-24T18:00:05.230769,-0.04386287775081199,-0.028624993210638994,11.36440239904394,0.11110354650678869,0.025532935138131017,0.9838991988048306
2025-11-24T18:00:05.240385,-0.17798424400633436,0.138958811624143,11.492727988745688,-0.08129256395105353,0.1030150728909107,1.0712443128632627
2025-11-24T18:00:05.250000,-0.040428177081232,0.15562486570667017,11.732797229184852,-0.06852785127278405,-0.04836826665346537,0.9291506272964745
2025-11-24T18:00:05.259615,0.18345369092819042,0.15251709082701653,11.420011122394577,-0.013238733024628978,0.04841884327470754,0.9589886013989524
2025-11-24T18:00:05.269231,0.11821568609058883,0.3566155848924947,11.581922520291263,-0.14582052361501746,0.053190739542190044,1.0810187412684387
2025-11-24T18:00:05.278846,0.38750319824041046,0.20971571981179588,11.705107935343928,0.11984819902173414,-0.0865159900972599,0.9907008410398086
2025-11-24T18:00:05.288462,0.22058594845871116,-0.17511477970146064,11.661877260562399,0.09618733848645328,0.10306794520964842,1.029584868530566
2025-11-24T18:00:05.298077,-0.041166865585454626,-0.10005731469120377,11.59536776373368,-0.09902777312238288,-0.14326905370804474,1.097765922716129
2025-11-24T18:00:05.307692,-0.16386096777091455,0.14594283635439495,11.712456596539406,-0.12143169152642104,-0.04587698853294875,1.0118348262607946
2025-11-24T18:00:05.317308,0.08938539501119193,0.13295609222404292,11.704241281468217,0.12767392829642799,0.05012619898410424,0.9318087196727768
2025-11-24T18:00:05.326923,0.18474796370652868,0.09595358006755654,11.540703118888244,-0.09852555397190746,-0.13412506350795947,1.00388764655657
2025-11-24T18:00:05.336538,0.05140498649643253,0.001987113460041476,11.978888887987411,-0.07790976412961469,0.1361580900030305,0.9344296539400315
2025-11-24T18:00:05.346154,0.35554777535183146,0.11268737986690719,11.719578643451042,0.018361381290895016,-0.05862743106923857,0.9729054758426872
2025-11-24T18:00:05.355769,0.1473338831118346,0.10839866441024791,11.58929191264254,0.07666169713289632,-0.07553870280898616,0.9862848357631931
2025-11-24T18:00:05.365385,-0.06645215808866256,0.21419228612358887,11.73200435558697,0.046285892730250466,-0.015609685957000016,0.9422367118402216
2025-11-24T18:00:05.375000,0.013918334827194942,-0.0463429940663673,11.636786564823643,0.035507689477305864,0.06552526531205823,0.9576730124891987
2025-11-24T18:00:05.384615,0.12724493290390776,0.0021679289127138762,11.738879381846706,-0.02024310307123219,-0.03980142554188583,0.8767733721907964
2025-11-24T18:00:05.394231,0.23206068830199258,0.24871724326195815,11.915152678491776,-0.22039964048622107,0.11139827145761724,1.0412663010585108
2025-11-24T18:00:05.403846,-0.20405204820639963,-0.010645015049715364,11.731873785811512,0.15740368810707964,-0.08332303384106536,0.7316264485102848
2025-11-24T18:00:05.413462,0.07009626991039923,-0.16007793536315099,11.756780061337231,-0.04616917227170404,0.011993410885869367,0.8640089793712484
2025-11-24T18:00:05.423077,0.09294364789217356,0.11930819258699457,11.605662253710332,-0.009146269816912096,-0.00871156242384298,0.9054712888391313
2025-11-24T18:00:05.432692,0.21210517323287023,0.10155306294320195,11.941209940636272,0.04875555140263675,-0.01453731180794834,0.8175600644548854
2025-11-24T18:00:05.442308,0.34792088103494123,0.2720201233131053,11.564726842637556,-0.04022107322517557,0.023189871687026103,0.9394346823697254
2025-11-24T18:00:05.451923,-0.12151190961385328,0.1564182011910955,11.676226210640348,0.1716513406908937,-0.11011227308792741,0.6962647819255309
2025-11-24T18:00:05.461538,0.07605140738267581,0.11747260300986054,11.622087888036907,0.14531517211065914,-0.002663157117311212,0.7046791318695304
2025-11-24T18:00:05.471154,0.04118191956151624,0.14112209987524651,11.592816166331481,-0.12875645096209604,0.029827484787364137,0.9444340965228617
2025-11-24T18:00:05.480769,0.051143595036329204,-0.006681757560457857,11.647785790818405,-0.049563546307635306,0.04602911385751565,0.7327972240090316
2025-11-24T18:00:05.490385,0.03261721726783803,-0.08340281775618083,11.3619177568904,0.0026660380771333612,0.014394304957266596,0.6580476652453018
2025-11-24T18:00:05.500000,0.31707726909449274,0.14461380054053352,11.780778340236827,0.09923354443315759,-0.0455916250338345,0.7292606731064907
2025-11-24T18:00:05.509615,0.19098636228700538,-0.27720259586746854,11.629934868533972,-0.015807939899927636,0.009103825735644437,0.5805150262887305
2025-11-24T18:00:05.519231,0.021207594400285593,-0.11589527264003247,11.788307245784646,0.09635549635091621,-0.03261083551601042,0.6741559640121824
2025-11-24T18:00:05.528846,0.28136616431093486,0.016894268671153498,11.786894095794853,0.06529392322652094,-0.024973578647814954,0.623880481150472
2025-11-24T18:00:05.538462,0.08127421915822991,0.11126315735421811,11.574878128680254,-0.052371770098509324,0.08955006551512232,0.618948373638744
2025-11-24T18:00:05.548077,0.062070698832600024,-0.0477891617842604,11.763604951272386,-0.0240483410988586,-0.009187153150686946,0.6016104003193472
2025-11-24T18:00:05.557692,-0.08666998766862266,0.022971291712347422,11.415262811991068,0.018069032269972057,0.07349748619324298,0.32230695384418956
2025-11-24T18:00:05.567308,0.2614187116121829,-0.12560268366610616,11.702440547548202,0.14212086269588023,0.06833576756403695,0.4675839393335083
2025-11-24T18:00:05.576923,0.1972094814466554,0.17180741318626358,11.549854927130111,-0.05530031601694037,-0.021751502380902326,0.5204651539527034
2025-11-24T18:00:05.586538,0.07012225425497212,0.05932184225875906,11.222243759852327,-0.18516438313700556,0.08349020365214316,0.49968731949609085
2025-11-24T18:00:05.596154,-0.179987804149654,0.2646763397873253,11.255159580995906,0.04703956578332985,-0.051449059641726747,0.3316332793533455
2025-11-24T18:00:05.605769,0.09764993685379884,0.2630342086069739,11.302271393608777,0.11263130104626744,0.11989294337861957,0.40998776856131447
2025-11-24T18:00:05.615385,0.022646356515818214,0.26232815461920367,11.360677050554372,-0.08173530951969543,-0.10580540582667562,0.42361419954414936
2025-11-24T18:00:05.625000,-0.045617254877912405,0.23847926314083548,11.200530697356859,0.027370880546351048,0.12810732693564506,0.3280557748819537
2025-11-24T18:00:05.634615,0.0866942393320164,0.3197430146276259,11.432058840873264,-0.02116500662847366,0.10894450522115107,0.32117902852525193
2025-11-24T18:00:05.644231,0.1548101600184276,-0.2610140407618272,11.117310162668344,-0.08442405712611765,0.04402750313529745,0.2255337376001342
2025-11-24T18:00:05.653846,-0.013394017645845857,0.12950688633259677,11.06535042608485,-0.018326249436009533,0.17059832829511548,0.1801464761312172
2025-11-24T18:00:05.663462,0.3581305803991134,0.4256721495767124,10.826738117660044,0.1324734345006177,-0.035523799760048366,0.09138084087019446
2025-11-24T18:00:05.673077,0.03071130281998695,-0.30500894860228156,10.947471324518713,-0.02627612184961457,0.014338273891973926,0.16740332368651006
2025-11-24T18:00:05.682692,0.382721197169718,0.14580746224221766,10.967717040490253,0.1420432603165339,-0.05452711966694487,0.10295062172365088
2025-11-24T18:00:05.692308,0.17453587900791762,0.320088730592347,10.8672351747735,-0.03864290976785044,0.011565906234301006,0.019821898305894144
2025-11-24T18:00:05.701923,0.16324140951779337,0.06079204284017495,10.662197854499482,0.14833765187844594,0.022539847150262016,0.09482268884227961
2025-11-24T18:00:05.711538,0.12851830161372477,-0.11197956454594801,10.696116241282592,0.0853054823994785,0.07762079912061788,-0.1760607280670049
2025-11-24T18:00:05.721154,0.19682943410596285,0.046240005788259195,10.722287983062834,-0.03854699236002501,-0.018603973458693374,0.05882947352291934
2025-11-24T18:00:05.730769,-0.019226667159419467,0.19829949963912924,10.612080980327425,0.1296293523205688,0.026099042809014882,0.03573222806328384
2025-11-24T18:00:05.740385,-0.024030061732061986,0.3089693427020043,10.622438973784885,0.021177375417375147,-0.019958149051957783,-0.18274606454971282
2025-11-24T18:00:05.750000,0.251897025904245,-0.016352521754516486,10.540699611186195,0.04114273502825039,-0.061248737033769526,-0.26515987485302456
2025-11-24T18:00:05.759615,0.24117073165709477,0.1725429974962731,10.502034725925629,0.0015384272606241527,0.12751881781574598,-0.29425045780020637
2025-11-24T18:00:05.769231,0.21857254834653855,0.17460402160392435,10.246648675599545,0.046017911710055946,-0.0930569987133585,-0.41243228077779914
2025-11-24T18:00:05.778846,0.02250066891198492,0.2423314384019745,10.210824612904313,0.03903527228957605,-0.03248819576368828,-0.27220135453340344
2025-11-24T18:00:05.788462,0.0470421567825372,-0.032703539368753726,10.198274581117968,-0.05168664003671765,0.07298325373701743,-0.34355861467357707
2025-11-24T18:00:05.798077,0.03587998394035513,0.14525908667705129,10.291633231881551,0.15204277972438127,-0.013829438378082568,-0.41986775547828203
2025-11-24T18:00:05.807692,-0.09179831602187125,0.09724460488146003,9.905913502701843,0.05316874882151697,0.06404116113913895,-0.22041289824594645
2025-11-24T18:00:05.817308,0.10130577119725788,0.1098759111470834,9.997246295131637,0.016337887123459904,-0.04075226417832403,-0.4578622230715927
2025-11-24T18:00:05.826923,0.2885221783300654,0.24275749427153195,9.892569141150455,0.12717728314845386,-0.0009254610957016157,-0.5718954046263405
2025-11-24T18:00:05.836538,0.0879776106195369,-0.09411726758849798,10.090154081503426,0.10927034114935795,-0.054594249327921965,-0.3746280633905818
2025-11-24T18:00:05.846154,0.008548025165100906,0.38660141980095697,9.730702951278701,-0.11849643778233569,-0.0008048255188598114,-0.517376694620781
2025-11-24T18:00:05.855769,0.06335892631151731,-0.07414881328741127,9.652140133963561,0.06357266377187216,-0.011778158540220133,-0.6000792065199854
2025-11-24T18:00:05.865385,0.14755748249867823,0.12517240583496447,9.511220386497659,0.010941686684164438,-0.034120744720396556,-0.6204748512489047
2025-11-24T18:00:05.875000,0.13283697269383224,-0.1083785134190273,9.684973179699664,-0.03554307462683057,0.025015829337057302,-0.6437312462359249
2025-11-24T18:00:05.884615,0.1689132317022717,0.11977556112151266,9.464952025776746,0.03345778776170536,0.10142285938104409,-0.5455212227515556
2025-11-24T18:00:05.894231,-0.034091680637159893,0.1210041288638549,9.616215209764341,0.03654266103038903,-0.06568007688535558,-0.6830632172922912
2025-11-24T18:00:05.903846,-0.02363563260938817,0.11789437013678625,9.17775454440503,0.0549066960064388,0.030258606010070077,-0.8638526327552645
2025-11-24T18:00:05.913462,0.2734863299934024,-0.0457745745914066,9.31944187294981,0.09999514253883002,0.07252640299108264,-0.5939959528547001
2025-11-24T18:00:05.923077,0.00876372894267706,0.16916860391544303,9.136477457112099,-0.11138420974598635,-0.04496557434769427,-0.7371712787010429
2025-11-24T18:00:05.932692,0.20558728853843472,0.19263227035710576,9.001282150097689,0.06380768564224036,0.10430081888414748,-0.8263042936037821
2025-11-24T18:00:05.942308,-0.0823763650176583,0.11605491590793834,8.969095896584694,-0.07523412284236373,0.007697923090624184,-0.9212499802256074
2025-11-24T18:00:05.951923,-0.0668492603428198,-0.022652259608766906,8.864630096874787,0.038610968043921196,-0.03964079039203672,-0.7952974568124951
2025-11-24T18:00:05.961538,0.010387494703146885,-0.10394016029386363,8.957240540830938,0.015095307854938313,0.12007500968336203,-0.9169793537619328
2025-11-24T18:00:05.971154,-0.06879121255331772,0.11173577072430964,8.456225819973449,-0.061181496594745366,0.06046067570283635,-1.022594032514247
2025-11-24T18:00:05.980769,0.020264743446267608,-0.06002322756436135,8.655447959039979,-0.12560857154125704,0.046758137124486295,-0.9639307378763657
2025-11-24T18:00:05.990385,-0.06909816753851569,0.23429637401889575,8.818359992972592,-0.15267506665953776,-0.0016247598574082103,-0.7988963681702173
2025-11-24T18:00:06,-0.1102464518359137,0.23917546492120936,8.55258808467221,-0.06969414002069997,0.18932661627865466,-0.838621659464974
2025-11-24T18:00:06.009615,0.39391481251348903,0.26101668324461025,8.731694921983467,0.06601009680685092,-0.039287504012861754,-0.9024787180946393
2025-11-24T18:00:06.019231,0.2634317699129716,0.07191336646903825,8.362277317585388,0.08850480103682773,0.04210829093885364,-0.7582248671048911
2025-11-24T18:00:06.028846,0.03458832929116307,0.03475178288098241,8.409464512378651,0.02349886072037234,-0.0017872521946457713,-1.0204450820641853
2025-11-24T18:00:06.038462,0.23215695743910975,-0.07590706383818496,8.429881159250474,-0.022726268239158316,0.06711979740798406,-0.8308767336310621
2025-11-24T18:00:06.048077,0.0503472457148533,0.1272906463662542,8.43544638352312,-0.10547491965467302,0.09560425133298434,-0.9233874593418502
2025-11-24T18:00:06.057692,-0.19932496537984404,0.03842125563954851,8.319348295501351,-0.05604483909169024,0.006255222155723713,-0.9093062557659924
2025-11-24T18:00:06.067308,0.11866407118999242,0.12627053878354383,7.968428424773834,0.010881124129604154,0.00265824365506959,-0.8245075409863831
2025-11-24T18:00:06.076923,0.22878575367623183,0.19472212778815984,8.238973159571378,0.07581639817757725,-0.06014767190852825,-1.001228338403281
2025-11-24T18:00:06.086538,0.19157013175727755,0.13713338880748355,8.149134952051774,0.10009638086263732,0.054469888183968876,-0.9486230303139064
2025-11-24T18:00:06.096154,0.1771906552510466,-0.33327111780729635,7.836656783798445,-0.018118895227022532,0.09101259407011161,-0.9185666024164276
2025-11-24T18:00:06.105769,0.19701879149281104,0.3005121805845825,8.035692538161387,0.12434263143406882,0.10063576138608674,-0.9602315759203891
2025-11-24T18:00:06.115385,0.08847484406156081,0.06898780796249909,8.296100637220025,0.059672031704721046,0.072380914633653,-0.9548544307059532
2025-11-24T18:00:06.125000,0.1861717497715577,0.2284822045815897,7.778778189881709,-0.034243527820595934,0.0500520668100449,-0.9249392258896819
2025-11-24T18:00:06.134615,-0.11378866593469639,0.18909518351356283,7.750684257252968,-0.07565881119192655,0.06326884815544886,-0.9577143329078379
2025-11-24T18:00:06.144231,0.011076134548417188,-0.06490506977780239,8.040927660229407,0.013279698432240562,-0.0618104520715477,-0.9963589097000431
2025-11-24T18:00:06.153846,-0.22028591037684456,0.18947445080624487,7.90626532589391,-0.01708825951016425,0.13168877858202177,-1.1332342442313865
2025-11-24T18:00:06.163462,0.16596271909264732,0.22924626769343875,7.804400824068508,0.004232001579922991,-0.04726856643165525,-0.9909650453992925
2025-11-24T18:00:06.173077,0.07092161906803371,0.23765291116827786,7.878212694466078,0.07355300025723346,-0.11268794542149253,-1.045421460101057
2025-11-24T18:00:06.182692,-0.11803037110593997,0.2667005745785781,7.76592508703064,-0.011366093136711618,0.01728862975551546,-0.9412134606546129
2025-11-24T18:00:06.192308,0.2641123657926329,0.16867101777938992,7.817552761134605,-0.08845536628506881,0.06512418319212164,-1.0446258263586927
2025-11-24T18:00:06.201923,0.12996574333977803,0.24461057874317946,7.855527994857457,0.0033997315929001,0.002912074074298821,-0.9455826964171757
2025-11-24T18:00:06.211538,-0.006675600705413343,0.10581701850150138,7.895473937669425,0.029241042359172034,0.06658269914588985,-0.8767970009939555
2025-11-24T18:00:06.221154,-0.04853523762725154,0.22014820446565758,8.086483682247536,0.04382257987712536,0.031105988949620536,-0.8116108353812963
2025-11-24T18:00:06.230769,0.020995236798837885,-0.1424981522452778,7.7429419300463636,-0.14537995999963324,0.07081995622217348,-0.8557462941182205
2025-11-24T18:00:06.240385,-0.08655049493200864,-0.029908246905335167,8.039418229655919,0.09051806892878278,0.000990747783211305,-0.7630135082709858
2025-11-24T18:00:06.250000,0.06855335514081606,0.1808239801072523,7.813894661191845,-0.02672788756684404,0.040838920207650176,-0.7904539251898826
2025-11-24T18:00:06.259615,0.21341684331393124,0.21876667066604288,7.6647014713069055,0.061915358923768066,-0.010641479719134199,-0.854518804819199
2025-11-24T18:00:06.269231,-0.09425127077322482,0.07249016289430166,7.659207595522006,-0.0625428315484724,-0.008372669934291577,-0.7745357775112696
2025-11-24T18:00:06.278846,0.3039426975250219,0.20448839166781363,7.835531323398483,0.013253845584660624,0.05084126400496776,-0.7341105290076796
2025-11-24T18:00:06.288462,-0.027206323464068982,0.256574680688057,8.041521086652176,0.2510770895533032,-0.1024224218640825,-0.801726859297993
2025-11-24T18:00:06.298077,0.17899153856494254,0.050235146664193556,7.932054013816676,-0.05267599205727952,-0.02462346913250266,-0.7235574251682338
2025-11-24T18:00:06.307692,0.15995904774066996,0.15193722601521223,7.898591918210406,0.09610169452738024,-0.0006127820888063122,-0.7059864675431958
2025-11-24T18:00:06.317308,0.310002746852521,0.21813224996210248,7.946058465226774,-0.005382217732623599,-0.04074981234436974,-0.6893001509417827
2025-11-24T18:00:06.326923,0.034815593713498516,0.16285343790983298,7.700179887492458,0.00995617239502659,0.1736172055043998,-0.7981773339209275
2025-11-24T18:00:06.336538,-0.08437088209285731,0.13478274962061587,7.866667529371032,0.05215769798595038,0.07001858347510292,-0.5865872828605564
2025-11-24T18:00:06.346154,0.15040016914859228,0.10902679583456207,7.954160634274491,0.11762432995663372,0.12973810406000003,-0.5824167053752326
2025-11-24T18:00:06.355769,0.022447032784472173,0.11100022947223169,7.937615390347253,-0.034949148046564446,-0.0642100760705966,-0.5103451022182703
2025-11-24T18:00:06.365385,0.2465224133978385,-0.10008034762032891,7.975327669741884,0.00895192874859246,-0.011474152558159496,-0.47024808207314683
2025-11-24T18:00:06.375000,-0.06927701662461533,0.1710561486687565,8.061528402264953,0.15237069441226522,0.09031315834561081,-0.454505011320213
2025-11-24T18:00:06.384615,0.21554580493074416,-0.18861962912638672,8.164771774267217,0.10851541448259679,-0.006796338928389663,-0.42644154124638467
2025-11-24T18:00:06.394231,0.07516992522040566,0.14556740767438045,7.962620430317777,0.005960877566205169,0.08273359441793228,-0.5700545389242294
2025-11-24T18:00:06.403846,0.03789727241820332,-0.04696028214186565,8.03866513118446,-0.02465174819242565,-0.2072474888103241,-0.45782444023863883
2025-11-24T18:00:06.413462,0.01770771480222247,-0.06864376808201797,8.357633263372563,0.029301600244000522,-0.031127013672697598,-0.4740380191511563
2025-11-24T18:00:06.423077,0.02932182161722062,0.3277792405374609,8.387739064636767,-0.040444414467484924,-0.009345172240862155,-0.6115910950027544
2025-11-24T18:00:06.432692,0.39766424962396607,-0.1001342251015176,8.339081826786394,0.06517217223508077,0.008026149004237464,-0.2559156641599615
2025-11-24T18:00:06.442308,-0.13880363185999334,0.20742822048089982,8.290237686274331,-0.027675035060968033,-0.004741619464687593,-0.3542063738300238
2025-11-24T18:00:06.451923,0.0026958025588480344,-0.352855442226342,8.558103938591623,-0.03145413548338884,0.020831216716985516,-0.33092103805518286
2025-11-24T18:00:06.461538,0.13032777857521152,0.02868902121907116,8.485391861940903,0.009123170915027082,0.049063947227826615,-0.1643246903731453
2025-11-24T18:00:06.471154,0.03269645368950101,-0.21545597317959378,8.513928318378596,-0.10821572382434617,0.13636937434592233,-0.11131467186086333
2025-11-24T18:00:06.480769,-0.04851001853084233,0.28414314054567125,8.55747557943544,0.16101816797380258,0.031702269498587524,-0.33285431665449655
2025-11-24T18:00:06.490385,0.18719989685707195,0.27601354495497943,8.513032240147304,0.04438411311985055,-0.006144893368143691,-0.1488749656406695
2025-11-24T18:00:06.500000,0.12694244076909778,0.16973596893279697,8.437963606764216,-0.06270298508399637,0.005300903159186023,0.006335805027396821
2025-11-24T18:00:06.509615,0.15088663292199983,0.015429733076341587,8.59531640013651,-0.08265528257122998,0.1921639937866421,0.07304264470304973
2025-11-24T18:00:06.519231,0.007628189269289196,0.11553577581726354,8.498457112815398,0.02084416070814886,-0.05238457927363793,0.1263868719944103
2025-11-24T18:00:06.528846,-0.13208595581923044,-0.00746190053843078,8.916337252043952,0.1807405200011665,-0.007712784632780627,0.11587819599920127
2025-11-24T18:00:06.538462,-0.03547786575587483,0.15406853312557214,9.037867102748672,0.012762065449844416,0.03148964822443212,-0.028583784778334245
2025-11-24T18:00:06.548077,0.16979552533826808,-0.054105975650278415,9.017564747492363,0.01894373333033856,-0.16139389117808806,0.0626550173299037
2025-11-24T18:00:06.557692,0.14411611029793467,0.14576645829699436,9.24992745511416,0.0035023792080382705,0.05945377476497807,0.1192105502632276
2025-11-24T18:00:06.567308,0.15728668304091875,0.013849171052492698,9.350027265711626,0.058844633599014665,0.09216947722429009,0.13734609263199785
2025-11-24T18:00:06.576923,0.24221961270807382,-0.10907099290025268,9.55431638329651,-0.02982886447309251,0.07524774591228604,0.1297202635302514
2025-11-24T18:00:06.586538,0.18421656373602752,0.26715037726049673,9.166906091549198,-0.06186408658982255,0.1257619187944854,0.22285628994314594
2025-11-24T18:00:06.596154,0.016589309678371023,0.08951768040733936,9.439631816435444,-0.10005503612436087,0.11620189002240418,0.406710806358502
2025-11-24T18:00:06.605769,-0.260794453176575,0.10113961954271689,9.381846130799875,-0.03520176774687599,-0.18249297667462522,0.23801845685504452
2025-11-24T18:00:06.615385,-0.01158034832456653,0.050179397825878824,9.386196043306882,-0.043695828726586824,0.09495812703368982,0.2055483065732041
2025-11-24T18:00:06.625000,0.24357244682649423,0.2796140458687816,9.448542739996977,0.09299557893682052,-0.044549913657056225,0.43592031637811135
2025-11-24T18:00:06.634615,0.1598443154454294,-0.10178928769189752,9.669935228385445,0.21741680933771299,-0.037716258226173444,0.3496002663826173
2025-11-24T18:00:06.644231,0.1146154906913034,-0.12547685473997394,9.555901114710595,0.08782867375485272,-0.07056168713365163,0.3165310581850901
2025-11-24T18:00:06.653846,0.006604390854099321,-0.0003723762545811554,9.729899280209926,0.045623779392367024,-0.08965179834558079,0.4455896792131159
2025-11-24T18:00:06.663462,0.026944350138966955,0.011121107521180354,9.601484910521014,0.0904936641531066,0.013655958783573546,0.585087940000535
2025-11-24T18:00:06.673077,0.13352668147663493,0.20715916271205287,9.898525361689597,-0.05591212596349071,0.016024137481148427,0.4273052161573947
2025-11-24T18:00:06.682692,0.0675235190969201,0.1913139981738144,9.932893333837521,0.1356150911420994,0.08094736667241642,0.6458881741877376
2025-11-24T18:00:06.692308,0.02688071816605489,0.22600808138086123,9.81508692342969,-0.06588411634967867,0.00748020912653222,0.6318614213805583
2025-11-24T18:00:06.701923,0.3950981221064612,0.23979575916902746,10.21827444835095,0.20844224707772824,0.014519216629630823,0.6810834523507594
2025-11-24T18:00:06.711538,0.1418279857506586,-0.2600829885719844,9.976653397870175,0.06607775033423142,-0.11320716879305802,0.6233321206308046
2025-11-24T18:00:06.721154,-0.21846563989232679,0.0016553022558129793,10.375399105605604,0.011413539703070021,0.0769339372667928,0.4717557223985167
2025-11-24T18:00:06.730769,0.17032538126602076,0.18692949632654554,10.350668576080142,-0.07855173010728567,0.10311736642624474,0.7891801075009488
2025-11-24T18:00:06.740385,-0.054134903191397965,0.02410165760306232,10.123779151161912,-0.10355873520543576,0.02904588363135719,0.7012974262484907
2025-11-24T18:00:06.750000,0.023739317137520546,0.28630369701319336,10.40747583798768,-0.015424005408600842,0.026542599246901704,0.8013555862321645
2025-11-24T18:00:06.759615,0.18464281479631628,-0.028733323622265605,10.48468899052376,0.05747966387923381,-0.02397289241462219,0.7699125458625472
2025-11-24T18:00:06.769231,0.13928800414700612,0.01024629836291234,10.96452824053964,0.06421523291537133,-0.07181042721592212,0.7392744366037126
2025-11-24T18:00:06.778846,-0.09161150321479644,-0.07263085816179352,10.711444419363152,-0.020114567350135112,0.08674794494602042,0.9883537288923848
2025-11-24T18:00:06.788462,0.12679665375248736,0.3688643805856029,10.776881103131775,-0.03269984423945407,0.05342582553318932,0.8601930492242849
2025-11-24T18:00:06.798077,-0.04060633217858117,0.07991067439116807,10.749955406900737,-0.07973921189183703,-0.0036417416569949207,0.9422676063805181
2025-11-24T18:00:06.807692,0.05008734185030546,-0.02687103106573105,11.02206572709849,-0.025097840732182786,0.03837617945229077,0.7868667858267064
2025-11-24T18:00:06.817308,-0.07651410565037328,0.13374778100218138,10.901438243332734,0.08027631929314342,-0.11076225775698047,0.937906543321712
2025-11-24T18:00:06.826923,-0.033861809776276564,0.2667562208164168,10.915659876272915,-0.03938268120572189,-0.045720770216392634,0.996103339098838
2025-11-24T18:00:06.836538,0.29691565291501343,0.0303077061519057,11.043464598472875,0.06645028688526279,-0.048393604137683885,0.8305152751760688
2025-11-24T18:00:06.846154,0.2397298365556063,-0.029402428023513755,11.03425691664393,-0.10262902455164485,-0.08218473612577654,1.0680510997817652
2025-11-24T18:00:06.855769,0.09934779607796963,0.16292788684848933,11.210424569212918,-0.00038997392880716145,0.0334560734959651,0.9920343002650857
2025-11-24T18:00:06.865385,0.6734453980165569,-0.003199852872045314,10.969256183132474,0.055346233522121105,0.011643383055356013,1.0633372524637152
2025-11-24T18:00:06.875000,-0.12437496184868668,-0.2113540325280824,11.478549047235255,-0.14491166596161262,0.07244527481440532,0.8924838930521015
2025-11-24T18:00:06.884615,-0.03673154872447096,0.13373156202837183,11.265605772506516,-0.06526772907724054,0.04214351350987329,0.9272569072010364
2025-11-24T18:00:06.894231,-0.27308862719946003,0.047796216008701986,11.22791860615067,-0.08078187587350788,0.06882858704287236,0.9620052208729534
2025-11-24T18:00:06.903846,0.1401478578868749,0.12785850516383274,11.584248562243593,0.1455150813241231,0.033539254289622566,1.0008288358224269
2025-11-24T18:00:06.913462,0.0717085086946692,0.1461529059707693,11.35479333720298,0.00048595055184377095,-0.006167068377542502,1.0656112507912983
2025-11-24T18:00:06.923077,0.23788826170328006,-0.0544597881922807,11.491119794293786,-0.06040860607766682,0.0691839421750071,1.1551194277361432
2025-11-24T18:00:06.932692,-0.10215488503765643,0.14439886306454325,11.574518836253473,-0.0053352636735507705,0.25509538422977157,0.936360758835475
2025-11-24T18:00:06.942308,0.2197932622989073,0.13187756964419423,11.330706952381597,0.05025401642275677,0.06421575059898878,0.9041493852472162
2025-11-24T18:00:06.951923,-0.05466870637493826,0.3094586729186207,11.513069726417733,-0.06907311644265672,0.09582299269414171,1.0456090617846667
2025-11-24T18:00:06.961538,0.1829176338024195,-0.06480418131046786,11.531710471581167,0.028777529308750386,-0.00927135482509044,1.097579485621417
2025-11-24T18:00:06.971154,0.09763540822847327,-0.19044066516847472,11.648067765154378,0.013767796036803158,0.04214669783499517,1.062895138615995
2025-11-24T18:00:06.980769,0.3752204494703425,0.07318793963365144,11.702203837894094,-0.1451253584355899,0.058780080656000114,0.9124817572415587
2025-11-24T18:00:06.990385,0.08914020977075869,-0.009766983563288534,11.654923039026965,0.09558874584189685,-0.018027627098610294,1.0449773793507282
2025-11-24T18:00:07,0.20354160476453662,0.1522153177561912,11.63542826952196,-0.12040775026597815,0.02906523178981274,1.1359848438743678
2025-11-24T18:00:07.009615,0.27723841001459654,-0.01863627163012621,11.681574015940821,0.02342437135411766,0.0837516264679358,1.1341334846694187
2025-11-24T18:00:07.019231,0.05746760184953436,-0.12208278825529739,11.560231565812712,0.1947942397826319,0.05106230924243014,1.126141930569435
2025-11-24T18:00:07.028846,0.17534007353999076,0.013363540556188727,11.744054553216184,-0.038120526813821165,-0.039446570879773435,0.8725978148316187
2025-11-24T18:00:07.038462,0.2527077630333513,0.18637557335985905,11.64072470965074,-0.0015012570765817294,0.08922701035133247,0.9296434784260449
2025-11-24T18:00:07.048077,-0.11282901885231272,0.2419372776469356,11.813553911843583,0.11043352567750378,0.0013022485371859162,0.9428765312472019
2025-11-24T18:00:07.057692,-0.02730588730577993,0.12927577198291268,11.523409030494639,0.03308993256852043,-0.11304058420598674,0.9955955680011392
2025-11-24T18:00:07.067308,-0.0016662555832303722,-0.01581119962826158,11.962116717951824,-0.1178220307282788,-0.07287005168587476,0.8358978563179236
2025-11-24T18:00:07.076923,0.2198133286697952,0.1732846942554731,11.603922552649534,-0.13692653571735597,-0.015992099617207465,0.8823068798484826
2025-11-24T18:00:07.086538,0.15476070868471598,0.20646229622464657,11.598473888191302,0.06341361578025988,0.07404908206172217,0.9900374145183147
2025-11-24T18:00:07.096154,0.10309178595328515,0.5419761805692632,11.63258296592671,-0.10169545894645593,0.04134863197768415,0.8426233049892067
2025-11-24T18:00:07.105769,0.04932599534619674,0.11780550951156382,11.908123264166594,-0.027591093090593825,0.03197538253499195,0.794478797676932
2025-11-24T18:00:07.115385,0.15100385125576535,0.165087265870447,11.542855169236223,0.027737244075761006,-0.0048745740725097166,0.891596009960953
2025-11-24T18:00:07.125000,0.13595706659510082,0.17764046054031235,11.696749993403776,0.11337383512708585,0.015018064637692684,0.8504121636274976
2025-11-24T18:00:07.134615,0.12379271636786691,-0.23350761129886224,11.770316517251887,0.06351386791573906,-0.07809731064775956,0.8280927954230894
2025-11-24T18:00:07.144231,0.15980315014852092,-0.006883743829855002,11.900616812545946,0.018337750872803607,0.15539953618315944,0.7732095978108612
2025-11-24T18:00:07.153846,0.010606512297711548,0.3532856189279576,11.703466373813775,-0.04230739012336411,0.06316120986039275,0.7408270470567693
2025-11-24T18:00:07.163462,0.11753833461926863,0.13703430143674844,11.50762830719446,0.11694690323631439,0.09613558394022527,0.7465569369244258
2025-11-24T18:00:07.173077,0.0024002939740700863,0.06414142903550396,11.844425660432863,0.08415571725460597,-0.0725862102501875,0.6120671874836379
2025-11-24T18:00:07.182692,-0.01749655856265614,0.2420193452673094,11.50314342412298,0.07454618549280814,-0.0519223419584077,0.7484896499677084
2025-11-24T18:00:07.192308,0.16012511029581716,0.09315521346041132,11.87707645295173,-0.0251724795727173,0.08894116429552622,0.5952306839664558
2025-11-24T18:00:07.201923,0.2351631372934838,0.3310518786310465,11.605479839802259,0.07020110973622475,0.036601059099897734,0.7204541631587684
2025-11-24T18:00:07.211538,-0.1560253247575574,0.015960209040773027,11.716773732094143,0.01928651397289144,0.10407495471109028,0.5441779065924712
2025-11-24T18:00:07.221154,0.05225597254995179,0.043869202556578245,11.544262493538493,0.0162786928182961,0.09659513449115815,0.5577997893625524
2025-11-24T18:00:07.230769,-0.038849054026646346,0.15826735771433026,11.458404214076685,0.02943397924062372,-0.008243246667081726,0.6308029771834472
2025-11-24T18:00:07.240385,-0.07538463009632412,-0.005366666857935326,11.320637910299594,0.03257165861727119,-0.058458309787481566,0.42168526937532935
2025-11-24T18:00:07.250000,0.03291646341015364,0.04642467518576555,11.634566459419371,-0.040767196434110614,0.029433765140893332,0.47285011941442906
2025-11-24T18:00:07.259615,0.2508103544623175,0.11960351736630159,11.424816544126978,-0.035677416963095454,-0.03831594781436941,0.41695035098604627
2025-11-24T18:00:07.269231,0.1443885617148939,0.28686882267338787,11.189098625425702,-0.013728325937333728,-0.12724744727315937,0.4489988533018059
2025-11-24T18:00:07.278846,0.14983092876062193,0.28986930074540823,11.388368761136357,-0.04910599663426603,0.0711607307607636,0.44170300142549473
2025-11-24T18:00:07.288462,-0.04504788726005815,0.11084996603229233,11.146516955288753,0.14309879611373608,-0.0954275616316152,0.21908078030946282
2025-11-24T18:00:07.298077,0.20724169726040925,0.044389951239947,11.309552490833235,-0.01077274301112591,-0.03378877874968328,0.19667551812731754
2025-11-24T18:00:07.307692,-0.14814167281086074,0.6134682661343638,11.303388094851897,0.05852136054083659,0.05039671018985402,0.2147903569648024
2025-11-24T18:00:07.317308,0.005147570933865878,0.2592394635918537,11.063926343102565,0.016238919365362772,0.010196448156156083,0.1841974193084931
2025-11-24T18:00:07.326923,0.1304905687443609,-0.23210564504921996,10.826193611614638,0.1980289041529936,0.1191867526478327,0.3283847139761068
2025-11-24T18:00:07.336538,0.2734412978132683,0.18891843680536746,11.04708751062096,-0.055905554351497494,-0.06684480094426362,0.15050327306599626
2025-11-24T18:00:07.346154,0.10173375080937036,0.16092411994526704,11.125115122085205,0.05305417823303446,-0.11132836466193859,0.09047441345600613
2025-11-24T18:00:07.355769,-0.12372514344004756,0.1106095269309535,10.980314337548466,0.01959651154080133,0.05966494122143644,0.04586183478606283
2025-11-24T18:00:07.365385,0.381433386924779,0.3769917615363404,10.7126786113483,0.0841862908803396,0.08709634809612028,0.028655549729527063
2025-11-24T18:00:07.375000,0.13282839564318788,-0.13996467162382634,10.68444007764688,0.06963818499953851,0.14910603897158023,-0.011902451525700818
2025-11-24T18:00:07.384615,-0.06979643538027427,-0.006877963626440997,10.686481204338948,-0.0016020050989651521,-0.007806316934620992,-0.015187676332379052
2025-11-24T18:00:07.394231,0.2099475337235428,-0.00013730344394145833,10.47409243084472,-0.0005585343546651612,0.16040750593580508,0.0112674429473959
2025-11-24T18:00:07.403846,-0.03723567810873188,0.20095038670075227,10.51533315254592,0.07389226896500319,0.0575752401295235,-0.22854211148229797
2025-11-24T18:00:07.413462,0.2529313813291391,0.02954153744015825,10.37487321263542,-0.08761071200263643,0.0869200975428809,-0.20181711789563891
2025-11-24T18:00:07.423077,0.21858466693446987,0.2716026030108912,10.173799230358194,-0.09656786735023319,-0.05936088584273777,-0.26161552688614154
2025-11-24T18:00:07.432692,-0.04515426285566154,-0.19154219669174996,10.3270396332919,0.06055633067117769,0.05433245340980632,-0.2440586943998292
2025-11-24T18:00:07.442308,0.2585936866016072,0.11292001339432539,10.208634115101853,0.070899923870763,0.12279472993027071,-0.34110485268830426
2025-11-24T18:00:07.451923,-0.07152000488233459,-0.10300955922249005,10.282752188109146,0.14716865001927068,-0.06958929019571125,-0.31188697244656177
2025-11-24T18:00:07.461538,-0.23460116448257748,-0.05015492996531279,9.932392868444223,0.11335853182067644,-0.06692403137046873,-0.25063903271004967
2025-11-24T18:00:07.471154,0.16387734218373978,0.28970816960409546,9.983843578658542,-0.06687203027187757,-0.10999722279753378,-0.4260931280046584
2025-11-24T18:00:07.480769,0.017948732716394758,0.16819752081823097,10.204251969758067,0.1646085323095858,-0.14761888951446128,-0.4381720469616359
2025-11-24T18:00:07.490385,0.046863378553755275,0.24415583384103118,10.165895296961933,0.05060191138590115,0.04253607728503567,-0.43751701642630647
2025-11-24T18:00:07.500000,0.31707933904672175,0.2551120707371304,9.90790992278677,-0.061971458493748105,0.08867494241264907,-0.6078059373427342
2025-11-24T18:00:07.509615,-0.07134703800288156,0.1316771822699528,10.132754102732644,0.06593704876397304,-0.04006877245669972,-0.6113830619023504
2025-11-24T18:00:07.519231,0.17051900023256283,-0.009832335056034064,9.577544396854027,0.0278617469910784,0.07109887127358303,-0.6022674590594973
2025-11-24T18:00:07.528846,0.07208216654630828,0.11583795910850264,9.40024322624372,0.12303635083855897,0.044720448213907665,-0.6857987263536879
2025-11-24T18:00:07.538462,0.030166096011069704,0.30859444708273687,9.320290758084203,0.009451120229112472,-0.16268660494623646,-0.5170845705360039
2025-11-24T18:00:07.548077,0.15342610351882152,0.10087827961718221,9.226646845733466,0.07645111205561995,0.20426437886686502,-0.5777152408158446
2025-11-24T18:00:07.557692,-0.02039163613928552,0.07528728135791203,9.387260190800998,0.058065941056776746,0.01489999752151794,-0.5998273992725316
2025-11-24T18:00:07.567308,-0.07668497216859577,0.04463967718950832,9.156119704681627,0.19364891185880595,0.06476416810844507,-0.6697609197325723
2025-11-24T18:00:07.576923,-0.07531871504669785,0.04024616382504098,9.344362960320781,0.09459365052469232,0.046903883460130524,-0.7995284881482434
2025-11-24T18:00:07.586538,-0.02476433473786975,0.2011072797781372,9.1582835814358,-0.07885658876675096,0.11147476623536494,-0.7115905856673957
2025-11-24T18:00:07.596154,0.1283077142533345,0.16305026227197594,8.900005080237834,0.06761957036973412,0.11201297994687094,-0.678879709767698
2025-11-24T18:00:07.605769,0.05540805979655377,0.32129209332347936,9.092686795921205,0.11069841873084103,-0.004604541595730857,-0.6692559411234238
2025-11-24T18:00:07.615385,-0.0006306673558003906,-0.08306766578506614,8.904227030506506,0.05129382672283195,0.05840409411528426,-0.8808298787354093
2025-11-24T18:00:07.625000,0.25999407975583033,0.20110888245801195,8.644329553493488,0.059427837981218784,0.0320825161534183,-0.7582207892632823
2025-11-24T18:00:07.634615,-0.04456690772408986,-0.07609886972139243,8.8482481058454,0.05443153037178179,0.01854484298389945,-0.8704624411540685
2025-11-24T18:00:07.644231,0.10940441805744684,-0.2505939813432577,8.448635818003062,0.061355559699609014,0.09363344997453961,-0.7612995870279795
2025-11-24T18:00:07.653846,0.09679598106838949,0.18316093904299052,8.738383388110805,0.029699822827451032,-0.0071312834867831056,-0.8651997047373817
2025-11-24T18:00:07.663462,0.05920185096724188,0.020219738732690534,8.698278511141798,-0.07385307730321791,0.02054442703577809,-0.8215400069553691
2025-11-24T18:00:07.673077,0.18589206500746092,0.32467908515595073,8.496817930387303,0.032660770916639145,0.09466698263563086,-0.7882107006629682
2025-11-24T18:00:07.682692,0.36159621333387326,0.27409531468670756,8.726851695241235,0.021324776673138285,-0.10024559428664315,-0.8527972875097233
2025-11-24T18:00:07.692308,0.13221820731537845,-0.1679734946948798,8.595640490166232,-0.02092674513490921,0.08876595733885614,-0.7831500452643738
2025-11-24T18:00:07.701923,0.10689738202818702,0.15756748604518744,8.317894245066066,-0.01126231840818281,0.04557886773989061,-0.9362218716431868
2025-11-24T18:00:07.711538,0.07200043209149527,0.0748251692239159,8.561818968488716,-0.1231237566826101,0.013056679814624456,-1.0346354519891445
2025-11-24T18:00:07.721154,0.16346035165138056,0.057171706832254525,8.560519113717687,0.1543507833204186,0.04410175870638945,-0.9599990789531585
2025-11-24T18:00:07.730769,0.3133046480636876,0.2650164777870845,8.285219178568264,0.0926889387250325,-0.02330783785976374,-0.9457317648888672
2025-11-24T18:00:07.740385,0.24010773300386679,0.13841568826022282,8.279819907512566,-0.07959641615421706,0.0389594999381278,-0.9847238835946601
2025-11-24T18:00:07.750000,0.011185410575653892,-0.03081604518170944,8.173563500219919,0.10604075348779596,0.11075969339741137,-0.8814846443297278
2025-11-24T18:00:07.759615,0.10280168007469528,-0.1735485028949665,8.146334110481039,0.1616114504030667,-0.13819983973273375,-0.9937022847284019
2025-11-24T18:00:07.769231,-0.09631715408555139,0.016292477189363788,8.020731260489532,0.05187857213983245,-0.11673644438237558,-1.0490616940540458
2025-11-24T18:00:07.778846,0.0871995043368511,0.013886842878604963,8.052864336906781,-0.0045853346689367774,-0.0018640399177089935,-0.9497846131901779
2025-11-24T18:00:07.788462,0.336854859867743,0.07174206240036365,8.176407681681251,0.055812989766771126,0.06782559881881615,-1.0322435899148472
2025-11-24T18:00:07.798077,0.27713834541099447,0.05941420468844784,7.86987620063506,0.03969100372934277,-0.014860115439119703,-0.9985643736060226
2025-11-24T18:00:07.807692,-0.16818019624332295,0.014529862642676777,8.102511792321875,0.09004297156353434,0.002608531629626404,-1.0993439254240882
2025-11-24T18:00:07.817308,0.3070044851241291,0.10773000814524517,7.456825721844375,-0.14433585668791027,0.07062594295148494,-0.9344608238675786
2025-11-24T18:00:07.826923,0.1342333314699427,-0.17987961436070146,7.94273877992952,-0.03553806898400792,0.20003312107066007,-0.9675034039840975
2025-11-24T18:00:07.836538,0.05067770002416938,0.13959185513525735,7.904900471013843,0.17000527448988959,-0.06091014429932773,-1.0472017660028468
2025-11-24T18:00:07.846154,0.15261647528542846,0.20116857293249873,7.806546454728055,-0.04860392954696824,-0.04009958382982347,-0.9332701035669272
2025-11-24T18:00:07.855769,0.2976389442115768,0.28598504456402485,7.709800464706515,0.0587550535973686,-0.040322692980959335,-0.8042683083096438
