Timestamp,Acceleration_X,Acceleration_Y,Acceleration_Z,Gyro_X,Gyro_Y,Gyro_Z
2025-11-24T18:00:00,0.10981985802353907,-0.13428339840479148,9.826389092131048,-0.08542178234980183,0.14300680236711444,0.4622503450049965
2025-11-24T18:00:00.009615,0.10517073937381415,-0.08881635930473603,9.89276132190527,-0.05183086307671466,0.11089167499362754,0.5084157587417892
2025-11-24T18:00:00.019231,0.10092293955018368,-0.044154101161494895,9.958109615526883,-0.019564865249710323,0.07968832160788555,0.5534824182261769
2025-11-24T18:00:00.028846,0.09763015383602028,-0.0017931553160381085,10.022990346237203,0.010132222281346194,0.05038210619177441,0.5966082769568346
2025-11-24T18:00:00.038462,0.09575578152384943,0.036927632962823975,10.087946865030814,0.03617522323906216,0.02382572760819462,0.6370593980370134
2025-11-24T18:00:00.048077,0.09562280019961768,0.07093453504339908,10.153450815810931,0.057711633415750446,0.0006868362793647603,0.6742513091253058
2025-11-24T18:00:00.057692,0.09738320452051846,0.09947814662702631,10.219863845755928,0.07416971346571039,-0.01858247949903026,0.7077808533640026
2025-11-24T18:00:00.067308,0.10100863714337087,0.12214654012232977,10.287422554790885,0.08528010439962479,-0.03375327738261242,0.7374445249277102
2025-11-24T18:00:00.076923,0.10630167364094709,0.13884058729086973,10.356246456973373,0.09107400647954844,-0.0448069913883627,0.7632410647004787
2025-11-24T18:00:00.086538,0.11292448216048245,0.1497228278665837,10.42636373374587,0.09186308809099387,-0.051907858202704035,0.7853587818090878
2025-11-24T18:00:00.096154,0.1204388928383203,0.15515374279706864,10.497744098517842,0.08820632794049378,-0.05536746952630598,0.8041505672573849
2025-11-24T18:00:00.105769,0.12835046479453519,0.15563073694212354,10.57032577025906,0.0808670365631669,-0.0556076556283969,0.8201010274293369
2025-11-24T18:00:00.115385,0.13614962380229254,0.15174310316198533,10.644026527879703,0.07076077766195885,-0.05312554274992085,0.833790125106425
2025-11-24T18:00:00.125000,0.1433452264231462,0.14414953273480102,10.718735417495308,0.05889387144305717,-0.04846205715461127,0.8458561909680505
2025-11-24T18:00:00.134615,0.14948914986955877,0.13357527688608084,10.794288073773393,0.04629355230191387,-0.04217381503061508,0.8569590600574941
2025-11-24T18:00:00.144231,0.15419360642545316,0.12081754959290665,10.870432552631051,0.03393371084856667,-0.0348084036863688,0.8677428685672522
2025-11-24T18:00:00.153846,0.15714487330748697,0.10674381292864436,10.94679466098902,0.022662604604115004,-0.02688345776113817,0.8787983881193945
2025-11-24T18:00:00.163462,0.15811722479702783,0.09227043334921864,11.022852886256821,0.013139972307399937,-0.018869770146925632,0.890625955988358
2025-11-24T18:00:00.173077,0.1569884773097212,0.07831792372302383,11.09793214879302,0.005790987057701392,-0.011178021951254133,0.9036011473157863
2025-11-24T18:00:00.182692,0.15375444231939825,0.0657490934508451,11.171221421405193,0.0007836620775246733,-0.004148084299990445,0.9179461446760354
2025-11-24T18:00:00.192308,0.14853655106492833,0.05530270395591353,11.241813960536819,-0.001965991549132394,0.001960415417390411,0.9337102879739012
2025-11-24T18:00:00.201923,0.14157750867568525,0.04753552433460616,11.308763735394994,-0.00276067733241527,0.006977208084715237,0.9507631495044526
2025-11-24T18:00:00.211538,0.13322328718450177,0.04278166821692372,11.371149880566024,-0.002064362569465045,0.01082981120012675,0.9688022763807402
2025-11-24T18:00:00.221154,0.12389328819420428,0.041132840269403594,11.42814212488037,-0.00042834116342469115,0.013548691540846597,0.9873755744901919
2025-11-24T18:00:00.230769,0.11404265887104,0.04243888409803881,11.479062055257748,0.0015887446119563784,0.015264647626484664,1.0059159724285893
2025-11-24T18:00:00.240385,0.10412180505850999,0.046325921295929426,11.523436146369349,0.003495233347425018,0.01619417979982189,1.0237844814180581
2025-11-24T18:00:00.250000,0.09453856032573421,0.05222963641592877,11.5610366107034,0.0049245999895009916,0.016611843759760984,1.0403171758610747
2025-11-24T18:00:00.259615,0.08562839750815683,0.059442818500092455,11.591906191488825,0.00567053605971954,0.01681299065135102,1.0548713986382625
2025-11-24T18:00:00.269231,0.07763725954633534,0.06717681700100905,11.616363735562182,0.0056970120007560545,0.017073218195312212,1.0668668173273788
2025-11-24T18:00:00.278846,0.07071923410030562,0.07463451917275465,11.634988677385262,0.0051259291012367226,0.01761125256268096,1.0758185851481112
2025-11-24T18:00:00.288462,0.06494735947591308,0.08108862295686524,11.648584044713486,0.004207539433855645,0.01856065436306665,1.0813622600818291
2025-11-24T18:00:00.298077,0.06033232683651639,0.08595559979700806,11.658119182503025,0.003279129952098367,0.0199538281863154,1.0832713763474784
2025-11-24T18:00:00.307692,0.056843061797550457,0.08885458619903087,11.664655471419794,0.0027169074496814667,0.02171995600134893,1.081467813977025
2025-11-24T18:00:00.317308,0.054424990771047586,0.0896422318854039,11.669261359567017,0.0028860388240650684,0.02369683738790596,1.0760238090860106
2025-11-24T18:00:00.326923,0.05301379238509201,0.08841890127852632,11.67292678122712,0.004094263197731074,0.025654973631394924,1.067154258056497
2025-11-24T18:00:00.336538,0.05254285185231159,0.08550714754617772,11.67648970695269,0.0065543194630956585,0.02733042240199599,1.0551988728538193
2025-11-24T18:00:00.346154,0.05294267120589129,0.08140810836024519,11.680586351291222,0.010359255568917475,0.028461486535637154,1.0405947772380992
2025-11-24T18:00:00.355769,0.05413262017939621,0.07674387791661733,11.685630424151189,0.015472936397928677,0.028823967084651302,1.0238410770833175
2025-11-24T18:00:00.365385,0.05600929185967886,0.07219384633192828,11.69181861003515,0.021735989120859448,0.028260559987053447,1.0054583323796504
2025-11-24T18:00:00.375000,0.058437778649648886,0.06843163438431375,11.699153726319407,0.02888501977505633,0.026701245686318105,0.9859474780717644
2025-11-24T18:00:00.384615,0.06125014376949046,0.06606767875379169,11.707475815743805,0.036580678250151155,0.024172632827924194,0.9657532069375494
2025-11-24T18:00:00.394231,0.06425113594043534,0.06560106764717145,11.716493664050304,0.04443891432705274,0.020795425489719983,0.9452353334353983
2025-11-24T18:00:00.403846,0.06722839335063109,0.067382947652752,11.725812765293048,0.052060137406382476,0.016770896269429476,0.9246491985726526
2025-11-24T18:00:00.413462,0.06996454771227234,0.07159267156161671,11.734958795126115,0.05905292956918153,0.012359013741861997,0.9041345123861089
2025-11-24T18:00:00.423077,0.07225047689756828,0.07822673082963993,11.743397339454722,0.0650515870383677,0.007851780571608158,0.8837120064375485
2025-11-24T18:00:00.432692,0.07390019555417053,0.0870996473764059,11.750551402490084,0.06972867541918513,0.003545252553164826,0.8632883688950975
2025-11-24T18:00:00.442308,0.07476715133741425,0.0978557944182145,11.755818762280335,0.0728044906856428,-0.0002867873290173237,0.8426708749903628
2025-11-24T18:00:00.451923,0.0747594467906516,0.10999157621579891,11.758591106985595,0.07405568846878566,-0.0034151453204318734,0.8215925737679842
2025-11-24T18:00:00.461538,0.07384992676885971,0.12288802355596483,11.758275355989339,0.07332570150088606,-0.005671986263508554,0.7997464433597823
2025-11-24T18:00:00.471154,0.07207829314413568,0.13585397006720099,11.754315473382036,0.07053868532229994,-0.006961396791813696,0.7768239534743674
2025-11-24T18:00:00.480769,0.06954574987754074,0.14817893684558733,11.746212473504762,0.06571598726343592,-0.007263762677530244,0.7525520777328537
2025-11-24T18:00:00.490385,0.06640503421953547,0.15919242268523998,11.733542145592438,0.05899108353644254,-0.006634419076749103,0.7267235390239317
2025-11-24T18:00:00.500000,0.06284850088557331,0.168323283954853,11.715972564530176,0.050617513798929335,-0.005197205873661817,0.6992167764987066
2025-11-24T18:00:00.509615,0.05909574579361482,0.17515126049388405,11.693283867505135,0.0409650155586622,-0.003133226423746446,0.670003856313512
2025-11-24T18:00:00.519231,0.0553817715337601,0.179443869133008,11.665390345087367,0.030501365228034805,-0.0006644051604241902,0.639146455492082
2025-11-24T18:00:00.528846,0.051946489733482,0.18117472590693148,11.632361631040931,0.019760697243088605,0.001968552050234989,0.6067822561094358
2025-11-24T18:00:00.538462,0.04902516487365903,0.1805213935075136,11.594437952948242,0.009302182580539829,0.004532663101903362,0.5731058091735798
2025-11-24T18:00:00.548077,0.04683743010332262,0.17784156840746054,11.55203468476346,-0.00033525301588446706,0.00683038449217918,0.5383480609259781
2025-11-24T18:00:00.557692,0.04557182909139921,0.1736276510991565,11.50573295216818,-0.008676339911146492,0.008724070241260424,0.5027571783075094
2025-11-24T18:00:00.567308,0.045365105041452046,0.16844274294066525,11.45625467939691,-0.015346135256815904,0.010152780551349579,0.46658145330893136
2025-11-24T18:00:00.576923,0.04627950273368762,0.16284518602767611,11.404422265777551,-0.020096350573065733,0.011138174862696797,0.4300545288964951
2025-11-24T18:00:00.586538,0.04828414865027648,0.15731238073148748,11.351105695788792,-0.02281885157716117,0.011778240778016875,0.3933840061936675
2025-11-24T18:00:00.596154,0.051246281757174265,0.15217647373471857,11.297162692734108,-0.023545029161950917,0.012229693159930508,0.3567450807948718
2025-11-24T18:00:00.605769,0.05493538310955135,0.1475837396141935,11.243378656342149,-0.022431425819028145,0.012681054064934158,0.3202799061308671
2025-11-24T18:00:00.615385,0.05904021373946487,0.1434856128121477,11.190411877713586,-0.019734056373982137,0.013319112386113878,0.2841012028424566
2025-11-24T18:00:00.625000,0.0631972557382433,0.13966285032236628,11.138747541638562,-0.015775630268996973,0.014292780382003493,0.2482965817601826
2025-11-24T18:00:00.634615,0.06702910155357313,0.13577735043057704,11.088663315765167,-0.010910867458070517,0.015680003508330098,0.2129294106363139
2025-11-24T18:00:00.644231,0.07019100799694572,0.1314411894486335,11.040209901703177,-0.00549503768901526,0.017463950937113233,0.17803363032358294
2025-11-24T18:00:00.653846,0.0724213491103494,0.12629023766464204,10.993210206359896,0.00014044814567524793,0.01952376656841942,0.1436035323102311
2025-11-24T18:00:00.663462,0.07358777691294147,0.12004996068924256,10.947279728498977,0.005703759307557961,0.02164305766143912,0.10958333743563223
2025-11-24T18:00:00.673077,0.07371833238818602,0.11258374224656603,10.901868373094612,0.010950151786185927,0.023536084629407424,0.07586299136071539
2025-11-24T18:00:00.682692,0.07300799664206595,0.10391873600813892,10.85632028285809,0.015683119062146866,0.024887762666976117,0.04228498522120204
2025-11-24T18:00:00.692308,0.07179634114608537,0.09424887549131432,10.809943852173218,0.0197518883502525,0.025400632351111316,0.008663398895507279
2025-11-24T18:00:00.701923,0.07051882430690982,0.0839176268468978,10.762080986227444,0.023048364390755006,0.02484109203296887,-0.02518741039319354
2025-11-24T18:00:00.711538,0.06964024933924798,0.0733846545828312,10.712165471649216,0.025506146298578634,0.02307813088675217,-0.059419653803830706
2025-11-24T18:00:00.721154,0.06958238457530654,0.06318164917743657,10.659764878336972,0.02710279295378531,0.020109501492707755,-0.0941205318281514
2025-11-24T18:00:00.730769,0.07065828240988425,0.053862930497342594,10.604605432617909,0.027864709471529858,0.016071989829660384,-0.12928766061323488
2025-11-24T18:00:00.740385,0.07302365587908127,0.04595543136638641,10.546581808808856,0.02787247322359399,0.011234177237229562,-0.16481566083917468
2025-11-24T18:00:00.750000,0.07665160502735358,0.0399107653739392,10.485753742849948,0.02726339874597866,0.005972199434200507,-0.20049677440284194
2025-11-24T18:00:00.759615,0.08133244275706665,0.03606122665992077,10.42233048980204,0.026227869734150186,0.0007314852604759928,-0.23603702659330122
2025-11-24T18:00:00.769231,0.08669706818821618,0.03458319719587634,10.356643582812756,0.024996640860422994,-0.004020270545977852,-0.27108757518787047
2025-11-24T18:00:00.778846,0.09226097622790838,0.03547406436391774,10.2891086197895,0.02381814927511718,-0.007842332464739634,-0.3052884693264565
2025-11-24T18:00:00.788462,0.09748520707771588,0.0385489660129882,10.220178327579031,0.022927694988003646,-0.010365901172247274,-0.3383196799758892
2025-11-24T18:00:00.798077,0.10184822566475757,0.04346002328155066,10.15029139443343,0.02251296582974069,-0.011329835860964123,-0.36995226782599805
2025-11-24T18:00:00.807692,0.104918596013424,0.04973506876378471,10.079823017878125,0.022681564097355018,-0.010604162401788299,-0.4000910212759401
2025-11-24T18:00:00.817308,0.10641494576672222,0.05682825721720594,10.009042980576702,0.023436190163906696,-0.0082001817031807,-0.4287997131168265
2025-11-24T18:00:00.826923,0.1062408504674966,0.06417334724603846,9.93808573680891,0.024662888321632832,-0.004267027880488891,-0.456302356691492
2025-11-24T18:00:00.836538,0.1044890280303237,0.07123198202936047,9.866935440143335,0.026136959431094207,0.0009249073828105491,-0.48295819507712867
2025-11-24T18:00:00.846154,0.1014178341748733,0.07753246734770365,9.795428248403564,0.027548599832023242,0.0070125268629393075,-0.5092131327867568
2025-11-24T18:00:00.855769,0.09740815448815282,0.08269757846064688,9.723274714942674,0.02854603879621517,0.013578073858044153,-0.5355345908739054
2025-11-24T18:00:00.865385,0.0929091894142753,0.08646205129228579,9.650104543665067,0.02878972795216515,0.02019232008982207,-0.5623397326834174
2025-11-24T18:00:00.875000,0.08838035252786669,0.08868162463650857,9.575532133791858,0.028008825525573405,0.026456823033611822,-0.5899283684812222
2025-11-24T18:00:00.884615,0.08423590335610974,0.0893356895711185,9.499234732788866,0.026051007908235807,0.03203886155355359,-0.6184312915220845
2025-11-24T18:00:00.894231,0.08079877497715462,0.0885245382714285,9.421029275556702,0.02291761556232275,0.0366943573148144,-0.6477822804884125
2025-11-24T18:00:00.903846,0.07826957714102455,0.08646025680486985,9.340932797708573,0.018777793781435247,0.04027697389151866,-0.677717989958932
2025-11-24T18:00:00.913462,0.07671520789977085,0.08344883020213152,9.259195289613789,0.013957948497784627,0.042734403556432654,-0.7078052173098611
2025-11-24T18:00:00.923077,0.07607782843007639,0.0798615870639956,9.176300419916364,0.008906835744212242,0.044095053602824175,-0.737490444887076
2025-11-24T18:00:00.932692,0.07619989337712667,0.07609686486438103,9.09293567115955,0.004141238922978304,0.04444970247256604,-0.7661630999108446
2025-11-24T18:00:00.942308,0.07685768934995706,0.07253601799420695,9.009937628257838,0.00018076998619276098,0.04393276774119598,-0.7932226502923252
2025-11-24T18:00:00.951923,0.07779635089976027,0.06949972882307269,8.928220372917789,-0.0025183954921837908,0.042706509677569476,-0.8181407721382429
2025-11-24T18:00:00.961538,0.07876183144081121,0.06721064446522915,8.84869603673022,-0.0036217708350455183,0.0409495191347802,-0.8405123526593069
2025-11-24T18:00:00.971154,0.07952723097269149,0.06576752708351599,8.772197299610578,-0.0029593196966101226,0.03884906399527211,-0.8600913509137276
2025-11-24T18:00:00.980769,0.07991204384046911,0.0651351884873777,8.699411136795774,-0.000547274351815374,0.03659553398950007,-0.8768089196210116
2025-11-24T18:00:00.990385,0.07979424624639009,0.06515342776027716,8.630830285808397,0.0034135865636889815,0.03437645835629614,-0.8907725910507971
2025-11-24T18:00:01,0.0791163165059997,0.0655662615477273,8.566724868617825,0.008562100820633422,0.032367886604602124,-0.9022474718925103
2025-11-24T18:00:01.009615,0.07788630066158554,0.06606943263723937,8.507133833893619,0.014418634402663912,0.030722459977698572,-0.9116225101645805
2025-11-24T18:00:01.019231,0.0761743250361038,0.06636995815270254,8.451875272622196,0.020437749537070247,0.029555406690959827,-0.9193657788368301
2025-11-24T18:00:01.028846,0.07410472204182932,0.06624753645431272,8.400574938415819,0.0260642133801827,0.028930876904264935,-0.9259724760924953
2025-11-24T18:00:01.038462,0.07184416783888725,0.06560542418046053,8.35271158359022,0.030786100220171735,0.028851223298937346,-0.9319093967543828
2025-11-24T18:00:01.048077,0.06958608872027561,0.06449928095749244,8.307675185297455,0.034180545006646405,0.029251536451694767,-0.9375610079785283
2025-11-24T18:00:01.057692,0.06753140598629019,0.06313700075563065,8.264831032037884,0.03594920630683684,0.0300012925096653,-0.9431843005556513
2025-11-24T18:00:01.067308,0.06586653946336052,0.06184941625279604,8.223581562887,0.03594132712329106,0.03091414048156609,-0.9488804637350174
2025-11-24T18:00:01.076923,0.06474126677838832,0.06103827603164912,8.183420238893197,0.034162656412364566,0.03176561320316362,-0.9545896275693928
2025-11-24T18:00:01.086538,0.06425030267300662,0.061112117028944445,8.143976083551825,0.030769083659873724,0.03231735660643816,-0.960110291728105
2025-11-24T18:00:01.096154,0.06442254603775645,0.0624222444788995,8.105050401722343,0.02604541191008985,0.03234549766737418,-0.9651392688660794
2025-11-24T18:00:01.105769,0.06522047492094757,0.0652099161664251,8.06664604000967,0.02037223991212242,0.03166974659843624,-0.9693236509674495
2025-11-24T18:00:01.115385,0.06654917091033274,0.069572088346646,8.028985230970392,0.01418628394156955,0.030179078821478248,-0.9723150543391503
2025-11-24T18:00:01.125000,0.06827118202934543,0.07544817356646596,7.992508502800319,0.007940285532941136,0.027850200494630144,-0.9738177697665187
2025-11-24T18:00:01.134615,0.07022186724968182,0.08262635833130738,7.957847878833417,0.0020676118481805245,0.02475637924053431,-0.973625050332756
2025-11-24T18:00:01.144231,0.07222100535383273,0.09076604369344544,7.925772589394764,-0.003045389807119637,0.021065608604387952,-0.9716404020392497
2025-11-24T18:00:01.153846,0.07407957083171607,0.09943224574581765,7.89711192759593,-0.007078245772889829,0.017028213512238148,-0.967882548942436
2025-11-24T18:00:01.163462,0.07560381106967196,0.1081373153978099,7.87266492625542,-0.00978694230382102,0.012955484217964278,-0.9624736753497105
2025-11-24T18:00:01.173077,0.07660044230049191,0.11638468797221968,7.853108746125045,-0.011007908906520958,0.009192349645988588,-0.955611646130244
2025-11-24T18:00:01.182692,0.07688651082892649,0.12370901094374302,7.838917186994412,-0.010657869070263915,0.00608705489759457,-0.9475291873403868
2025-11-24T18:00:01.192308,0.07630572129443941,0.12970781068265388,7.830299165747785,-0.008732307873479955,0.003959271165607485,-0.9384461815063004
2025-11-24T18:00:01.201923,0.07475030615235968,0.13406204796008767,7.827165275305993,-0.005304669765191814,0.0030671028259380718,-0.9285238696228089
2025-11-24T18:00:01.211538,0.07218437875243257,0.13654556625392145,7.829127541684442,-0.000526874207912836,0.0035747176382694736,-0.9178303576654708
2025-11-24T18:00:01.221154,0.06866239113480953,0.1370255526422097,7.835532440812142,0.005369997977639836,0.005524997578883306,-0.9063247772555407
2025-11-24T18:00:01.230769,0.06433627942244906,0.1354576303997137,7.845521713371172,0.01207724541530631,0.00882334346460477,-0.8938633919231902
2025-11-24T18:00:01.240385,0.059447596559802966,0.13188037256621107,7.858111817988968,0.01921530052545509,0.01323794214766774,-0.8802263114749114
2025-11-24T18:00:01.250000,0.05430528080669358,0.12641422221452422,7.872281748386043,0.026348755209485812,0.018418534972276555,-0.8651595349446966
2025-11-24T18:00:01.259615,0.04925371949175768,0.11926766433232897,7.887059868248517,0.0330122220553606,0.02393136675487885,-0.848424259938022
2025-11-24T18:00:01.269231,0.0446378669321681,0.11074879000175598,7.90160244558174,0.03874803990452139,0.02930437759002792,-0.82984380494379
2025-11-24T18:00:01.278846,0.04077192279697964,0.10127522789986676,7.915258557703861,0.04315377048402998,0.0340752973553933,-0.8093386107433871
2025-11-24T18:00:01.288462,0.0379158678079347,0.09137308990552019,7.927617433287666,0.04593328242694513,0.03783612366347521,-0.7869425764213943
2025-11-24T18:00:01.298077,0.03626054792780224,0.08165778380782797,7.938535585103307,0.04694153083778318,0.040269083839854634,-0.7627991801949057
2025-11-24T18:00:01.307692,0.035918058469354544,0.07279472873054614,7.948142633371932,0.04621215696190246,0.04117047495816852,-0.7371410069748772
2025-11-24T18:00:01.317308,0.03691213904520355,0.06544324599518302,7.956826230095273,0.04396015913329843,0.04046003896407473,-0.7102588034092537
2025-11-24T18:00:01.326923,0.039165418624719096,0.060190862029509434,7.965197827076562,0.04055794375422091,0.03817558658411967,-0.6824658467847052
2025-11-24T18:00:01.336538,0.04248631003718809,0.05748787943738622,7.97404222508764,0.0364890936198009,0.03445550240134437,-0.6540623039694027
2025-11-24T18:00:01.346154,0.04656423731531271,0.05759257484998188,7.984254869698903,0.032288101642540847,0.029514505536877796,-0.6253038071577558
2025-11-24T18:00:01.355769,0.05098301059058403,0.06053508207850636,7.996772068651971,0.028475666248544355,0.023618947523925446,-0.5963781319320801
2025-11-24T18:00:01.365385,0.055257148172814054,0.06610421328658472,8.01250078371437,0.025498293613270936,0.017066158158895395,-0.5673925795839954
2025-11-24T18:00:01.375000,0.05888771785282596,0.07385834778816955,8.032255104224252,0.023678816789994356,0.01016917429109538,-0.5383724428346726
2025-11-24T18:00:01.384615,0.061427636096850334,0.08315959217652437,8.056704634451018,0.023182155843514657,0.003245875622879066,-0.509268628853663
2025-11-24T18:00:01.394231,0.06254451100608234,0.09322858850503271,8.086336707207362,0.0239988444947444,-0.0033891657869545596,-0.47997105650164895
2025-11-24T18:00:01.403846,0.062071572975586936,0.10321501594258857,8.121431866164116,0.025947582563322063,-0.009431928405555788,-0.45032438246716544
2025-11-24T18:00:01.413462,0.060041155482978274,0.1122765634058805,8.162051592156425,0.02869693063903915,-0.014597157860003063,-0.4201438031484148
2025-11-24T18:00:01.423077,0.0566983890523709,0.11965760462766187,8.208038032200038,0.031804571349024445,-0.01862893668166349,-0.38923034854097127
2025-11-24T18:00:01.432692,0.052494699752208614,0.12475822867867728,8.259026158247263,0.03477017076019694,-0.02131367493589558,-0.3573862728607164
2025-11-24T18:00:01.442308,0.0480615145216029,0.12718506418383796,8.314468557128869,0.037095604658690266,-0.02249424216416415,-0.3244312265190573
2025-11-24T18:00:01.451923,0.044164974124394143,0.12677803059668505,8.373671809459003,0.03834517632628919,-0.022083412597995324,-0.29021893451271613
2025-11-24T18:00:01.461538,0.041643395502348524,0.12361148318880485,8.435841543930959,0.03819873247998078,-0.020074993837856093,-0.25465286043165297
2025-11-24T18:00:01.471154,0.041330800500977004,0.11797266621952672,8.500131723044293,0.0364918187556378,-0.016551324238327825,-0.21769875047133136
2025-11-24T18:00:01.480769,0.043971591058258146,0.11032321479581582,8.565693543104796,0.03323848668483389,-0.011685997392425596,-0.17939246221928454
2025-11-24T18:00:01.490385,0.050133495470305565,0.10124999063734298,8.631720689097993,0.02863377978980354,-0.005740892937170011,-0.13984259533076757
2025-11-24T18:00:01.500000,0.06012805298733688,0.09141024681486079,8.69748960536695,0.02303486663791818,0.0009431721316204667,-0.0992282203110759
2025-11-24T18:00:01.509615,0.07394878762753193,0.08147430334569948,8.7623944707511,0.016922896419997745,0.007962874422929407,-0.05779210408461387
2025-11-24T18:00:01.519231,0.09123585134730858,0.07206870510456222,8.825976149633883,0.010851197009109812,0.014876724615604669,-0.015829718671104016
2025-11-24T18:00:01.528846,0.11127332567699616,0.06372519429963176,8.887943489566185,0.005387557580739941,0.021237589203848297,0.026325582943689647
2025-11-24T18:00:01.538462,0.13302340153920056,0.05684339944787692,8.948185159390084,0.0010579856900643475,0.026631617994756208,0.06832062348641847
2025-11-24T18:00:01.548077,0.1551999102153777,0.05167434348080559,9.006770905257351,-0.0017026493803138688,0.030718509177316753,0.10980290856020884
2025-11-24T18:00:01.557692,0.17637910227589107,0.0483271622040427,9.063942108466264,-0.0025894911593136965,0.03326525938642773,0.15044252681124481
2025-11-24T18:00:01.567308,0.1951368891391379,0.046795751312430696,9.12009248029751,-0.0014532971829858488,0.03416546200199173,0.18995380098576342
2025-11-24T18:00:01.576923,0.21019307122952313,0.04699830192914319,9.17574032359534,0.001689414955759041,0.03343961892788954,0.2281141634719259
2025-11-24T18:00:01.586538,0.22054021180026528,0.04882096938606861,9.231493776217265,0.006662253411764254,0.031217436661275896,0.2647771382076546
2025-11-24T18:00:01.596154,0.22553903288181684,0.05215599943518138,9.288010307995036,0.013148872267478224,0.02770808782868688,0.2998769584761509
2025-11-24T18:00:01.605769,0.2249700482889119,0.056924760862405936,9.345952546488183,0.02072266618318404,0.02316670462000519,0.33342439650635014
2025-11-24T18:00:01.615385,0.21903917211611462,0.06307901664996544,9.405944212426002,0.02888137489375093,0.01786431503168288,0.36549570942794796
2025-11-24T18:00:01.625000,0.2083417923491265,0.0705799596726369,9.468530628095879,0.03708302162221702,0.0120652925641591,0.39621785585771113
2025-11-24T18:00:01.634615,0.1937941890460103,0.07936194130022173,9.534146424651087,0.044781662245383574,0.006013166676954468,0.425752823851282
2025-11-24T18:00:01.644231,0.17654230945283447,0.08929279884386605,9.60309019192018,0.05146270696102522,-7.637472068182754e-05,0.45428252359189436
2025-11-24T18:00:01.653846,0.15785678929714744,0.10014283028138404,9.675504891407986,0.05667749983490244,-0.00601713576408815,0.4819941995936919
2025-11-24T18:00:01.663462,0.13902235395431306,0.11157067424284067,9.751364428744528,0.060075980777289005,-0.01165045245937356,0.5090656170982627
2025-11-24T18:00:01.673077,0.12123076525214099,0.12312958454631653,9.830468137870373,0.06143526191757549,-0.01684102369240184,0.5356496919562224
2025-11-24T18:00:01.682692,0.10548773485453179,0.13429368083533197,9.912443940781154,0.06068089692754723,-0.021471604462409557,0.5618591475681641
2025-11-24T18:00:01.692308,0.09254308004486075,0.1445007811226713,9.996758968873136,0.057896776708818355,-0.025437413584874932,0.587752289176246
2025-11-24T18:00:01.701923,0.08284962777056051,0.15320622393213507,10.082736091609156,0.05331997827993042,-0.02864113684287737,0.6133211787203694
2025-11-24T18:00:01.711538,0.07655243882246437,0.1599406781486184,10.169576532915285,0.0473192934966175,-0.030989581490830916,0.638484381607279
2025-11-24T18:00:01.721154,0.0735076156846399,0.16436414510906844,10.256390952618272,0.04035976930155527,-0.032393056456062636,0.6630880685048899
2025-11-24T18:00:01.730769,0.07332819287670693,0.16630822204983797,10.342242297236389,0.03295840806533573,-0.03276832736421223,0.6869197721041999
2025-11-24T18:00:01.740385,0.07545148296435449,0.16579965092547824,10.426202148012539,0.0256369605012059,-0.032045568008691,0.7097367229459349
2025-11-24T18:00:01.750000,0.0792182797463955,0.16306058591593536,10.507417961706965,0.01887705613784408,-0.03017892231143694,0.7313058517427682
2025-11-24T18:00:01.759615,0.08395226472973631,0.15848476556898614,10.58518327669312,0.01308187357981261,-0.027159005503645025,0.7514478700541974
2025-11-24T18:00:01.769231,0.08902965280833365,0.15259288952170655,10.65899972202963,0.008547470239091753,-0.023024437216279746,0.7700760932404638
2025-11-24T18:00:01.778846,0.093933397324164,0.14597342578828143,10.728620236671233,0.005445745526305618,-0.01786922269514422,0.7872223970938991
2025-11-24T18:00:01.788462,0.09829014296494507,0.1392163164210955,10.794066247991447,0.00382000497646494,-0.011843809581604406,0.8030459214728831
2025-11-24T18:00:01.798077,0.10188952891969257,0.1328476876455781,10.855615511957534,0.0035931243715599617,-0.005149291815786033,0.8178228688299235
2025-11-24T18:00:01.807692,0.10468511201704309,0.12727434810738975,10.91376091412099,0.0045869457415932575,0.001974339715460485,0.8319179696393652
2025-11-24T18:00:01.817308,0.10677641377453619,0.12274663098759167,10.969144206256315,0.006549867389506679,0.00926409891357355,0.8457406678059645
2025-11-24T18:00:01.826923,0.10837363730336805,0.11934598539482706,11.02247250590357,0.009188395332147764,0.016451846012590927,0.859691756380102
2025-11-24T18:00:01.836538,0.10974966500035759,0.11699970055636427,11.074428308031901,0.012198265146920228,0.023281868453894922,0.8741083891394463
2025-11-24T18:00:01.846154,0.11118656568629134,0.11551990642996247,11.125584895070736,0.015291404689898728,0.029526383743944326,0.8892163330170674
2025-11-24T18:00:01.855769,0.11292517703124084,0.11465844757004434,11.17633874309099,0.018215985932430644,0.034997820267810634,0.9050972938774473
2025-11-24T18:00:01.865385,0.11512609195509534,0.11416479441614466,11.226868827621542,0.020768010577142726,0.0395574192827304,0.9216761360739789
2025-11-24T18:00:01.875000,0.1178482106791182,0.1138329952947379,11.277128599876715,0.022794475974662984,0.043120026053549775,0.9387288089209698
2025-11-24T18:00:01.884615,0.12104678077584861,0.11352762941313718,11.32686997387901,0.024189964874938227,0.04565488342579001,0.9559079877662535
2025-11-24T18:00:01.894231,0.12458762514633644,0.11318678679919246,11.37569243777132,0.02488972333146133,0.047182234857634266,0.9727807565477045
2025-11-24T18:00:01.903846,0.12827058180651457,0.11280800732679222,11.423106891264881,0.024862303346293413,0.04776600265367506,0.9888716871635109
2025-11-24T18:00:01.913462,0.13185516561754096,0.11242685912008032,11.468603445538925,0.024103819553775427,0.047503711757393756,1.0037051075331433
2025-11-24T18:00:01.923077,0.13508435343756572,0.11209662635669175,11.511714249171039,0.02263453773742115,0.04651567178410152,1.0168412281109618
2025-11-24T18:00:01.932692,0.13770517549211633,0.1118733389938119,11.552064835847034,0.020497469248926908,0.044935513200992705,1.0279019131771612
2025-11-24T18:00:01.942308,0.1394857812286686,0.11180620098692179,11.58940865410466,0.017758098255273108,0.04290319010920338,1.036583984753323
2025-11-24T18:00:01.951923,0.1402287688209357,0.11193180033379534,11.623639559117168,0.014504397131984554,0.040560104071273514,1.0426611750441297
2025-11-24T18:00:01.961538,0.1397809514942404,0.11227124594151418,11.654779301370457,0.010846862297904354,0.03804519663036176,1.0459789318134212
2025-11-24T18:00:01.971154,0.13804034997513068,0.11283050852571509,11.682943065335534,0.006918941224380367,0.035491119727418856,1.046447557493162
2025-11-24T18:00:01.980769,0.13496180821573436,0.11360416939921611,11.708292671356192,0.002878054034040812,0.033020152446266646,1.0440380143363341
2025-11-24T18:00:01.990385,0.13056290676636162,0.1145814756673262,11.730989811974604,-0.0010938590734530483,0.030739599119095223,1.0387820622196335
2025-11-24T18:00:02,0.12493102528483331,0.11575195928204819,11.751159749674704,-0.0047927937689663,0.02873618823936544,1.030775780588363
2025-11-24T18:00:02.009615,0.11823021858938484,0.11710701833017477,11.76887127170971,-0.008000991001529711,0.02706906102611402,1.020183886440494
2025-11-24T18:00:02.019231,0.11070418123639642,0.11863459508718445,11.784133825466553,-0.010502604055065473,0.025761420817175213,1.007241480490373
2025-11-24T18:00:02.028846,0.10267086549016025,0.12030668445010863,11.796909373941553,-0.012105622349351983,0.02479186155256787,0.9922495857372792
2025-11-24T18:00:02.038462,0.09450605114598724,0.12206321453875181,11.807134998866356,-0.01266602472257857,0.024087851626450132,0.9755613313534676
2025-11-24T18:00:02.048077,0.08661602921195015,0.12379863020372667,11.814751462550683,-0.01210827757666317,0.023525063403635832,0.9575575133856196
2025-11-24T18:00:02.057692,0.07940173321602415,0.1253568180081206,11.819731468886198,-0.010436815957567474,0.022935881584080595,0.9386134790247448
2025-11-24T18:00:02.067308,0.07321806651664768,0.1265363185370193,11.82209985457647,-0.007735975618563621,0.022128164156804176,0.9190624774246225
2025-11-24T18:00:02.076923,0.06833398335036933,0.127104379026131,11.821938825919702,-0.004159250311679527,0.020912408954283472,0.8991621814901467
2025-11-24T18:00:02.086538,0.0649008206097002,0.12681733215159446,11.819375931876548,8.903547306477235e-05,0.019133279772284153,0.8790705178106694
2025-11-24T18:00:02.096154,0.06293640928312988,0.1254451193973839,11.814559062617136,0.004775864308202122,0.016700187828715317,0.8588347640478644
2025-11-24T18:00:02.105769,0.06232952976497039,0.12279796019887232,11.807628090883881,0.009661824414713138,0.013611055730382248,0.8383949867080962
2025-11-24T18:00:02.115385,0.06286464985826402,0.1187527293227444,11.798693981556108,0.014520308776062538,0.00996395865694535,0.8176002968674337
2025-11-24T18:00:02.125000,0.06426271968635006,0.11327610632430604,11.787832229278061,0.019151240515714235,0.005953639498414086,0.7962345970185807
2025-11-24T18:00:02.134615,0.06623118882797276,0.10644186374788016,11.775090090291336,0.0233886794352632,0.0018533425997066496,0.7740473941640437
2025-11-24T18:00:02.144231,0.06851515452334453,0.09844039464938639,11.760500395940014,0.027103613078953974,-0.002014649006847143,0.7507850355352531
2025-11-24T18:00:02.153846,0.07094093528758137,0.08957830660247207,11.744092579981915,0.030204079900942347,-0.005315096930718316,0.7262187460228503
2025-11-24T18:00:02.163462,0.07344353100168592,0.08026492005603449,11.725894420462934,0.03263407895938793,-0.007737939811565074,0.700167641993234
2025-11-24T18:00:02.173077,0.07607145561981975,0.07098328962162678,11.705923144313509,0.03437144349748275,-0.009034552650463714,0.6725163280451132
2025-11-24T18:00:02.182692,0.07896658496283536,0.06224707382947277,11.684168896082738,0.035424053588974415,-0.009048800554921589,0.6432271939955071
2025-11-24T18:00:02.192308,0.08232177308452616,0.05454921757522899,11.66057604098754,0.0358237087252152,-0.00773967156815983,0.6123474448226026
2025-11-24T18:00:02.201923,0.08632367767226874,0.048311379750174785,11.635028957881836,0.03561753971366575,-0.005191977548245213,0.5800106288866761
2025-11-24T18:00:02.211538,0.09109155222370807,0.04384355642617393,11.607349173685247,0.03485777815487524,-0.0016118903194602872,0.5464320796166949
2025-11-24T18:00:02.221154,0.09662393123605878,0.04132167706292919,11.577308659308114,0.03359160201974334,0.002694065221335412,0.5118973598728523
2025-11-24T18:00:02.230769,0.10276380598779365,0.040787015768369544,11.544658768842929,0.03185325289007632,0.00735480623817101,0.4767428994707228
2025-11-24T18:00:02.240385,0.10918953800443389,0.04216540999245967,11.509167601577568,0.029660555075701804,0.011980370983553717,0.44132907513887537
2025-11-24T18:00:02.250000,0.11543433159730881,0.045298637459646636,11.47065493771218,0.02701734296943361,0.016210423525320688,0.4060079270597213
2025-11-24T18:00:02.259615,0.12093239615827538,0.04997790643465683,11.429015869224575,0.023922137073341513,0.019757773460018238,0.37108942215698393
2025-11-24T18:00:02.269231,0.12508559303099284,0.05597145476872811,11.384229755463119,0.020381835616717425,0.02243981632070318,0.33681052450065024
2025-11-24T18:00:02.278846,0.12734121284434297,0.06304276391616428,11.336356268973883,0.016427444633235897,0.024192946199113663,0.303310541900825
2025-11-24T18:00:02.288462,0.12727038357666,0.07095979606352225,11.285523162907946,0.01212750254108593,0.02506842043590872,0.2706154291979244
2025-11-24T18:00:02.298077,0.12463717202591057,0.07949753682751369,11.231911262912956,0.007594810445933049,0.025212127850528503,0.2386333290400094
2025-11-24T18:00:02.307692,0.11944930377178099,0.08843642347784003,11.175741661090145,0.0029838323957251944,0.024833813066594372,0.20716291272086745
2025-11-24T18:00:02.317308,0.11198181764520497,0.09755879844550176,11.117268098139796,-0.0015211263771616672,0.024172524418771175,0.17591454115059357
2025-11-24T18:00:02.326923,0.10276589565992156,0.10664491141351852,11.056773858331546,-0.005724475128212225,0.023464496097841157,0.14454230982944255
2025-11-24T18:00:02.336538,0.09253875219578596,0.11546959558034463,10.994568519521042,-0.009440799727671194,0.022918065048066823,0.11268339822122903
2025-11-24T18:00:02.346154,0.0821581889327114,0.12380072687080719,10.93097852363615,-0.012515078861825724,0.02269825118500902,0.08000018710207601
2025-11-24T18:00:02.355769,0.07249512106872737,0.1314009345444114,10.866328265325517,-0.014837976724374017,0.022921713799715637,0.04622023699803695
2025-11-24T18:00:02.365385,0.06432386223174444,0.1380346697209405,10.800913393226981,-0.016353529603572975,0.023660912978664815,0.011169240266210204
2025-11-24T18:00:02.375000,0.05822956649812938,0.14348287882230343,10.734971985787059,-0.017057986180440406,0.024954235257150226,-0.02520731312785707
2025-11-24T18:00:02.384615,0.054546063437273744,0.14756583764806955,10.668660394058387,-0.01699068056551357,0.026816912527715495,-0.06283639647420228
2025-11-24T18:00:02.394231,0.053329567798628595,0.15017115506339018,10.60203937800096,-0.01622022437058532,0.02924691048802052,-0.10152385966220846
2025-11-24T18:00:02.403846,0.05436800442191593,0.1512806409578608,10.535074190982405,-0.014830547088688622,0.032221695823450164,-0.14097277395508412
2025-11-24T18:00:02.413462,0.057222468724658054,0.15098871613817474,10.467650081506479,-0.012910380540653433,0.03568584262474973,-0.1808096765124809
2025-11-24T18:00:02.423077,0.061294647126395,0.1495064297031335,10.399601818942587,-0.010547527293420525,0.03953430858703096,-0.2206138455114366
2025-11-24T18:00:02.432692,0.06591078624323769,0.14714782573840143,10.330752440515894,-0.00782742013951036,0.04359965062643032,-0.25994515970871157
2025-11-24T18:00:02.442308,0.07041047080502384,0.14429848219261882,10.260954144125014,-0.004834738468138613,0.04765153650394113,-0.2983680642740084
2025-11-24T18:00:02.451923,0.07422848248028793,0.14136920189008276,10.190124681053812,-0.0016565209273679527,0.05141322922393551,-0.33547225447837553
2025-11-24T18:00:02.461538,0.0769599544717261,0.13874096986468273,10.118274826390504,0.0016153002680003583,0.05459389326100807,-0.37089310956164245
2025-11-24T18:00:02.471154,0.07840207828815932,0.13670991910251654,10.045524002276359,0.00488429586431566,0.05693018759827089,-0.4043346491999373
2025-11-24T18:00:02.480769,0.07856933076234862,0.13544204575539157,9.972101294850495,0.008054484122574774,0.05822749250739014,-0.4355949201050163
2025-11-24T18:00:02.490385,0.07768274035670984,0.1349461583518523,9.898329983749733,0.011039662392236723,0.0583908608363447,-0.46459041479029994
2025-11-24T18:00:02.500000,0.07613636099896991,0.13507067382780527,9.824596491724682,0.013774908393991142,0.057438364002589413,-0.4913741415260084
2025-11-24T18:00:02.509615,0.07444601355275908,0.13552607784387957,9.751307819640514,0.016226677988566657,0.05549437218418092,-0.516141701745617
2025-11-24T18:00:02.519231,0.07318666935557763,0.13593026447849604,9.678843300581839,0.018398034260788353,0.052766033842757,-0.5392213846831251
2025-11-24T18:00:02.528846,0.07292535498363509,0.13586921290692838,9.607506949079044,0.020327126788527303,0.049510574517120244,-0.5610478351287301
2025-11-24T18:00:02.538462,0.07415610909009544,0.13496196369203542,9.537486465498331,0.022079141641106095,0.04600202897943218,-0.5821229336401909
2025-11-24T18:00:02.548077,0.07724248419660368,0.13291791705604972,9.468824224107005,0.023733470029021615,0.04250347086497416,-0.6029701218712076
2025-11-24T18:00:02.557692,0.08237186912915553,0.1295767621417773,9.401404437212337,0.025368434371379173,0.039246670901663304,-0.6240886821612494
2025-11-24T18:00:02.567308,0.08952568104886327,0.12492635833649514,9.334959379735261,0.027045838661966554,0.0364178299952015,-0.6459131772522975
2025-11-24T18:00:02.576923,0.09847045432160774,0.11909959370956158,9.269096022802662,0.028797426899940557,0.034146880813181846,-0.6687814713262387
2025-11-24T18:00:02.586538,0.10877455237400466,0.11235517167965539,9.203342398285509,0.030615445602658508,0.03249883834769532,-0.6929129627321347
2025-11-24T18:00:02.596154,0.11985088736166347,0.10504832036651204,9.137210275743113,0.03244956329091267,0.031467823734856695,-0.7183967961369853
2025-11-24T18:00:02.605769,0.1310188634216499,0.09759651187943974,9.07026722288816,0.034211596975522784,0.03097603140273997,-0.7451881168525983
2025-11-24T18:00:02.615385,0.1415733247276622,0.09044405891610473,9.002207513890296,0.03578770291519543,0.030879791697195645,-0.7731097763235366
2025-11-24T18:00:02.625000,0.1508476851143376,0.08402836534072047,8.93290956889467,0.03705564379118434,0.030983188735306064,-0.8018578853240992
2025-11-24T18:00:02.634615,0.1582620881545929,0.07874920226846255,8.862469652567265,0.03790336743301369,0.031057762368772612,-0.8310115256444608
2025-11-24T18:00:02.644231,0.1633531547881793,0.0749411201231317,8.791207095632513,0.03824511255714858,0.030865805910476163,-0.8600484032140077
2025-11-24T18:00:02.653846,0.16578751637808795,0.07284917319369268,8.719642290788126,0.038032614142073755,0.03018477492611195,-0.8883685765476214
2025-11-24T18:00:02.663462,0.1653649428670735,0.07260963473716602,8.648452294665274,0.037260776329766404,0.02883061337630826,-0.9153277046248016
2025-11-24T18:00:02.673077,0.1620172337572094,0.07423889841552885,8.578410184125065,0.035968374136033154,0.026677648944368085,-0.9402795621438107
2025-11-24T18:00:02.682692,0.15580692578172328,0.0776336725785526,8.510315499321697,0.03423473178733661,0.023672253188219087,-0.9626248713238343
2025-11-24T18:00:02.692308,0.14692694690830566,0.08258356054981214,8.444924686861405,0.032173125039301524,0.019837670932524903,-0.9818605375800478
2025-11-24T18:00:02.701923,0.13569911900842735,0.088794417123931,8.38289071918523,0.02992103023549476,0.015268832152608613,-0.9976215723623403
2025-11-24T18:00:02.711538,0.12256646906237685,0.09591894211350481,8.324719163699069,0.027626892172933428,0.010117937930835144,-1.0097082952902177
2025-11-24T18:00:02.721154,0.10807377589615356,0.10358999683782015,8.270744942346678,0.02543377125695046,0.004573260216107944,-1.0180937679813131
2025-11-24T18:00:02.730769,0.09283383605776238,0.1114511937397673,8.221130577314224,0.023462104477747717,-0.0011652951566551817,-1.0229103624336513
2025-11-24T18:00:02.740385,0.07748188152628105,0.11917846571458618,8.175882856096601,0.021795415319151516,-0.006909624290347477,-1.0244191532906568
2025-11-24T18:00:02.750000,0.06262490304799398,0.12648755164024353,8.134881437517882,0.020472486276537145,-0.0125016159379236,-1.0229698083894723
2025-11-24T18:00:02.759615,0.048794862356438935,0.13312697593460593,8.097911584343015,0.01948717315031652,-0.017822891327506436,-1.018959996508941
2025-11-24T18:00:02.769231,0.0364143658900117,0.1388621556740415,8.064694618630691,0.018794269837391027,-0.022794770585031206,-1.0128016052426674
2025-11-24T18:00:02.778846,0.025780616762456025,0.1434598959501918,8.034912788094896,0.0183183467960411,-0.027369203993320927,-1.0048973948487148
2025-11-24T18:00:02.788462,0.017069197942384002,0.14668173501973594,8.008228171559448,0.01796284872940129,-0.0315130172125154,-0.995627744717237
2025-11-24T18:00:02.798077,0.010354248831769036,0.14829063325222272,7.98429694319796,0.017618341448679343,-0.03518878625617105,-0.9853444185924826
2025-11-24T18:00:02.807692,0.005637201700274527,0.14807098211490408,7.962780826923975,0.017170521648247533,-0.038336342208064915,-0.9743676282246627
2025-11-24T18:00:02.817308,0.002874638427936604,0.1458584128921543,7.943357345802683,0.016509487848726665,-0.040859451479386126,-0.9629836074663612
2025-11-24T18:00:02.826923,0.0019982633958040997,0.14157378459464182,7.925729677217825,0.015541445571120095,-0.0426218618003845,-0.9514411528838551
2025-11-24T18:00:02.836538,0.0029250439064225915,0.13525505121184747,7.9096358773297455,0.014202567465571516,-0.043455129289266085,-0.9399463811312972
2025-11-24T18:00:02.846154,0.005560067944752757,0.12708099103715287,7.89485684608944,0.012472575989431129,-0.04317830074149496,-0.9286553603606158
2025-11-24T18:00:02.855769,0.009796299687377831,0.11738137899558809,7.881223274425532,0.010383927599870384,-0.04162757101903497,-0.9176647567398434
2025-11-24T18:00:02.865385,0.015514375040571423,0.10662941873185779,7.868623076064427,0.008022860393199277,-0.03869219915927828,-0.9070016677979531
2025-11-24T18:00:02.875000,0.022583468563203098,0.09541501165906954,7.857010733476021,0.005521452414020437,-0.0343508764065948,-0.8966152549352531
2025-11-24T18:00:02.884615,0.030862026467870157,0.08440144371486244,7.84641794508885,0.00304350973072121,-0.02870120316639755,-0.8863735403880451
2025-11-24T18:00:02.894231,0.040195590425300014,0.07427176972369619,7.836962217753159,0.0007690767154518883,-0.021975039768113134,-0.8760678194925947
2025-11-24T18:00:02.903846,0.050409775967011676,0.06567318097600755,7.828848642582804,-0.0011184567532814857,-0.014534385755020945,-0.8654250793015255
2025-11-24T18:00:02.913462,0.06130021696059527,0.05916726351766198,7.822361112349467,-0.002441446020894496,-0.006845621320909873,-0.8541271648149326
2025-11-24T18:00:02.923077,0.07262518025945981,0.055191237105468846,7.817842088403549,-0.003035003018809404,0.000566078058655417,-0.841835081695123
2025-11-24T18:00:02.932692,0.08410725405666193,0.054031170504887795,7.815663345118587,-0.0027551087136595226,0.007176182582077081,-0.8282171388146462
2025-11-24T18:00:02.942308,0.09544758464302308,0.05580527246344268,7.816193158059684,-0.001490256187230686,0.012524683805097402,-0.8129792528226258
2025-11-24T18:00:02.951923,0.10635149692150792,0.060455734448249726,7.819767491624358,0.0008234780108157375,0.01627323804368889,-0.7958942462994579
2025-11-24T18:00:02.961538,0.11655997648805226,0.06775055785901761,7.826672006080139,0.0041869812742588415,0.018245221018760655,-0.7768255315595117
2025-11-24T18:00:02.971154,0.12587881484047225,0.07729885262740555,7.83713675070793,0.008527036717643143,0.018441896996617115,-0.75574059506511
2025-11-24T18:00:02.980769,0.13419718975959846,0.08858144883223261,7.85133838163988,0.013693935166974607,0.01703313438458556,-0.732711424833914
2025-11-24T18:00:02.990385,0.14149035046012248,0.10099428946995587,7.869400414411401,0.019469714520944176,0.014326074926375703,-0.7079015924782086
2025-11-24T18:00:03,0.1478061646173166,0.11389820394636642,7.891383619557623,0.025585805516115553,0.010718560387840461,-0.6815420450437292
2025-11-24T18:00:03.009615,0.15324064360579312,0.1266669688672986,7.917265357294035,0.031745888461082165,0.006645761081988677,-0.6538992554936331
2025-11-24T18:00:03.019231,0.1579106822967537,0.13872545899379327,7.946914316430414,0.0376482289812223,0.002528422843219338,-0.6252403039997663
2025-11-24T18:00:03.028846,0.16193175308194022,0.14957103892558377,7.98007122210743,0.043003010618235527,-0.0012704668095622313,-0.5957997778483143
2025-11-24T18:00:03.038462,0.16540495440314895,0.15877538354906195,8.016344777754616,0.04754383334061399,-0.004476136378172098,-0.5657528842245015
2025-11-24T18:00:03.048077,0.16841354299066968,0.1659705162522226,8.055227363070745,0.051035955775879514,-0.00691708798361538,-0.5351979413053874
2025-11-24T18:00:03.057692,0.17102562543983477,0.17082909161575963,8.096130116837633,0.053284656739874196,-0.008523923771122661,-0.5041499612143876
2025-11-24T18:00:03.067308,0.17329818314374665,0.17305164316539826,8.138433443421567,0.054145340347189,-0.009313579374593983,-0.47254579457308626
2025-11-24T18:00:03.076923,0.17527821719515999,0.17237152265056935,8.181546359186406,0.05353459345475656,-0.009363679574784399,-0.4402603914345748
2025-11-24T18:00:03.086538,0.17699884859463938,0.16858212934774156,8.224966437490886,0.051440098365841146,-0.008783889784194664,-0.4071329481927133
2025-11-24T18:00:03.096154,0.17847095620670309,0.16158255220255827,8.268331945064837,0.04792740052407152,-0.0076911285024038,-0.3730004071580383
2025-11-24T18:00:03.105769,0.17967350711706276,0.15142997982793394,8.311459068492809,0.043142098766622755,-0.006193355404552537,-0.3377335314506021
2025-11-24T18:00:03.115385,0.18054686396999423,0.13838342913882493,8.354359543480353,0.03730630017775234,-0.00438342879505267,-0.30126868368200904
2025-11-24T18:00:03.125000,0.1809926655339902,0.12292498192920503,8.39723693183467,0.030708302656138713,-0.002341519288630961,-0.26362868995261274
2025-11-24T18:00:03.134615,0.18088249993013908,0.10575041553551925,8.440462133995549,0.023685054118474862,-0.00014251665084072336,-0.22492945209202608
2025-11-24T18:00:03.144231,0.18007622736859782,0.08772794813037148,8.48453025095503,0.016598343434147823,0.002135979529944232,-0.18537308079070722
2025-11-24T18:00:03.153846,0.17844864543002423,0.06982988005671878,8.53000301323101,0.009807507066185989,0.004408905992397525,-0.14523058194871188
2025-11-24T18:00:03.163462,0.17591993745724419,0.05304675309962611,8.577444332575174,0.0036426462745980646,0.006584006121419419,-0.10481731988339119
2025-11-24T18:00:03.173077,0.17248285105660238,0.038296776571572225,8.627359398209542,-0.0016178663942535802,0.00856634057096853,-0.06446419865161598
2025-11-24T18:00:03.182692,0.16821990699917871,0.026343731654346544,8.680147716682763,-0.0057631752207347245,0.010264677174676355,-0.02448763679614912
2025-11-24T18:00:03.192308,0.1633068841768177,0.017734023323660007,8.736076766296279,-0.008658125710407926,0.01159757202121578,0.014838326975210595
2025-11-24T18:00:03.201923,0.15800231001728357,0.012759095314339206,8.795277091747224,-0.01024415853694367,0.012498167829233112,0.053304435137891105
2025-11-24T18:00:03.211538,0.1526253560772532,0.011445075640006871,8.857754481583763,-0.010534331817680386,0.01291766471688845,0.09078024268173839
2025-11-24T18:00:03.221154,0.1475265172181457,0.013568568138110774,8.923411988613909,-0.00960470647511265,0.01282734490768665,0.12721827176302578
2025-11-24T18:00:03.230769,0.14305678162824972,0.018695590290769726,8.992073896340454,-0.007584325654137457,0.012218437852111479,0.16264873188092938
2025-11-24T18:00:03.240385,0.13954058886243856,0.02623876470666021,9.063505108918273,-0.004645369056253213,0.011099214855340322,0.19716661486599762
2025-11-24T18:00:03.250000,0.13725501325204864,0.035525703907704806,9.137422912829008,-0.0009943840180194337,0.009490009577773484,0.23091324938463745
2025-11-24T18:00:03.259615,0.13641402372832087,0.04586968309571979,9.213502424058827,0.0031351984548808514,0.007418279910281628,0.264054376850139
2025-11-24T18:00:03.269231,0.13715531179715723,0.05663297626461204,9.291379655546086,0.007490054904703708,0.0049158830590769935,0.29675710772725944
2025-11-24T18:00:03.278846,0.13952869748062913,0.06727399950075773,9.370655310210191,0.011805262179778108,0.0020193652717003865,0.32916826609440997
2025-11-24T18:00:03.288462,0.14348729192835327,0.07737180311284457,9.450899599465835,0.01581590285490247,-0.0012276092643334247,0.36139620397231176
2025-11-24T18:00:03.298077,0.1488833831216211,0.0866260237630103,9.53165705164513,0.019272929101322975,-0.004771566349210826,0.39349756582862505
2025-11-24T18:00:03.307692,0.15547051849464713,0.09483685036829177,9.612451756271584,0.021962234305373866,-0.00854784698557407,0.42547003346079365
2025-11-24T18:00:03.317308,0.16291265469022542,0.10187489954267734,9.692795546816404,0.02372404495052885,-0.012480446696946184,0.4572515417288434
2025-11-24T18:00:03.326923,0.17080100403488174,0.1076517456655629,9.772201644571942,0.024469000632270168,-0.016481273158353644,0.48872584800045143
2025-11-24T18:00:03.336538,0.1786787001394329,0.1120985803488754,9.85020423372392,0.024187704921665786,-0.020447397298393944,0.5197340678109028
2025-11-24T18:00:03.346154,0.1860721110745658,0.11515644980060016,9.926382200464817,0.022951693938376254,-0.0242573401020234,0.5500916639365954
2025-11-24T18:00:03.355769,0.19252616752801943,0.11677862355082715,10.000384515169223,0.020905401672470788,-0.027769541856063413,0.5796096533851087
2025-11-24T18:00:03.365385,0.19764024802426652,0.11694306573602921,10.071955497499122,0.01825051425493463,-0.03082592607983561,0.6081174718435688
2025-11-24T18:00:03.375000,0.2011006272639932,0.11567009793931371,10.1409588141024,0.015225522006199832,-0.03326141893542758,0.6354839462037845
2025-11-24T18:00:03.384615,0.20270476177230798,0.11303862267115085,10.20739785740375,0.012083728477447275,-0.03491815723548938,0.6616327886732598
2025-11-24T18:00:03.394231,0.20237277986447716,0.10919534783404357,10.271427873827061,0.009072464886134862,-0.03566190156242201,0.6865498163406519
2025-11-24T18:00:03.403846,0.20014362838246869,0.10435457046365065,10.333354691959022,0.006415397887789481,-0.035397794848328085,0.7102806488838511
2025-11-24T18:00:03.413462,0.19615664673330013,0.09878877468746161,10.393617398029011,0.004299139083568429,-0.034082736387042144,0.7329198651828417
2025-11-24T18:00:03.423077,0.1906225573283736,0.09281122413435797,10.452755682495026,0.0028648192509916396,-0.03173221503719413,0.7545946841034468
2025-11-24T18:00:03.432692,0.18379061027335775,0.08675181567154001,10.511364561876686,0.0022046303317661974,-0.028420591527161775,0.7754471840510895
2025-11-24T18:00:03.442308,0.1759198828290656,0.08092834911328121,10.570040232026997,0.0023626560183189083,-0.024275427052704662,0.7956187933685617
2025-11-24T18:00:03.451923,0.16726066662166994,0.07561740475811707,10.629322255425324,0.003338911483442569,-0.019467878731145905,0.8152396236795891
2025-11-24T18:00:03.461538,0.1580469444223837,0.0710307796504665,10.689638704205425,0.005095424443598019,-0.014201661932127466,0.8344231765943798
2025-11-24T18:00:03.471154,0.1484965442780477,0.06730308174233283,10.751261011061727,0.007563118729704304,-0.00870250268387324,0.8532642652199162
2025-11-24T18:00:03.480769,0.13881414756347213,0.06449332879016158,10.814273982503082,0.010648092042210617,-0.0032088692292309845,0.8718359012779493
2025-11-24T18:00:03.490385,0.1291931392318373,0.0625994985492707,10.8785643922255,0.014236012558326704,0.0020364969923941795,0.8901810196538844
2025-11-24T18:00:03.500000,0.11981355786271913,0.061581079434805654,10.943829114988134,0.018194242023828,0.006795885772363916,0.9082977557111879
2025-11-24T18:00:03.509615,0.11083507442698803,0.061381653037561594,11.009601063202615,0.02237267210648151,0.010848879989940313,0.9261211773165919
2025-11-24T18:00:03.519231,0.10238670132399263,0.06194293313653513,11.075288853659066,0.026605327172050237,0.014008819843867183,0.9435074944548156
2025-11-24T18:00:03.528846,0.09455796677959306,0.06320479735422689,11.140224592356564,0.030715025114194636,0.01614256450025705,0.9602271788656309
2025-11-24T18:00:03.538462,0.08739736862053049,0.0650917872402071,11.20371343125514,0.0345227884412125,0.017190390889388927,0.9759711718517486
2025-11-24T18:00:03.548077,0.08092158012043524,0.06749215964266056,11.265078981063255,0.03786238367075095,0.017181756423813255,0.990370740918547
2025-11-24T18:00:03.557692,0.07513404447197272,0.0702379446770448,11.323700687733474,0.0405986365944107,0.016242979297439123,1.003028146099556
2025-11-24T18:00:03.567308,0.07004722634501845,0.07309354047654135,11.37904209586248,0.04264652863700903,0.014594170880397515,1.0135532116673378
2025-11-24T18:00:03.576923,0.06570143132282555,0.07575816641811088,11.430670790824436,0.043986839235715336,0.01253460131645052,1.021600587474902
2025-11-24T18:00:03.586538,0.06217486624498586,0.07788498132099636,11.478270996558178,0.04467352828579432,0.01041792709252056,1.0269035897496692
2025-11-24T18:00:03.596154,0.05958280382021293,0.07911623056785469,11.521649315411201,0.04482878529584279,0.00862064649792244,1.0293018859849152
2025-11-24T18:00:03.605769,0.058066517135062126,0.07912954629328758,11.56073411821665,0.04462409383744358,0.007507720663490812,1.0287607580440299
2025-11-24T18:00:03.615385,0.05777418535450738,0.07768707213082715,11.595569433391866,0.04424911908461721,0.007398570038772837,1.0253794439984056
2025-11-24T18:00:03.625000,0.05883662344371225,0.07467784400835255,11.626303947145772,0.04387343877414985,0.008535951081549467,1.0193865442248602
2025-11-24T18:00:03.634615,0.06134105105122545,0.07014524015670795,11.653175070343718,0.04360804732391094,0.01106039792326501,1.0111224333544893
2025-11-24T18:00:03.644231,0.06530587058280102,0.0642948634925603,11.67648827211553,0.04347377083909267,0.01499333286924174,1.0010111483053519
2025-11-24T18:00:03.653846,0.07065845699148124,0.057482608707778556,11.6965937242702,0.043382640896151146,0.020231270165274616,0.9895256844289566
2025-11-24T18:00:03.663462,0.07721753963361161,0.05018624532578152,11.71386434261908,0.04313671889429229,0.02655144651116087,0.9771501950554918
2025-11-24T18:00:03.673077,0.08468270567234083,0.04296575575138483,11.728678888008751,0.04244717090944543,0.03362708820751417,0.9643411234142016
2025-11-24T18:00:03.682692,0.0926345136351394,0.036417989254202025,11.741410094349806,0.04097400077774146,0.04104985705298109,0.9514885242328681
2025-11-24T18:00:03.692308,0.10054807155477495,0.031130232535382142,11.752413619330094,0.03838307485636376,0.04835775222043591,0.9388794771042717
2025-11-24T18:00:03.701923,0.10782112775722737,0.02763534992882509,11.76201245228522,0.0344122665688097,0.055067872381001665,0.9266669334699233
2025-11-24T18:00:03.711538,0.11381617040855167,0.026369169135709573,11.770473701053291,0.028934510997459934,0.060713985886218624,0.9148487163164547
2025-11-24T18:00:03.721154,0.11791522188157393,0.027630596361324776,11.7779784694174,0.02200458746779229,0.06488782919475301,0.903261852605709
2025-11-24T18:00:03.730769,0.11958502257583761,0.0315473846901742,11.7845892599772,0.01387950085795635,0.06728018468876552,0.8915959896956067
2025-11-24T18:00:03.740385,0.11844771515401087,0.03805355943291961,11.79022230114567,0.005008178125446479,0.06771479928584509,0.8794263713044885
2025-11-24T18:00:03.750000,0.11434819068833935,0.046885089611018914,11.794633426131707,-0.004007535738949157,0.06616779046900402,0.8662632909751765
2025-11-24T18:00:03.759615,0.10740648318570394,0.05759763135067791,11.797424303159657,-0.012473917439647082,0.0627682525893145,0.8516123802162244
2025-11-24T18:00:03.769231,0.098043955666097,0.06960559110758245,11.798070911669353,-0.019679551265698522,0.05778056723822644,0.8350382761742557
2025-11-24T18:00:03.778846,0.08697495977038189,0.08223690212741219,11.795970492222073,-0.024973475469421347,0.05157291779511464,0.8162228068794004
2025-11-24T18:00:03.788462,0.07516040252217251,0.09479404983224508,11.79049978921241,-0.027838374395845335,0.044578450833541096,0.7950086172705317
2025-11-24T18:00:03.798077,0.06372640608915053,0.10661103827704857,11.781077470571281,-0.027950086175332612,0.037255571566030085,0.7714209624293314
2025-11-24T18:00:03.807692,0.053858559977741687,0.11709922313448116,11.76722580858877,-0.025215712847057595,0.030052539072704255,0.7456639146871509
2025-11-24T18:00:03.817308,0.04668674570451839,0.1257800152028898,11.748628311785145,-0.019785638465990758,0.023379237432471046,0.718091481399336
2025-11-24T18:00:03.826923,0.04317559205904724,0.1323057232516033,11.72517903893572,-0.012039196414306067,0.017586377591896456,0.6891582237315489
2025-11-24T18:00:03.836538,0.04403291964094248,0.136470161930524,11.697016427355752,-0.0025475018631346247,0.012950391795144916,0.6593572949143228
2025-11-24T18:00:03.846154,0.04964493884479937,0.13820988240933496,11.66453245285512,0.00798114116165595,0.009661631657467603,0.6291559403055056
2025-11-24T18:00:03.855769,0.060042931320389625,0.13759665318292247,11.628349120207803,0.018767195107170027,0.007814302534042677,0.5989388736250989
2025-11-24T18:00:03.865385,0.07490196954240143,0.13482226130373018,11.589258742868322,0.02903073922808008,0.007398381161285634,0.5689678628957665
2025-11-24T18:00:03.875000,0.09356868345054764,0.13017741863829052,11.54813140966252,0.03806048633392429,0.008295485515374242,0.5393614517663472
2025-11-24T18:00:03.884615,0.11511273170562487,0.12402710623893724,11.505801638760484,0.045274374754553676,0.010281276628666638,0.5100939894090414
2025-11-24T18:00:03.894231,0.13839580173384491,0.11678432128537945,11.46295382296461,0.0502657823769997,0.01303647905236513,0.481010696470088
2025-11-24T18:00:03.903846,0.1621526236874433,0.10888260830833915,11.420028410258178,0.05283080503526782,0.016167699376919135,0.4518558470955503
2025-11-24T18:00:03.913462,0.18507933467335594,0.10074617461246689,11.377166163487557,0.05297449827466067,0.01923813688222344,0.42231200374224126
2025-11-24T18:00:03.923077,0.20592384899859947,0.09275661700105929,11.334199246912393,0.050897128142579684,0.02180673374085562,0.3920474110839455
2025-11-24T18:00:03.932692,0.22357119402417513,0.08521773250439052,11.290689528646654,0.04696418986416987,0.02347214561409368,0.36076648075120427
2025-11-24T18:00:03.942308,0.2371164540280673,0.07832328163443934,11.24600800710959,0.041665312180049964,0.02391542539144551,0.3282565166335102
2025-11-24T18:00:03.951923,0.24591988601604026,0.07213508732501674,11.19944406459043,0.035567243174319196,0.022933714397718376,0.29442349435127607
2025-11-24T18:00:03.961538,0.24964149168564478,0.06657872675066674,11.150329098544331,0.02926557066711252,0.020458430057500206,0.25931115783483766
2025-11-24T18:00:03.971154,0.24825443042774015,0.061460492446896976,11.098156455738142,0.02333901804758877,0.01655579387555806,0.22310095862600732
2025-11-24T18:00:03.980769,0.2420378319354316,0.05650378062725207,11.042678700336896,0.01830902126837136,0.011412383794936502,0.18609452175992572
2025-11-24T18:00:03.990385,0.23155010455859928,0.05139867702980656,10.98396493660361,0.014605874072508143,0.0053105395339014426,0.14868356803336552
2025-11-24T18:00:04,0.21758427481008383,0.04585696670369082,10.92240691522048,0.012541468263631948,-0.0014022315451280847,0.11131317599954693
2025-11-24T18:00:04.009615,0.20110767262534834,0.039665486751958544,10.858672771735824,0.012288391984315155,-0.008346748259288569,0.07444288009627464
2025-11-24T18:00:04.019231,0.18318944264194645,0.032732363987406705,10.7936178348685,0.013866396812068724,-0.015145195832232531,0.03850761954500264
2025-11-24T18:00:04.028846,0.16492064995611594,0.025122110834735752,10.728168911996477,0.017139112157812542,-0.021449557769908482,0.0038790016843489525
2025-11-24T18:00:04.038462,0.14733266994018931,0.017075796156043165,10.66320062843597,0.021824491821571736,-0.026961715259558094,-0.02917181925174353
2025-11-24T18:00:04.048077,0.13131978318301424,0.009011701510032175,10.59942117463929,0.027520806510286953,-0.0314438007823231,-0.060505819890634235
2025-11-24T18:00:04.057692,0.11757174932309021,0.0015019723332594624,10.537281979427526,0.03374674979900456,-0.03472036158968502,-0.09013672755657079
2025-11-24T18:00:04.067308,0.10652197358890123,-0.004776293830004739,10.476922288979406,0.03999102419810108,-0.036675712025093815,-0.11823571823069606
2025-11-24T18:00:04.076923,0.09831656430001523,-0.009111908019529429,10.418155330730631,0.04576496871119049,-0.03725007305671344,-0.14511840318494929
2025-11-24T18:00:04.086538,0.09280905358024509,-0.010844050730422718,10.36049737535852,0.05065162474801276,-0.036437593551752114,-0.17121608288232448
2025-11-24T18:00:04.096154,0.08958471726824761,-0.009449274264404806,10.303235079536487,0.05434532813014615,-0.034288463034803165,-0.19703588551081164
2025-11-24T18:00:04.105769,0.08801610240169261,-0.004618702797490372,10.245521224409446,0.05667680152194379,-0.030915431928732112,-0.2231150610004178
2025-11-24T18:00:04.115385,0.08734628631508137,0.003686871024800295,10.186485260988722,0.05762019341940685,-0.02650231531850411,-0.24997391746483402
2025-11-24T18:00:04.125000,0.08678972683266346,0.015213584198727767,10.1253432235487,0.05728136618333789,-0.021310003012600182,-0.2780708505801435
2025-11-24T18:00:04.134615,0.08563581210097121,0.02942711825930718,10.0614919063679,0.055870673654288806,-0.015675215231404218,-0.30776250945467326
2025-11-24T18:00:04.144231,0.08333979126166322,0.04555996138892614,9.994575146818155,0.05366677738205352,-0.009998248369581509,-0.33927245090444363
2025-11-24T18:00:04.153846,0.07958897024420263,0.06268699402907006,9.92451529767046,0.05097911009024153,-0.004717567524821214,-0.3726717007226627
2025-11-24T18:00:04.163462,0.07433688466527347,0.07981858336129491,9.851509261943438,0.04811516954064459,-0.0002716447830179894,-0.4078732671733711
2025-11-24T18:00:04.173077,0.06780325120726624,0.09599716559470067,9.775994380167413,0.0453558360771927,0.0029479682166770557,-0.4446400762111583
2025-11-24T18:00:04.182692,0.060442011174781804,0.11038328083091015,9.698593533781386,0.042938840982298276,0.004645136796067224,-0.48260377621139533
2025-11-24T18:00:04.192308,0.05288318594458806,0.12232047974841967,9.620049768176044,0.04104886566188632,0.004660936651198839,-0.5212914726175554
2025-11-24T18:00:04.201923,0.04585635680391371,0.13137339980398616,9.541158899547717,0.039812855202071666,0.0030015839692942702,-0.5601578040363469
2025-11-24T18:00:04.211538,0.04010434589779409,0.13733747290768206,9.462706188337098,0.03929973742611902,-0.0001526257952529884,-0.5986196453640239
2025-11-24T18:00:04.221154,0.0362958329364391,0.1402217965356965,9.385411994869086,0.039523657793151104,-0.00446007498790995,-0.636090363461234
2025-11-24T18:00:04.230769,0.034946261705982334,0.14020958121275848,9.309891015342362,0.040449455466972775,-0.009451664308040873,-0.6720108928863039
2025-11-24T18:00:04.240385,0.03635684861278854,0.13760379294865252,9.236628653771183,0.041999432522260266,-0.014581145598110662,-0.7058762092395666
2025-11-24T18:00:04.250000,0.04057969503359735,0.13276860144420768,9.165975141697785,0.04406130432848166,-0.01928417979226898,-0.7372575718949489
2025-11-24T18:00:04.259615,0.04741260096383919,0.1260789450008796,9.09815366440571,0.04649736160159326,-0.023037201887312415,-0.7658222143281235
2025-11-24T18:00:04.269231,0.05642259881144091,0.11788939967001706,9.033275411244029,0.04915404389788676,-0.025408171903933133,-0.7913519153258829
2025-11-24T18:00:04.278846,0.06699437261313067,0.10852829955768552,8.971354413683,0.051870523880776016,-0.026093925199873275,-0.8137599355248264
2025-11-24T18:00:04.288462,0.07839783321153869,0.09831495933238281,8.912318022565591,0.0544855336382532,-0.02494222715035378,-0.833103399529272
2025-11-24T18:00:04.298077,0.0898669765600586,0.08759078291928582,8.856012840030651,0.056842999393528576,-0.021959381861535173,-0.8495870168155084
2025-11-24T18:00:04.307692,0.10068036919859488,0.07675176356201993,8.802209029595232,0.05879777250148795,-0.017305095427914276,-0.8635547035413642
2025-11-24T18:00:04.317308,0.1102332067416434,0.0662700452409027,8.750607061773056,0.06022217225632591,-0.011275518822498371,-0.875467494840214
2025-11-24T18:00:04.326923,0.1180917498917826,0.056694834691015376,8.700849902366306,0.061012694737802964,-0.004274782785603303,-0.8858682332519666
2025-11-24T18:00:04.336538,0.12402297547374862,0.0486281397709163,8.65254157084914,0.061095372638326456,0.003223578268585975,-0.8953357183084487
2025-11-24T18:00:04.346154,0.12799606810484115,0.04267773151843011,8.605271273284927,0.06042874310519496,0.010721402645040965,-0.9044331901499296
2025-11-24T18:00:04.355769,0.13015761769049294,0.03939531205240617,8.558641131564602,0.05900454064850104,0.017740914857573835,-0.9136573713047907
2025-11-24T18:00:04.365385,0.13078751116002943,0.03920964381451318,8.512294639814883,0.05684672596514941,0.023864142168557013,-0.9233941248955889
2025-11-24T18:00:04.375000,0.1302458700754962,0.04236335110691343,8.465942898203192,0.05400909946201183,0.028763016334969572,-0.9338854316408886
2025-11-24T18:00:04.384615,0.12892169744340454,0.048861183759649866,8.419386871446227,0.05057155175477001,0.03221887604952963,-0.9452104997048825
2025-11-24T18:00:04.394231,0.12719082206018437,0.05843775168213182,8.372535583371008,0.046635587474604265,0.03413165160478842,-0.9572817978635274
2025-11-24T18:00:04.403846,0.12538609314703575,0.07055212574617747,8.325420751024085,0.04232053813123998,0.03451976752856404,-0.9698551254401602
2025-11-24T18:00:04.413462,0.12377938186355382,0.08441335228446796,8.278207177902127,0.03776167736050707,0.033512201082705556,-0.9825518541209501
2025-11-24T18:00:04.423077,0.12257369372448224,0.09903577233391224,8.231196123004988,0.03310977625109785,0.031334256315563636,-0.9948908753784613
2025-11-24T18:00:04.432692,0.12190350352913587,0.11331858211729542,8.184817587572974,0.02852957742912367,0.028288196254723407,-1.006327173671945
2025-11-24T18:00:04.442308,0.12184130525815123,0.12614160164165006,8.139608404648493,0.024194053703375955,0.024729058367353996,-1.0162935762998073
2025-11-24T18:00:04.451923,0.12240795720708987,0.13646822955219384,8.09617615281102,0.020272859137725124,0.021035739794541927,-1.0242424322007704
2025-11-24T18:00:04.461538,0.12358359805082754,0.14344603132678196,8.055152483961477,0.016916095803498243,0.017578636721649107,-1.0296845881987857
2025-11-24T18:00:04.471154,0.12531541784472128,0.14649485890820177,8.017141327200543,0.014236821077734501,0.014687072053836464,-1.032223844531017
2025-11-24T18:00:04.480769,0.12751975332941207,0.1453723064460229,7.982667321234597,0.012296606439134775,0.01262073305411388,-1.0315858880956523
2025-11-24T18:00:04.490385,0.13007925795841027,0.14020772306288923,7.952129395224904,0.011097729266602685,0.011548743537854383,-1.0276408277205906
2025-11-24T18:00:04.500000,0.1328397136924467,0.13149939055380372,7.925764760705455,0.010583498080320044,0.01153882202691299,-1.020417073464389
2025-11-24T18:00:04.509615,0.13561272305328514,0.120073951720019,7.903628662395939,0.01064560030328481,0.012557995297930473,-1.0101019419714532
2025-11-24T18:00:04.519231,0.1381883880081707,0.107011544679077,7.885593655332401,0.011135693438583897,0.014484876165062522,-0.9970235159109954
2025-11-24T18:00:04.528846,0.14035723661664973,0.09354435561164104,7.871369375529581,0.011878865942133969,0.01713086046369691,-0.9816113769457623
2025-11-24T18:00:04.538462,0.141936189298486,0.08094065737186885,7.860541279914168,0.012688578805081972,0.020264772387997405,-0.9643402643261513
2025-11-24T18:00:04.548077,0.14279159551296858,0.07038903443477504,7.852625049490266,0.013384322140976058,0.0236346630186847,-0.9456668437213839
2025-11-24T18:00:04.557692,0.14285347848848262,0.062895930706626,7.847131250248702,0.013812791813106741,0.026982676228751747,-0.9259722040372865
2025-11-24T18:00:04.567308,0.14211806446789452,0.05920458140690288,7.843631822920459,0.013871002874908863,0.0300530143900786,-0.9055207170336358
2025-11-24T18:00:04.576923,0.140639164057373,0.05973845806381209,7.841817460079515,0.013527098655938588,0.03259690671170053,-0.8844411955721347
2025-11-24T18:00:04.586538,0.1385116463392945,0.06457013508026889,7.841535480133267,0.012833424424005618,0.03438018529892674,-0.8627313614896217
2025-11-24T18:00:04.596154,0.13585130071928175,0.07341657200304112,7.8428022481372714,0.011927423826872225,0.035197621373848326,-0.8402829188842493
2025-11-24T18:00:04.605769,0.13277521832544179,0.0856623440680604,7.845790314434372,0.011018791427857144,0.03489425412846796,-0.8169217691616961
2025-11-24T18:00:04.615385,0.12938610034462883,0.10041167244944563,7.850795052426868,0.010364942368820396,0.03338969132686078,-0.79245565953149
2025-11-24T18:00:04.625000,0.12576235552336326,0.11656745369502919,7.85818755381923,0.01023952879779966,0.03069886192824264,-0.7667206111821808
2025-11-24T18:00:04.634615,0.1219535329940872,0.13293152952583004,7.868361236349291,0.010899304081730427,0.026942910999844374,-0.7396187642355383
2025-11-24T18:00:04.644231,0.11797938660651126,0.14831670030185995,7.881680249726934,0.012553582848539057,0.022346453890841975,-0.7111430728552536
2025-11-24T18:00:04.653846,0.11383198219502491,0.16165837773279285,7.898437531442759,0.015339113497338658,0.017220848815449,-0.6813867452284071
2025-11-24T18:00:04.663462,0.10948188528651155,0.1721123318854945,7.918827927890694,0.0193018284724793,0.011936073805982654,-0.650536701084674
2025-11-24T18:00:04.673077,0.10488928393072494,0.17912516020948768,7.942937489829695,0.02438551430945937,0.006885595751958306,-0.6188514970606768
2025-11-24T18:00:04.682692,0.10001954801145517,0.18246722079823716,7.970745741819423,0.030426387413178768,0.0024494027396324753,-0.5866261174570178
2025-11-24T18:00:04.692308,0.09486178985490268,0.18222449675249355,8.002135285943089,0.037152816888829765,-0.0010397741546095969,-0.5541486602052706
2025-11-24T18:00:04.701923,0.08944811097636987,0.1787544764267588,8.036903290033692,0.04419118836497659,-0.003323280107626317,-0.5216563531455203
2025-11-24T18:00:04.711538,0.083869690126855,0.17261821219830445,8.074771655316745,0.05108087656692427,-0.004234656373620789,-0.4892994013397075
2025-11-24T18:00:04.721154,0.07828497442721793,0.16450358255682682,8.115395681006522,0.05730158785564165,-0.003708988252988645,-0.4571201574566935
2025-11-24T18:00:04.730769,0.07291681252482096,0.15515287446595669,8.15837348336503,0.062314188105537016,-0.0017841076088376043,-0.425052124173338
2025-11-24T18:00:04.740385,0.06803899085674285,0.14530244214336727,8.20325929995171,0.06561265065293087,0.001405492487423443,-0.39293920288407186
2025-11-24T18:00:04.750000,0.06395574059329111,0.13563597285300197,8.249583282906505,0.06678164505255854,0.005641061948640087,-0.36057152939590903
2025-11-24T18:00:04.759615,0.060978405886902565,0.12674868467330283,8.296879342674174,0.06555232422690549,0.01063752568778655,-0.3277311625311316
2025-11-24T18:00:04.769231,0.05940200987254903,0.11911922241976472,8.344720932975559,0.061847977236129795,0.016066179159149853,-0.2942393105516352
2025-11-24T18:00:04.778846,0.05948267649054371,0.11308824005199469,8.392761610885087,0.055811462599074886,0.021580508470211347,-0.25999662846152516
2025-11-24T18:00:04.788462,0.06141582152399739,0.10884493418881941,8.44077364483753,0.04780820830920783,0.02684219002810482,-0.2250092879548605
2025-11-24T18:00:04.798077,0.06531485291174541,0.10642313741690833,8.488676327269568,0.03840222694878348,0.031543908094876456,-0.18939622637554
2025-11-24T18:00:04.807692,0.07119085431332853,0.1057074763241667,8.53654734768267,0.028307284759652374,0.0354265247790982,-0.15337707175685006
2025-11-24T18:00:04.817308,0.07893490442589816,0.10644920684316574,8.584614704001327,0.018319662245157717,0.03828966061253826,-0.11724444966852254
2025-11-24T18:00:04.826923,0.08830539822198752,0.10829111142759272,8.633231145011635,0.009241579865288363,0.03999621801688664,-0.0813269900380895
2025-11-24T18:00:04.836538,0.09892310164048357,0.11080038153692152,8.68283618572234,0.0018047919259708092,0.040472490969126126,-0.04594961760820763
2025-11-24T18:00:04.846154,0.11027735811864456,0.11350732881500335,8.733911686073675,-0.0033976913001941157,0.03970582648726572,-0.011396327403443292
2025-11-24T18:00:04.855769,0.12174696365217005,0.11594667207963957,8.786936545042591,-0.005966395620710807,0.03774102447455606,0.02212092829766991
2025-11-24T18:00:04.865385,0.13263714498978735,0.11769746630160446,8.842344810120375,-0.005733611807422981,0.03467543532992723,0.054484462862308805
2025-11-24T18:00:04.875000,0.14223038358485593,0.11841776224779019,8.900489588450409,-0.002782907761022766,0.030652186418245984,0.08568200253715934
2025-11-24T18:00:04.884615,0.14984569756229238,0.11787143281191535,8.96161372963931,0.0025524448080100847,0.02585131202760697,0.11580589198933984
2025-11-24T18:00:04.894231,0.15489947678784174,0.11594706088903567,9.025828474895949,0.009714562079420789,0.020479112346608406,0.14504142682355284
2025-11-24T18:00:04.903846,0.1569609340035485,0.1126706107000082,9.093101873862997,0.01797054442263609,0.014756535251722854,0.1736468855064532
2025-11-24T18:00:04.913462,0.1557965679708757,0.10821312861862754,9.163257776387963,0.026483957385260787,0.008907780058664725,0.20192830530865424
2025-11-24T18:00:04.923077,0.15140002915336997,0.10289196774435287,9.235984424118636,0.0344005585902051,0.0031504819642331,0.23021169323927754
2025-11-24T18:00:04.932692,0.14400505280896078,0.09716085411831883,9.31085131638449,0.04093664781562165,-0.002311248304505123,0.2588146883435221
2025-11-24T18:00:04.942308,0.1340793445134039,0.09158335514466207,9.38733367632589,0.04545789521189622,-0.007289768850101942,0.28801927269934213
2025-11-24T18:00:04.951923,0.12229763574783695,0.0867876635192332,9.464843225259326,0.047539251769966186,-0.011612207133206301,0.3180473515404242
2025-11-24T18:00:04.961538,0.10949367092115471,0.0834064050287647,9.542761932423188,0.047000244426206164,-0.015115309223345303,0.3490415468205114
2025-11-24T18:00:04.971154,0.09659376381692716,0.08200962846779931,9.620474067837897,0.043913223974207584,-0.017640884673582425,0.381053498094555
2025-11-24T18:00:04.980769,0.08453828036454068,0.08304023582272642,9.697392751837357,0.03858534252581985,-0.01903756719408157,0.41404099697665386
2025-11-24T18:00:04.990385,0.07420098383463117,0.08675982695135374,9.772979940984719,0.03151826542107332,-0.019172815767539528,0.4478739728070628
2025-11-24T18:00:05,0.06631785943818935,0.09321071233360723,9.846762181308556,0.023351827318238847,-0.017954285546140966,0.48234837305302325
2025-11-24T18:00:05.009615,0.06143496763347047,0.10219736254997792,9.91834703322646,0.014798441063313985,-0.015354917475053208,0.5172064328361231
2025-11-24T18:00:05.019231,0.05987912625603179,0.11328877455266242,9.987444985049667,0.006574845709418862,-0.011433782406885317,0.5521613014661458
2025-11-24T18:00:05.028846,0.061748781943525656,0.12584281417109328,10.053897825708175,-0.0006623835419058971,-0.006345294904531566,0.5869230010322841
2025-11-24T18:00:05.038462,0.06691913331247301,0.1390533125059914,10.117708769671024,-0.006371419420977082,-0.0003324531532905151,0.6212213709683636
2025-11-24T18:00:05.048077,0.07505681903471746,0.15201872170376218,10.179066292559595,-0.010164628108118592,0.0062955313018337004,0.6548212133295129
2025-11-24T18:00:05.057692,0.08564322359532053,0.1638274417999057,10.238354737353403,-0.011829218802938244,0.013196158078053563,0.6875264517107873
2025-11-24T18:00:05.067308,0.09800803135592658,0.1736507677358973,10.296148057765292,-0.011327669872636136,0.020029298925785737,0.7191732625755634
2025-11-24T18:00:05.076923,0.11137388164358397,0.1808307166547632,10.353184954810393,-0.008779593583512007,0.026487809482151858,0.7496151541160816
2025-11-24T18:00:05.086538,0.12490983892264239,0.1849480439278167,10.410323462271611,-0.0044303788856934045,0.03231772918986312,0.7787047899887853
2025-11-24T18:00:05.096154,0.13778877686889915,0.18585788533442874,10.468473474404624,0.001385035103447,0.037326425418481614,0.8062780815896923
2025-11-24T18:00:05.105769,0.14924337719958233,0.18368781328618225,10.528509262294776,0.008274480644895553,0.04138068809031323,0.832146012717234
2025-11-24T18:00:05.115385,0.1586164631602432,0.17880290909165536,10.591170202142388,0.015811551929277766,0.044399061010264154,0.8560984741183914
2025-11-24T18:00:05.125000,0.16540236140984427,0.1717495253360732,10.656964140520504,0.02354962092933364,0.046342906966847064,0.8779215252318464
2025-11-24T18:00:05.134615,0.1692767893862504,0.16319040339393812,10.7260909646209,0.03103213303816803,0.04720914398539084,0.8974255483747969
2025-11-24T18:00:05.144231,0.17011384626261306,0.15383952932194833,10.798401429883091,0.03780589540252019,0.04702539940485738,0.914478533072391
2025-11-24T18:00:05.153846,0.1679895618819046,0.14439943075317624,10.873397897062885,0.043441822176315925,0.04584681337891987,0.9290374780725149
2025-11-24T18:00:05.163462,0.16317158732754075,0.1355008334795431,10.950273152006574,0.04756317823239101,0.0437534129435419,0.9411711882271331
2025-11-24T18:00:05.173077,0.15609477542272007,0.12764652203139795,11.02797685828585,0.04987716291878899,0.04084726852223604,0.9510686665778844
2025-11-24T18:00:05.182692,0.14732382481036815,0.12116575351776193,11.105299140615374,0.05020367010739879,0.037248768470166255,0.9590290074357435
2025-11-24T18:00:05.192308,0.13750660375007862,0.11618836963131368,11.180963757366571,0.048495563271302666,0.03309145108193656,0.9654319189862681
2025-11-24T18:00:05.201923,0.12732310436247674,0.11264592025167547,11.253723868022535,0.044846702505101255,0.02851548786045314,0.9706924832377835
2025-11-24T18:00:05.211538,0.1174335516926184,0.11030103724514011,11.322451120336515,0.039486089956645154,0.02366093991335053,0.9752079439759528
2025-11-24T18:00:05.221154,0.10842680504258427,0.10879913141860614,11.386207895599174,0.03275843458465732,0.018662517878369405,0.9793065973734012
2025-11-24T18:00:05.230769,0.10077071381549574,0.10773201992965606,11.444295587618933,0.025093129186137476,0.013647291959002333,0.983208483194024
2025-11-24T18:00:05.240385,0.09477028808862456,0.10670291938686574,11.496276877754497,0.016965048637664196,0.008735649347146128,0.9870045653809454
2025-11-24T18:00:05.250000,0.09054335562452151,0.10538454214749171,11.541973961154465,0.00885186411118039,0.004044188777544969,0.9906564119285513
2025-11-24T18:00:05.259615,0.08802214198030633,0.103563870317392,11.581446512219543,0.0011936656600329977,-0.00031192639942112895,0.9940139669485929
2025-11-24T18:00:05.269231,0.0869822770952706,0.1011677861953983,11.61495395215891,-0.0056392731688904236,-0.004219579299574331,0.9968464141643628
2025-11-24T18:00:05.278846,0.08709186047319654,0.09826487139681322,11.642907410855896,-0.01136664339287692,-0.0075725676434476,0.998880225635654
2025-11-24T18:00:05.288462,0.08796750300457737,0.095042339551635,11.665817312428112,-0.015805576266482293,-0.010280517022951753,0.9998383128707281
2025-11-24T18:00:05.298077,0.08922472780490406,0.09176316891333523,11.684242073384462,-0.018867944873964176,-0.012280206879272887,0.9994745209157693
2025-11-24T18:00:05.307692,0.0905160938662707,0.08871407241955384,11.698742411248917,-0.020551068421964407,-0.013546606074224851,0.9975988744902407
2025-11-24T18:00:05.317308,0.09155785388989905,0.08615607029744381,11.709844869613999,-0.0209243646793004,-0.014100565477817606,0.9940910645493868
2025-11-24T18:00:05.326923,0.09214977649755138,0.08428544888130839,11.718017119554247,-0.020113094939845682,-0.014010802646159264,0.9889022718065894
2025-11-24T18:00:05.336538,0.0921908772504774,0.08320747211268734,11.723655962560086,-0.018280051338573293,-0.013389353287212165,0.9820477503623941
2025-11-24T18:00:05.346154,0.0916890375064996,0.082922095370266,11.727086971586328,-0.015606561025116927,-0.012381280886032995,0.9735937181823741
2025-11-24T18:00:05.355769,0.09075947406534071,0.0833202698026592,11.728573248709841,-0.012274804962311403,-0.01115033640768001,0.9636417966784061
2025-11-24T18:00:05.365385,0.08960809579,0.08418938243101583,11.728330753567093,-0.008454066172815942,-0.009862286541698208,0.9523131651701718
2025-11-24T18:00:05.375000,0.08850014270710764,0.08522632601355729,11.726548641370377,-0.004293643604988417,-0.00866740260049929,0.9397335903356777
2025-11-24T18:00:05.384615,0.08771932509721905,0.08605732652021769,11.723413156411873,7.619749933825994e-05,-0.00768387556426294,0.9260200015799251
2025-11-24T18:00:05.394231,0.0875249735543103,0.0862649159147853,11.719131774099667,0.004536681233107589,-0.006984553094838698,0.9112692673616742
2025-11-24T18:00:05.403846,0.08811390270997448,0.0854230675076483,11.713951723394134,0.00897047872632819,-0.00658942338135328,0.8955500230603286
2025-11-24T18:00:05.413462,0.08959184803924448,0.08314086867673957,11.708166089944148,0.013253910587102943,-0.006465185537769374,0.8788986394063667
2025-11-24T18:00:05.423077,0.09195780791566364,0.0791137042772755,11.702102660448881,0.017254450358657886,-0.006531573336426678,0.8613204408441353
2025-11-24T18:00:05.432692,0.09510239711136126,0.07317868270108946,11.696094642693227,0.0208340583026552,-0.006672760377813878,0.8427965685096066
2025-11-24T18:00:05.442308,0.09881789683374308,0.06536730524694212,11.690436371023624,0.023857058259580673,-0.006751631729353204,0.8232954073717912
2025-11-24T18:00:05.451923,0.10281528593631238,0.05594438903864369,11.68533009463641,0.02620031098827058,-0.006624729883082775,0.8027862390172391
2025-11-24T18:00:05.461538,0.10674460151556327,0.04542109353719848,11.680832287322769,0.02776292236373919,-0.006155907154888988,0.7812526570421917
2025-11-24T18:00:05.471154,0.11021867981804326,0.0345333238318645,11.676809532305986,0.02847302486687208,-0.005227237523146624,0.7587039159699823
2025-11-24T18:00:05.480769,0.1128430730388081,0.024183579702520316,11.67291397291508,0.02829093077796947,-0.003746806712209563,0.7351826851535139
2025-11-24T18:00:05.490385,0.11425415570727836,0.01535184887886451,11.66858610701387,0.027210442286910105,-0.00165420716002057,0.7107675407876931
2025-11-24T18:00:05.500000,0.11416373681970973,0.008987239064137122,11.66308866658389,0.025261160221850553,0.0010750499729674885,0.6855690257515911
2025-11-24T18:00:05.509615,0.1124042438281408,0.005895584351806112,11.655569777977634,0.02251309888145124,0.004425814592907969,0.6597196314311276
2025-11-24T18:00:05.519231,0.10896597094836893,0.006639043692092347,11.645147193555582,0.01908220920890047,0.008341126392130985,0.6333595044336119
2025-11-24T18:00:05.528846,0.10401830634522242,0.011461899156511196,11.631000050253698,0.01513378393667145,0.012723016571652274,0.6066200352302588
2025-11-24T18:00:05.538462,0.09790992392847149,0.020252406895807425,11.612452714200447,0.010880959906781385,0.017437187126619687,0.5796070057759274
2025-11-24T18:00:05.548077,0.09114692872064659,0.03254445311822533,11.589037625706933,0.00657702638314362,0.022321261120863578,0.5523846060011478
2025-11-24T18:00:05.557692,0.08435148209266041,0.04755721971954552,11.560529336803235,0.0025019377953755103,0.027195136882187144,0.5249620548325672
2025-11-24T18:00:05.567308,0.07820582601059241,0.06426790831100256,11.52694787697239,-0.0010556491085476015,0.03187151972092638,0.49728556977018024
2025-11-24T18:00:05.576923,0.07338729164755453,0.08151098763593892,11.488534533166067,-0.0038194571239531295,0.03616515010622279,0.4692387655423507
2025-11-24T18:00:05.586538,0.07049927837071357,0.0980952275600756,11.445706771121133,-0.005548263697519683,0.03990029765944975,0.4406530272052528
2025-11-24T18:00:05.596154,0.07000340198926382,0.11292632407963146,11.399001776920313,-0.006057700689753824,0.042917192439248485,0.411326528252048
2025-11-24T18:00:05.605769,0.07216014940397884,0.12511979290647102,11.349019500495004,-0.005238073575560185,0.045078669446082756,0.3810483173337062
2025-11-24T18:00:05.615385,0.07698739743332282,0.13408816346370148,11.29637451664362,-0.0030660062807541153,0.04627811500571501,0.34962333904859133
2025-11-24T18:00:05.625000,0.08424522940114203,0.13958945142372076,11.241661074881346,0.0003906463166836288,0.04644889480927043,0.3168946999358147
2025-11-24T18:00:05.634615,0.09345148156336382,0.14173014099000897,11.185429805290623,0.004974590434138972,0.04557406132813683,0.2827602225320692
2025-11-24T18:00:05.644231,0.10392734557566581,0.14092413404571696,11.128170946685811,0.010448130051482688,0.04369370546060113,0.2471815792122649
2025-11-24T18:00:05.653846,0.11486762054870706,0.13781719262530667,11.070299147607386,0.0165102984367591,0.04090664699101883,0.2101861947268023
2025-11-24T18:00:05.663462,0.12542641731504156,0.13319160682841216,11.012138150008292,0.022821996005822735,0.03736405257149505,0.17186394350788803
2025-11-24T18:00:05.673077,0.1348067286806248,0.1278663990641468,10.953907698211179,0.02903703295885026,0.0332549603345856,0.1323614957505449
2025-11-24T18:00:05.682692,0.14234166869048398,0.12260551085304833,10.895717007798929,0.034834937667173695,0.02878648407982144,0.0918765689050745
2025-11-24T18:00:05.692308,0.1475565242802308,0.1180428079123835,10.837567899534628,0.039950535156938055,0.02416322108209485,0.05065274500667318
2025-11-24T18:00:05.701923,0.15020406717371038,0.11462935580123872,10.779367867055024,0.04419595240255381,0.01957017700241836,0.00897393306339105
2025-11-24T18:00:05.711538,0.15027042598425608,0.11260528273079948,10.720951357270362,0.04747219909143873,0.015161609515432528,-0.03284323013397514
2025-11-24T18:00:05.721154,0.1479540838722808,0.11199654485297865,10.66210687446347,0.04976915183201211,0.011055875599342891,-0.074460780001404
2025-11-24T18:00:05.730769,0.14362474686849627,0.11263573176723657,10.602606849511886,0.051154514194244674,0.007334975742907262,-0.1155361383701351
2025-11-24T18:00:05.740385,0.13777091236808384,0.11420359909355554,10.542235974450824,0.051753995038616656,0.0040474131141841636,-0.15574516937301236
2025-11-24T18:00:05.750000,0.1309446176457049,0.11628421915595756,10.480812964743885,0.0517261217916539,0.0012135932874237343,-0.19481103361714794
2025-11-24T18:00:05.759615,0.12370910142517777,0.11842439400341435,10.418201629953684,0.05123560485875167,-0.0011666274756152915,-0.23253525440339107
2025-11-24T18:00:05.769231,0.1165911462199441,0.12018897619035364,10.354309771158322,0.05042915519776833,-0.003104850783649561,-0.2688243637571097
2025-11-24T18:00:05.778846,0.11003743701834215,0.12120644423044348,10.2890779576483,0.049417126843136476,-0.004614567450830293,-0.3037047853974326
2025-11-24T18:00:05.788462,0.10437539211631029,0.12120156705019006,10.222463239828286,0.048263200482524936,-0.005702414402022881,-0.3373210616179843
2025-11-24T18:00:05.798077,0.09978236200868022,0.12001419898110183,10.154423813178548,0.04698270603249377,-0.006361628284362313,-0.36991683008736037
2025-11-24T18:00:05.807692,0.09626952198511173,0.11760538451896012,10.084909308067012,0.04554842990076353,-0.006569170380053039,-0.40180203674635573
2025-11-24T18:00:05.817308,0.09368597254467405,0.11405313137565973,10.013859203213185,0.04390128353458855,-0.006287761696374637,-0.4333123112815061
2025-11-24T18:00:05.826923,0.09174465023993228,0.10953985823419687,9.941210170859193,0.041962591397748654,-0.00547300669890046,-0.46476680000736376
2025-11-24T18:00:05.836538,0.09006648423320696,0.10433255610909647,9.866911614697711,0.03964527119428998,-0.004084204317404534,-0.4964294378952681
2025-11-24T18:00:05.846154,0.08823546028501959,0.09875638521284447,9.790946697060491,0.03686255386725298,-0.002096232959721395,-0.5284767859577296
2025-11-24T18:00:05.855769,0.0858566686281664,0.09316306353954919,9.713354818040182,0.03353465799013689,0.0004903261746437798,-0.5609742694471489
2025-11-24T18:00:05.865385,0.0826111118224812,0.08789661676850548,9.634252064423382,0.029595314736771995,0.0036429307616596654,-0.5938619062201038
2025-11-24T18:00:05.875000,0.07830248819613783,0.0832604569555986,9.553847644115102,0.025000319235176427,0.007295565337206573,-0.6269498840118085
2025-11-24T18:00:05.884615,0.07289139061167371,0.07949059060152328,9.47245454609003,0.019739099715084186,0.011351610719776759,-0.6599238765405755
2025-11-24T18:00:05.894231,0.06651273962664908,0.07673889312286433,9.390491264893367,0.013848395332950906,0.015689814952648613,-0.6923601676036106
2025-11-24T18:00:05.903846,0.05947402341644267,0.07506769143570569,9.308470512668878,0.007425374806215764,0.020171849644748798,-0.7237508472119448
2025-11-24T18:00:05.913462,0.05223430691046503,0.07445396259937034,9.226972356998285,0.0006364535373524289,0.024650406652441476,-0.7535387230153432
2025-11-24T18:00:05.923077,0.045365442876477445,0.07479998577099867,9.146602831222074,-0.006281811409091397,0.028977417068236897,-0.781160456015468
2025-11-24T18:00:05.932692,0.03949742818984687,0.07594729135996457,9.067942843556827,-0.013031866390957833,0.03301223792320407,-0.8060954827373881
2025-11-24T18:00:05.942308,0.03525109075087492,0.0776913242740329,8.99149467161826,-0.019274260121871348,0.03662963110240401,-0.8279172302705984
2025-11-24T18:00:05.951923,0.03316428648764799,0.07979542106064912,8.91763415768247,-0.02465483095125097,0.039727336101937884,-0.8463414944171144
2025-11-24T18:00:05.961538,0.033621233932109175,0.08200502403942651,8.846576125265413,-0.02883724812140814,0.04223299551842163,-0.8612654441229871
2025-11-24T18:00:05.971154,0.03679614759808304,0.0840654431429288,8.778358913976437,-0.03153770128993554,0.04410990017968657,-0.8727907120465976
2025-11-24T18:00:05.980769,0.04262077980030843,0.08574649782992674,8.712851776202164,-0.03255774716336241,0.04536049015301309,-0.8812255511849617
2025-11-24T18:00:05.990385,0.05078157497051535,0.0868739804649275,8.64978601943946,-0.03181032309804854,0.04602627636222373,-0.8870638002102488
2025-11-24T18:00:06,0.06074727561464559,0.08736274282019824,8.58880653816963,-0.029333854564327137,0.046183252722320156,-0.890942350141936
2025-11-24T18:00:06.009615,0.07182265918834968,0.08724230103780488,8.529535581411446,-0.025291410493975673,0.04593271088835273,-0.8935830363556814
2025-11-24T18:00:06.019231,0.08321896322041016,0.08666563552962263,8.471637875140777,-0.019955762537792143,0.04538828632521312,-0.8957274580367584
2025-11-24T18:00:06.028846,0.09412808362820424,0.08589604825840069,8.414877125697188,-0.013684914108614502,0.04466101480582437,-0.8980730516779138
2025-11-24T18:00:06.038462,0.10378836776461084,0.0852737299689864,8.359157131082409,-0.006893805450085699,0.04384486564560881,-0.9012165936240882
2025-11-24T18:00:06.048077,0.11153521345569971,0.08516949115635122,8.304543745071676,-2.5927221012255143e-05,0.043005073590649576,-0.9056087779225055
2025-11-24T18:00:06.057692,0.11683669217773086,0.08593509579263249,8.251265878182883,0.006474663283954607,0.042170745330386,-0.9115217332115756
2025-11-24T18:00:06.067308,0.11931913630053258,0.0878578037123672,8.199695727827784,0.012192285785920924,0.04133256203177225,-0.9190304944265852
2025-11-24T18:00:06.076923,0.11878789778544846,0.09112339401680922,8.150311493859853,0.01677006634636231,0.040446378451550996,-0.9280089695986113
2025-11-24T18:00:06.086538,0.11524452269778616,0.09578958993605884,8.103648827487644,0.019939714099021507,0.039443429773759545,-0.9381402125498529
2025-11-24T18:00:06.096154,0.10889624881109099,0.10177153018455065,8.06024829677664,0.0215461642948185,0.03824667657561576,-0.9489398111832221
2025-11-24T18:00:06.105769,0.10015098217772812,0.10884195029126116,8.020605090900732,0.02156223272298199,0.03679056328798238,-0.9597904720935002
2025-11-24T18:00:06.115385,0.08959246606590654,0.11664869943542971,7.985125169355661,0.02009006471648086,0.03503947841114991,-0.9699857575379807
2025-11-24T18:00:06.125000,0.07793482685152646,0.12474938530175848,7.954089921169336,0.017348809813392214,0.0329999627083098,-0.9787810241018683
2025-11-24T18:00:06.134615,0.06596083293860927,0.13265870956994688,7.927630123441201,0.013650732739277083,0.03072348597657081,-0.9854492943165375
2025-11-24T18:00:06.144231,0.05445255259471376,0.13990162715809748,7.905710423911869,0.009370202738418557,0.02829941727543311,-0.9893387977512492
2025-11-24T18:00:06.153846,0.04412551388145773,0.14606587826254688,7.888126474309202,0.004910790869918274,0.02584038665488499,-0.9899273863975024
2025-11-24T18:00:06.163462,0.0355767741483959,0.1508487008479869,7.874516200367971,0.0006746055116698559,0.023463844420794612,-0.9868675773974577
2025-11-24T18:00:06.173077,0.029253144247491137,0.15409252560197692,7.864384947888424,-0.0029641750943564123,0.021274217054324,-0.9800157161278842
2025-11-24T18:00:06.182692,0.025439780923537672,0.15580357559881305,7.8571431565841205,-0.005681422110543835,0.019349836674400784,-0.9694404642636014
2025-11-24T18:00:06.192308,0.024264309300552525,0.15614774248626653,7.852154779376832,-0.007221246052794712,0.01773760227744761,-0.9554090208164178
2025-11-24T18:00:06.201923,0.025709367227909605,0.15542119542831076,7.848793586025763,-0.007410144465301646,0.01645589429062215,-0.9383528889945436
2025-11-24T18:00:06.211538,0.029626972066837752,0.15399810201024722,7.846502324894278,-0.00616630039315659,0.015503411148360681,-0.9188178180571795
2025-11-24T18:00:06.221154,0.03575092008232628,0.1522629249970445,7.844847295481167,-0.003503253887382614,0.014869820008261989,-0.8974047753415402
2025-11-24T18:00:06.230769,0.04370769692850805,0.15053878744939297,7.843559702437327,0.00047224784240340476,0.014544070136850442,-0.8747102992867535
2025-11-24T18:00:06.240385,0.053029965556486314,0.14902555109341517,7.842556578365603,0.0055680964841917785,0.014517443168458677,-0.8512746544841475
2025-11-24T18:00:06.250000,0.06317740025009276,0.14776042984176305,7.841938203263741,0.011520253590050305,0.014780255974786672,-0.8275444024249035
2025-11-24T18:00:06.259615,0.07356726435098553,0.14660926132435737,7.841964405303963,0.018011336017955012,0.015313132839975707,-0.8038527626090524
2025-11-24T18:00:06.269231,0.08361339290608699,0.14528909553782196,7.843016882725747,0.024693173251864806,0.016075478949306193,-0.7804174698190011
2025-11-24T18:00:06.278846,0.09276919436684145,0.14341585561914902,7.845556787120655,0.031211511835349058,0.01699483089461371,-0.7573527527055904
2025-11-24T18:00:06.288462,0.10056902623269745,0.14056713795403317,7.850084868988621,0.037230609193451225,0.017961000500201718,-0.7346902609620972
2025-11-24T18:00:06.298077,0.10666256407483299,0.13634966928845316,7.857106304790251,0.04245500367699111,0.01882843947543182,-0.7124032869878238
2025-11-24T18:00:06.307692,0.11083772425309436,0.13046213246395943,7.8670975240143015,0.04664577224641884,0.01942900572587246,-0.6904290143854803
2025-11-24T18:00:06.317308,0.11302888125561475,0.12274598891935624,7.880471534402005,0.049629888093464504,0.019595092259968104,-0.6686844725003883
2025-11-24T18:00:06.326923,0.11330883321618314,0.11321885628049215,7.89754159833012,0.051303423891655764,0.019189993148690916,-0.6470733073467347
2025-11-24T18:00:06.336538,0.11186584227661994,0.10208671857136342,7.918487722103183,0.05163080271271408,0.0181393344573705,-0.6254823524123739
2025-11-24T18:00:06.346154,0.1089707406611731,0.08973336474518596,7.943333080428812,0.050642219234885474,0.016455818122736176,-0.6037694161544629
2025-11-24T18:00:06.355769,0.10494142879139941,0.0766884285619183,7.971936785446724,0.04843023091800127,0.014250515994438889,-0.5817466598751256
2025-11-24T18:00:06.365385,0.10011123365695304,0.06357866381908914,8.00400613570994,0.045145385717326306,0.011727356540842256,-0.5591664984491092
2025-11-24T18:00:06.375000,0.09480439003138932,0.05106958701435272,8.039127715253944,0.04099009642737305,0.009161600790446681,-0.5357176659149427
2025-11-24T18:00:06.384615,0.08931892189462348,0.03980560598451651,8.076813957101775,0.036209525656344554,0.006866054638208498,-0.5110372211705939
2025-11-24T18:00:06.394231,0.08391582685273928,0.030355996656734417,8.116560291461536,0.031078011811316322,0.005150037342981486,-0.48474026758224886
2025-11-24T18:00:06.403846,0.07881328658890693,0.023171928334704453,8.157907459982424,0.02588032827514856,0.0042767866613838456,-0.45646420443634633
2025-11-24T18:00:06.413462,0.07418490815399092,0.018556907168881462,8.200503247599089,0.020889060731667734,0.004425793557641438,-0.425919962666209
2025-11-24T18:00:06.423077,0.07016128888072354,0.016650284565120993,8.24415667023624,0.01634136676395632,0.005666716810908377,-0.3929403358438878
2025-11-24T18:00:06.432692,0.0668339335396523,0.01742156560779748,8.288875766315627,0.012418969436398926,0.007949717785142429,-0.3575158770311112
2025-11-24T18:00:06.442308,0.06425973227054911,0.020672969730818253,8.334879800951457,0.009234430955539032,0.011113415006604352,-0.3198116547147418
2025-11-24T18:00:06.451923,0.06246410651153928,0.026049634597744578,8.382579571388217,0.006825517138486927,0.014907872406111767,-0.28016242232125826
2025-11-24T18:00:06.461538,0.06144246198703591,0.03306008901642911,8.432524507893406,0.005158476184643774,0.019027524613316322,-0.23904785588692545
2025-11-24T18:00:06.471154,0.06116143941776618,0.041111309081815865,8.485320364048986,0.0041402201696568415,0.023147844632886633,-0.19705217465700584
2025-11-24T18:00:06.480769,0.061561718432558636,0.04956015962606514,8.54152601183137,0.0036382527190956847,0.026959576907183442,-0.1548134581162177
2025-11-24T18:00:06.490385,0.0625628718166129,0.057776606006189196,8.60154254947531,0.0035056490887394143,0.030195575781594076,-0.11296777337848805
2025-11-24T18:00:06.500000,0.06406926403484765,0.06520749569960292,8.665511943071953,0.0036071974885840633,0.03264763038027693,-0.07209275856327851
2025-11-24T18:00:06.509615,0.06597506999103013,0.07142757582888734,8.73324415820204,0.003842920942530748,0.03417320025200477,-0.03265578319030594
2025-11-24T18:00:06.519231,0.06816686639245377,0.07616839323978307,8.804189671092395,0.004166422505257167,0.034693690853396186,0.005026794825822673
2025-11-24T18:00:06.528846,0.07052439771638634,0.07932301625493955,8.877467651452971,0.004596272996968328,0.03418684572216671,0.04081242818402797
2025-11-24T18:00:06.538462,0.07292284544380284,0.08093067699661642,8.951949731735562,0.005218141897982475,0.03267675124528932,0.07473299886987796
2025-11-24T18:00:06.548077,0.07524056538658398,0.08114828026894927,9.026387739969023,0.006174929285621104,0.030225644038004196,0.10697405107073726
2025-11-24T18:00:06.557692,0.07737326559237176,0.08021592610390778,9.09956469658416,0.007643632102909692,0.026931083386714388,0.13783835113896845
2025-11-24T18:00:06.567308,0.0792505938575987,0.07842255216918906,9.170444280380003,0.009800887759316326,0.022929533992723683,0.16770190462388718
2025-11-24T18:00:06.576923,0.08084766694851118,0.07607624119135878,9.238295053673468,0.012782319349966096,0.01840370740720074,0.1969699788383493
2025-11-24T18:00:06.586538,0.082184589427473,0.0734817324496077,9.302771074274162,0.01664282707399767,0.013587882500097074,0.22603833471880883
2025-11-24T18:00:06.596154,0.0833112964697066,0.07092513559669565,9.363939255964315,0.021325795613158716,0.00876472404283723,0.2552621614540063
2025-11-24T18:00:06.605769,0.08428132934999497,0.06866328198908189,9.422254183229168,0.02664866262262014,0.004249493210713763,0.2849329470302182
2025-11-24T18:00:06.615385,0.08512367180551919,0.06691395654379027,9.478489866890477,0.03230981504511082,0.0003618980290694514,0.31526242105176594
2025-11-24T18:00:06.625000,0.08582320872614098,0.06584434720893603,9.533642733327984,0.037917285444592976,-0.002609980521380661,0.3463730940998039
2025-11-24T18:00:06.634615,0.08631621015892563,0.06555775681586072,9.588820911249975,0.04303434395722771,-0.004447004552041199,0.37829585855048503
2025-11-24T18:00:06.644231,0.08650032002545927,0.06608170545195832,9.645132957378383,0.04723279296581723,-0.0050307398969414345,0.41097528246699894
2025-11-24T18:00:06.653846,0.08625393794478746,0.06736291729820439,9.70358612300981,0.05014345701455588,-0.004363947175415553,0.4442824501315507
2025-11-24T18:00:06.663462,0.08545980834442085,0.06927466957405605,9.765001471772171,0.05149558391866295,-0.0025758913065098595,0.47803401811093904
2025-11-24T18:00:06.673077,0.0840297533597924,0.07163827098483301,9.829951022859849,0.05114116243638856,8.875710437060475e-05,0.5120147822962193
2025-11-24T18:00:06.682692,0.08192854168530363,0.07425435742369958,9.89871996709859,0.049064062559603,0.003295438859908634,0.545999858719712
2025-11-24T18:00:06.692308,0.07919406919275489,0.07693484503038575,9.97129447633357,0.045375911735010266,0.006655108396843821,0.579772316124646
2025-11-24T18:00:06.701923,0.07594965838217106,0.07952576663704125,10.047373268945067,0.04030084204357228,0.009764209043727868,0.6131330542098887
2025-11-24T18:00:06.711538,0.07240388277183123,0.081915335580152,10.126399512146259,0.03415071689635401,0.012244877468376731,0.6459017054383184
2025-11-24T18:00:06.721154,0.068834989511615,0.08402832910120162,10.207608715385867,0.027292410365772467,0.013782551770600181,0.6779101007323746
2025-11-24T18:00:06.730769,0.0655610219307788,0.08581338069354037,10.290087807927156,0.020109994270386105,0.014158803975650303,0.7089925255832153
2025-11-24T18:00:06.740385,0.06290132416442572,0.08723068000411556,10.372840911906527,0.012966871285384117,0.01327669006023436,0.7389779913824169
2025-11-24T18:00:06.750000,0.06113714619148715,0.08824417947762582,10.454858505197988,0.0061741923517066345,0.011175425152324312,0.7676882586107968
2025-11-24T18:00:06.759615,0.06047754018647486,0.08881844560766348,10.535187508675836,-2.934774615743212e-05,0.008032091783208803,0.7949425858323879
2025-11-24T18:00:06.769231,0.061033618117118334,0.0889189429111111,10.612998487476268,-0.0054847748513051,0.004150182488177632,0.8205680431068962
2025-11-24T18:00:06.778846,0.06280204043300525,0.08851550918294282,10.687642815527742,-0.010109270307031645,-6.340857512813515e-05,0.8444132628076215
2025-11-24T18:00:06.788462,0.06565846252887766,0.08758946165766915,10.75869059353577,-0.013885562693952662,-0.004130851747750941,0.8663630077895683
2025-11-24T18:00:06.798077,0.0693629062302491,0.08614337673259755,10.825942388542911,-0.01684744162182536,-0.007543650725964114,0.8863506483706992
2025-11-24T18:00:06.807692,0.07357980489112483,0.08421020845889632,10.889413588956334,-0.019063157339418126,-0.00980903372880205,0.904366171336873
2025-11-24T18:00:06.817308,0.07791450215394749,0.08185762907874705,10.949295700821546,-0.02061796268455655,-0.010499438218228194,0.9204588850109647
2025-11-24T18:00:06.826923,0.08196528161250895,0.07918487505321509,11.005902073377813,-0.02159774164002937,-0.009299972505371505,0.934735489692431
2025-11-24T18:00:06.836538,0.08538591570799293,0.07631132339268519,11.059606831238124,-0.022076442576042847,-0.006047342767780023,0.947354530075589
2025-11-24T18:00:06.846154,0.08794874280102104,0.07335777075765665,11.110785983201446,-0.022109660473034632,-0.0007540890251915496,0.9585175765963232
2025-11-24T18:00:06.855769,0.08959419033400325,0.07042363711057704,11.159768541351864,-0.021735081953492618,0.006385863286440786,0.9684567244725656
2025-11-24T18:00:06.865385,0.09045223711953922,0.06756572628277152,11.206802964475752,-0.020978588260484418,0.015011115164744964,0.9774177753503006
2025-11-24T18:00:06.875000,0.09082617931754187,0.0647852799664344,11.25204104997568,-0.019863518927196257,0.02462372289143619,0.9856391144200696
2025-11-24T18:00:06.884615,0.09113856239464684,0.06202915415938641,11.295538211196822,-0.018420049130231854,0.0346323845482657,0.9933279598340382
2025-11-24T18:00:06.894231,0.09185044414931039,0.05920802555172232,11.3372664079786,-0.016691703851846137,0.04440225895157779,1.000637577896996
2025-11-24T18:00:06.903846,0.09337341040211687,0.056229840461020024,11.377134565885791,-0.01473709520545867,0.053306278007172456,1.0076496752795212
2025-11-24T18:00:06.913462,0.09599441369520072,0.05304176441938624,11.415011377636537,-0.012627145864592945,0.060773994650010855,1.0143647184331217
2025-11-24T18:00:06.923077,0.09982670159898004,0.04967107434666303,11.450746388189879,-0.010440106184538129,0.0663350237936907,1.020700354254164
2025-11-24T18:00:06.932692,0.10479111231557627,0.046255692748999246,11.484186844861311,-0.008256970511216136,0.06965433425026188,1.0264963027317928
2025-11-24T18:00:06.942308,0.1106259916487712,0.043057157985547954,11.515189926462847,-0.006158513966043866,0.07055618373379606,1.0315242751071643
2025-11-24T18:00:06.951923,0.11692171140135506,0.04045124398873911,11.543632151320965,-0.00422365438169664,0.06903358319972117,1.035503053596958
2025-11-24T18:00:06.961538,0.1231748253053494,0.03889430532503609,11.569418903929272,-0.00252814741124175,0.06524203295337201,1.038119801338886
2025-11-24T18:00:06.971154,0.12885526616394877,0.038867930586905935,11.592496159931162,-0.001142450074078715,0.05947941517332808,1.0390575798083306
2025-11-24T18:00:06.980769,0.13347763471659402,0.04081023750862662,11.612863830929555,-0.00012753105255617595,0.05215644586398291,1.0380268913633515
2025-11-24T18:00:06.990385,0.1366658300522761,0.04504611315596172,11.63058741694686,0.0004724271189004857,0.043762665507048853,1.0347976769297231
2025-11-24T18:00:07,0.13820050682795465,0.0517283284854537,11.645803803377639,0.0006407770359003384,0.0348318846845224,1.0292277908108096
2025-11-24T18:00:07.009615,0.13804169220860052,0.06079785341560273,11.65871852526917,0.0004015196852965516,0.025909317055123043,1.0212835121164656
2025-11-24T18:00:07.019231,0.13632344028924057,0.0719681506811656,11.669594420637699,-0.00016820060619890693,0.017521045457956023,1.0110472901872476
2025-11-24T18:00:07.028846,0.13332218413281374,0.08473614642057223,11.678733661605662,-0.0009307770470133891,0.010145461070785957,0.9987092941710654
2025-11-24T18:00:07.038462,0.12940463108175007,0.09842043577361832,11.686455796907701,-0.0016907288710357477,0.00418630835080505,0.984543153533356
2025-11-24T18:00:07.048077,0.12496435335816866,0.11222340361925964,11.693073843298027,-0.0022101033784858626,-5.210935384995873e-05,0.9688707766804059
2025-11-24T18:00:07.057692,0.12035844909785445,0.12530930042722616,11.698869537450644,-0.002236424033629389,-0.0023857297302315333,0.9520235986457397
2025-11-24T18:00:07.067308,0.11585618042957546,0.13688775038626652,11.704068484596483,-0.0015396300987947063,-0.0027646196643622972,0.9343070587351726
2025-11-24T18:00:07.076923,0.11160909756318371,0.146292851894835,11.70881633186422,4.8334431154572157e-05,-0.0012767539861409047,0.9159728836095062
2025-11-24T18:00:07.086538,0.10764648526221701,0.15304992812430332,11.713158043042592,0.002599388108931052,0.0018602430501319933,0.8972014815878084
2025-11-24T18:00:07.096154,0.10389331205629518,0.1569226349783189,11.717023534536505,0.006068371162794414,0.0063186215557582874,0.8780948586642084
2025-11-24T18:00:07.105769,0.10020360030409518,0.15793308910106035,11.720223432577814,0.010290178671393162,0.011687949857809753,0.8586789190469755
2025-11-24T18:00:07.115385,0.09640137022648537,0.15634999201949545,11.722457459438967,0.014995787122288601,0.017506328466581775,0.8389131016036997
2025-11-24T18:00:07.125000,0.09232236439549953,0.1526459656404011,11.723335396702625,0.019844200724984797,0.0232922965962941,0.8187049723593306
2025-11-24T18:00:07.134615,0.087850792439287,0.14743317406239098,11.722408255262462,0.02446450928051163,0.028576008485980638,0.7979271609073739
2025-11-24T18:00:07.144231,0.08294622964660095,0.1413915771557048,11.719205667896423,0.028500936215066452,0.03292912029945215,0.7764339789011752
2025-11-24T18:00:07.153846,0.0776573674797679,0.13520397868028253,11.713274327640978,0.031654411376453466,0.035992445405632276,0.7540757467800046
2025-11-24T18:00:07.163462,0.07212173302037245,0.129506422393019,11.704212306598079,0.03371615876410929,0.037499520121651954,0.7307102051884676
2025-11-24T18:00:07.173077,0.06655302976536993,0.1248546714273926,11.691696024301926,0.034590514623291824,0.03729411215037093,0.7062116239236307
2025-11-24T18:00:07.182692,0.06121945813866889,0.1217020577531365,11.675499048654098,0.03430499274956688,0.03534097239081238,0.6804787179629717
2025-11-24T18:00:07.192308,0.05641673152507453,0.12038288340367788,11.655502641437723,0.033006310700100294,0.031730642547331926,0.6534421289514895
2025-11-24T18:00:07.201923,0.05243867539987446,0.12109714624078333,11.631696981345604,0.030942611302564302,0.026679149510755475,0.6250713126769781
2025-11-24T18:00:07.211538,0.04954731189886525,0.12389474053204867,11.604171237945645,0.02843411386745046,0.020521719948637544,0.595379757880187
2025-11-24T18:00:07.221154,0.04794461810204034,0.12866022939429264,11.5730917158624,0.02583589197347213,0.013697907513237878,0.5644271213843058
2025-11-24T18:00:07.230769,0.04774980923743384,0.13510259430285315,11.538670146229839,0.02349705987518106,0.006725548374953973,0.5323171998103501
2025-11-24T18:00:07.240385,0.04898706845726948,0.14275657843058345,11.501127498477352,0.02172075756677678,0.00016310750877102895,0.49919130348090274
2025-11-24T18:00:07.250000,0.05158716368606363,0.15100193892516398,11.46066048783484,0.02072931214851644,-0.0054368585154092024,0.4652172750977155
2025-11-24T18:00:07.259615,0.05540246816261477,0.15910406580025,11.417417091340857,0.02063883244648606,-0.009577833936668388,0.43057506784038035
2025-11-24T18:00:07.269231,0.06023033761720581,0.16627484306439264,11.371484670286605,0.021446998687044284,-0.011866798800704405,0.3954402616452462
2025-11-24T18:00:07.278846,0.06583700041201121,0.17174745155000487,11.322891847085465,0.02303648934487694,-0.012053204399276082,0.3599669384974187
2025-11-24T18:00:07.288462,0.07197497683421232,0.17485486644043272,11.271623962137344,0.025194122313665412,-0.010055041443884577,0.3242713757731186
2025-11-24T18:00:07.298077,0.07839128157976659,0.17510086668791633,11.217650566625577,0.027642871282876673,-0.005969467495454229,0.28841871899829
2025-11-24T18:00:07.307692,0.08482868872888467,0.17221420398015208,11.160961113677208,0.030081539315810875,-6.750318940297598e-05,0.2524158141759202
2025-11-24T18:00:07.317308,0.09102547527249687,0.16617925931989072,11.101602838545197,0.032225910238790366,0.007225858142942861,0.2162132446237405
2025-11-24T18:00:07.326923,0.09671918946492812,0.15723953283481137,11.039714431246527,0.03384560087171808,0.015363412678258921,0.17971740427856608
2025-11-24T18:00:07.336538,0.10165730633982188,0.1458748449155784,10.975550571446703,0.03479196677202617,0.023716175676287678,0.14281015275999231
2025-11-24T18:00:07.346154,0.10561357149762116,0.13275817196855316,10.909493735384649,0.035014004235561384,0.03161994781554881,0.10537141144702837
2025-11-24T18:00:07.355769,0.10840599429520427,0.11869999489062345,10.842049363768904,0.034561221937414496,0.038426584976964676,0.0673002681025597
2025-11-24T18:00:07.365385,0.10991241448133104,0.10458591056230535,10.773820085190929,0.03357434467752968,0.04355844561042235,0.028532047260873564
2025-11-24T18:00:07.375000,0.11008107914925433,0.09131052540650789,10.705457183707278,0.03226575404066333,0.046562467072613745,-0.010949428587905803
2025-11-24T18:00:07.384615,0.1089348128694877,0.0797106223163114,10.63759293310679,0.03089201042224736,0.04715775340368987,-0.05110456078622607
2025-11-24T18:00:07.394231,0.10656824009120792,0.07050266811445165,10.570762686952873,0.029721466265159046,0.045269625397417905,-0.09183602334395755
2025-11-24T18:00:07.403846,0.10313874612717348,0.0642307521336048,10.505328287482344,0.029001026671361924,0.04104445278190731,-0.132992401481383
2025-11-24T18:00:07.413462,0.09885254115029934,0.06122912975790822,10.441414591743781,0.028926879398244593,0.03484226785590791,-0.17437672241268046
2025-11-24T18:00:07.423077,0.09394653529987855,0.061600207053030966,10.378869757178594,0.029623911599107256,0.027207148873014137,-0.21575770943787667
2025-11-24T18:00:07.432692,0.08866590413387503,0.06520710223117478,10.317257653746163,0.031137312194160594,0.018818225946779364,-0.2568808106711687
2025-11-24T18:00:07.442308,0.08323798233888809,0.07168098641491595,10.255887023757818,0.03343729632304156,0.010426413315780179,-0.2974768248213229
2025-11-24T18:00:07.451923,0.07784568550491576,0.08044549461127168,10.193876847388642,0.036434276033229726,0.0027832475346952924,-0.3372678555548182
2025-11-24T18:00:07.461538,0.07260653447403695,0.09076086353082338,10.130251962699578,0.039998714510500064,-0.0034310177582649887,-0.37597226546980816
2025-11-24T18:00:07.471154,0.0675645611614057,0.10178761894862556,10.06405881441344,0.04397924843771998,-0.007672046217474035,-0.41331140706254077
2025-11-24T18:00:07.480769,0.06270039467552702,0.11266434120589165,9.994488321080432,0.048214774541794014,-0.009580458090645927,-0.44902064773023614
2025-11-24T18:00:07.490385,0.05795961329083958,0.12258881572708237,9.920990183891051,0.05253950171419893,-0.009008646864972597,-0.4828654521738439
2025-11-24T18:00:07.500000,0.05329323204141693,0.13088967245747257,9.8433609686784,0.05678267974197344,-0.006022845988807314,-0.5146607268074723
2025-11-24T18:00:07.509615,0.04870010698303843,0.137077835502506,9.761789708166708,0.06076624078500495,-0.0008829219040634257,-0.5442894532120088
2025-11-24T18:00:07.519231,0.04426062546764273,0.140872612185534,9.676851596539244,0.06430401831708223,0.0059940753890640915,-0.5717157519160094
2025-11-24T18:00:07.528846,0.04015371768480775,0.1422033381981254,9.589451337314694,0.06720541219459222,0.014079763966132515,-0.596988374573525
2025-11-24T18:00:07.538462,0.03665328866475932,0.14119148448068386,9.500729096943184,0.06928454901884247,0.022784126563308325,-0.6202331774551838
2025-11-24T18:00:07.548077,0.03410415118887801,0.13811891997758505,9.411949372475725,0.07037412352649078,0.03150521928523116,-0.6416365487639263
2025-11-24T18:00:07.557692,0.03288095912877237,0.13338701941429212,9.324393292235564,0.07034195566410573,0.03967597192473902,-0.6614245384499969
2025-11-24T18:00:07.567308,0.03333665940867874,0.12747086280828102,9.239268381654954,0.06910769513177868,0.04680509411071377,-0.6798431408531508
2025-11-24T18:00:07.576923,0.03574939106040151,0.12087324774786594,9.157640593292143,0.06665677733169759,0.05250894485703176,-0.6971434403084827
2025-11-24T18:00:07.586538,0.04027755325993581,0.11408285762266186,9.080385904944178,0.06304908961988681,0.05653184838501809,-0.7135723450373174
2025-11-24T18:00:07.596154,0.04693087639917235,0.10753863401867383,9.008155463119442,0.05842120206217964,0.05875360554457003,-0.7293673881909317
2025-11-24T18:00:07.605769,0.05556108249495537,0.10159946589808605,8.941349056046027,0.052982600433368686,0.059184343810305164,-0.7447536480351047
2025-11-24T18:00:07.615385,0.06587114032427899,0.09651714673275928,8.88009489056812,0.04700674839030987,0.057948338590634245,-0.7599414886059088
2025-11-24T18:00:07.625000,0.07743925401905839,0.09241247609888328,8.824237128935621,0.04081700252999013,0.0552599318016178,-0.7751240423581803
2025-11-24T18:00:07.634615,0.08975299434711524,0.0892583437077526,8.773335291370406,0.0347668236586888,0.05139553427954306,-0.7904728326748689
2025-11-24T18:00:07.644231,0.10224957116158824,0.086876951234264,8.726681001951784,0.02921426901814829,0.04666546526851569,-0.8061297996251303
2025-11-24T18:00:07.653846,0.1143592489290328,0.08495854530156968,8.68333692175808,0.024492056620423665,0.04138837292852339,-0.8221951107891198
2025-11-24T18:00:07.663462,0.1255495141538555,0.08310507568770457,8.642199579130205,0.020875943516019072,0.035869877126723675,-0.8387120442664096
2025-11-24T18:00:07.673077,0.1353671622757574,0.08089496307161415,8.602082987767254,0.01855537240187445,0.030386261444670513,-0.8556519215551535
2025-11-24T18:00:07.682692,0.14347412977537718,0.07795791356458537,8.561815341061699,0.01761083617983643,0.02517346022773705,-0.872902968399545
2025-11-24T18:00:07.692308,0.14967181209117028,0.07404545448209685,8.520338351431004,0.018001819620652993,0.020421049749490425,-0.8902668686274801
2025-11-24T18:00:07.701923,0.1539093077461785,0.06908509136774878,8.476798461352132,0.019567820702118877,0.016270348905472905,-0.9074654533912563
2025-11-24T18:00:07.711538,0.15627405735176264,0.06321127068149024,8.430620700073414,0.022043466091812087,0.012815087250668036,-0.9241575090012412
2025-11-24T18:00:07.721154,0.15696713082518982,0.05677067612738118,8.381558374484433,0.025087121795537553,0.010102733694965197,-0.9399629067295062
2025-11-24T18:00:07.730769,0.15626745341966886,0.050301102978641,8.329714152551539,0.028320221283671523,0.008134947118394385,-0.9544896020448078
2025-11-24T18:00:07.740385,0.15448896791311378,0.04448387257042565,8.275530670163834,0.03137213743725985,0.006866650134178622,-0.9673595084634853
2025-11-24T18:00:07.750000,0.15193417747350527,0.04007191402312003,8.219752354458846,0.03392406892124206,0.00620438393172187,-0.9782312766991067
2025-11-24T18:00:07.759615,0.14884881412133416,0.03780004284222319,8.163364024545372,0.03574568466157387,0.006005599870531759,-0.9868199520511556
2025-11-24T18:00:07.769231,0.14538492472043346,0.03828897739209444,8.107514165087515,0.036719485487586453,0.006081539891670986,-0.992914087579303
2025-11-24T18:00:07.778846,0.14158055570583572,0.041957139149033436,8.053430754356269,0.03684954257948538,0.006207018748176404,-0.9963901351769926
2025-11-24T18:00:07.788462,0.137361259532919,0.04895246066757752,8.002335832562602,0.03625377318925521,0.006139554630888312,-0.997222740518881
2025-11-24T18:00:07.798077,0.13256266812465023,0.05911174638635166,7.955362864563583,0.03514186112374441,0.00564736126122953,-0.9954888834081288
2025-11-24T18:00:07.807692,0.126967852254202,0.07195070257299625,7.913479803859645,0.033783124909371826,0.004542141391373318,-0.9913638742202716
2025-11-24T18:00:07.817308,0.12035127799307305,0.08668523602174028,7.877421543449529,0.03246962541732112,0.00271041070964783,-0.9851078443333598
2025-11-24T18:00:07.826923,0.11252260785873816,0.10228345253007277,7.847637390242688,0.03148006409126389,0.00013676983802832598,-0.977042564100411
2025-11-24T18:00:07.836538,0.10336549696418271,0.11754642222594014,7.824259973442059,0.031049534491725227,-0.003086306013814243,-0.967520137762929
2025-11-24T18:00:07.846154,0.0928674107684162,0.13121287477422153,7.80709997669455,0.03134836982123956,-0.006764952795840528,-0.9568868248645642
2025-11-24T18:00:07.855769,0.08113722869203013,0.14207836368475513,7.7956675240518,0.032470605772780325,-0.010625488399026184,-0.9454464434954358
