Timestamp,Acceleration_X,Acceleration_Y,Acceleration_Z,Gyro_X,Gyro_Y,Gyro_Z,time_s
2025-11-24T17:00:00,0.11951147575738327,-0.10345744818835645,-9.815974068835018,0.1710457154211745,-0.2581409708918642,-0.019474440970616045,0.0
2025-11-24T17:00:00.009615,0.12520431605815738,-0.08982658202867105,-9.733661787119498,0.1898425860109133,-0.2432366786032478,-0.006082979074794168,0.009615
2025-11-24T17:00:00.019231,0.1309700840792242,-0.07614583087834773,-9.651305034745175,0.2085560036724199,-0.22827925925901724,0.00731036052313098,0.019231
2025-11-24T17:00:00.028846,0.13678853216540154,-0.062488888383208,-9.569183930753066,0.2271191006933756,-0.21331339194282117,0.020633702644260298,0.028846
2025-11-24T17:00:00.038462,0.14264099432677943,-0.04892473214330565,-9.487556174415246,0.24547468718462098,-0.1983794438997734,0.03382065184714283,0.038462
2025-11-24T17:00:00.048077,0.14851060152403725,-0.035516475885374627,-9.406656678493858,0.263575842769233,-0.18351349437787645,0.04681131437073531,0.048077
2025-11-24T17:00:00.057692,0.15438238029241,-0.022320527402935515,-9.32669756855734,0.2813862934420859,-0.16874744522198262,0.05955303306044151,0.057692
2025-11-24T17:00:00.067308,0.16024322937906701,-0.009386060644874855,-9.247868455899344,0.2988805529503441,-0.15410917274096478,0.07200082388337616,0.067308
2025-11-24T17:00:00.076923,0.16608177767202906,0.0032452223160971574,-9.170336936154964,0.31604380475465377,-0.1396226798933486,0.0841175212827262,0.076923
2025-11-24T17:00:00.086538,0.17188814029771485,0.015539084894940821,-9.094249296206147,0.3328715049870583,-0.1253082184723691,0.09587365143092262,0.086538
2025-11-24T17:00:00.096154,0.17765360619610185,0.027468558738495054,-9.019731418943834,0.3493686932830195,-0.11118236380443537,0.10724705837674388,0.096154
2025-11-24T17:00:00.105769,0.18337030223306686,0.039013609182144,-8.946889864032388,0.36554900763839027,-0.0972580388469065,0.11822231402376332,0.105769
2025-11-24T17:00:00.115385,0.18903088049947156,0.0501607129403062,-8.875813083711535,0.3814334157185128,-0.0835444996262433,0.12878995276114724,0.115385
2025-11-24T17:00:00.125000,0.19462826843244624,0.060902389560610865,-8.80657271726035,0.3970486980760179,-0.07004730588464214,0.13894558181148775,0.125
2025-11-24T17:00:00.134615,0.20015551014081012,0.0712367170061153,-8.739224908710877,0.41242574310258606,-0.056768305318020976,0.14868892221701693,0.134615
2025-11-24T17:00:00.144231,0.2056057135953745,0.08116685040767953,-8.673811615298701,0.4275977323996785,-0.04370565666393827,0.15802283164405145,0.144231
2025-11-24T17:00:00.153846,0.21097210254838375,0.09070055295494531,-8.610361906802616,0.4425983031412445,-0.030853910485018954,0.16695235355364377,0.153846
2025-11-24T17:00:00.163462,0.21624815595085306,0.09984973764111812,-8.548893275810872,0.4574597703298678,-0.018204161564630797,0.1754838315850751,0.163462
2025-11-24T17:00:00.173077,0.2214278035633703,0.10863000800410764,-8.489412974679164,0.47221148176503347,-0.0057442841097143545,0.18362412292003324,0.173077
2025-11-24T17:00:00.182692,0.2265056362227054,0.11706017845695323,-8.431919376199735,0.4868783681301029,0.006540742225569928,0.1913799370548993,0.182692
2025-11-24T17:00:00.192308,0.23147708483813506,0.12516175354660883,-8.376403338719399,0.501479742876561,0.01866841199910065,0.19875731397308008,0.192308
2025-11-24T17:00:00.201923,0.236338525512904,0.13295834997101164,-8.322849548862875,0.5160284008395888,0.03065818004118854,0.2057612391768425,0.201923
2025-11-24T17:00:00.211538,0.24108727909310776,0.14047505231643959,-8.271237813425953,0.5305300556407004,0.04253085969414393,0.21239537845429596,0.211538
2025-11-24T17:00:00.221154,0.24572148908263958,0.14773770157921848,-8.221544276651366,0.5449831374893129,0.0543079487527244,0.21866190820945208,0.221154
2025-11-24T17:00:00.230769,0.2502398781698681,0.15477212534944135,-8.173742551908974,0.5593789451767663,0.0660109122953363,0.22456141726310835,0.230769
2025-11-24T17:00:00.240385,0.254641397730971,0.1616033302677067,-8.127804772671189,0.5737021172353718,0.07766046252210365,0.23009285927619944,0.240385
2025-11-24T17:00:00.250000,0.25892479641150346,0.1682546888215062,-8.083702575555865,0.5879313659580743,0.0892758785372937,0.23525353983544403,0.25
2025-11-24T17:00:00.259615,0.263088144332787,0.17474716072169344,-8.041408019937409,0.6020404064871813,0.10087440375908249,0.2400391300875159,0.259615
2025-11-24T17:00:00.269231,0.26712835743648383,0.18109859211542967,-8.000894427075387,0.6159990083606677,0.11247074849362547,0.24444370885384167,0.269231
2025-11-24T17:00:00.278846,0.2710407682578934,0.18732313359784442,-7.962137101406215,0.6297740952265065,0.12407671442404444,0.24845984285066688,0.278846
2025-11-24T17:00:00.288462,0.2748187834903521,0.19343081188662042,-7.925113892663669,0.6433308202777926,0.13570095032312712,0.25207871639736623,0.288462
2025-11-24T17:00:00.298077,0.2784536582185707,0.1994272821040614,-7.88980557260552,0.6566335540147762,0.14734884440534063,0.2552903190439545,0.298077
2025-11-24T17:00:00.307692,0.28193440567037387,0.20531377860778874,-7.8561960234402335,0.6696467395697517,0.15902255330857942,0.2580836949583909,0.307692
2025-11-24T17:00:00.317308,0.2852478508669869,0.21108727118566395,-7.824272252845939,0.6823355968486983,0.17072115632389043,0.2604472527594809,0.317308
2025-11-24T17:00:00.326923,0.2883788264522849,0.21674081878483487,-7.794024259358835,0.6946666833307281,0.1824409099394882,0.2623691289989257,0.326923
2025-11-24T17:00:00.336538,0.29131050064929714,0.22226409626488713,-7.765444778846989,0.7066083382762527,0.1941755710616482,0.2638375936980289,0.336538
2025-11-24T17:00:00.346154,0.29402482258767065,0.2276440559686903,-7.738528951182922,0.7181310445997738,0.20591676035106227,0.26484148262744706,0.346154
2025-11-24T17:00:00.355769,0.29650306851808284,0.23286567853183615,-7.713273950080779,0.7292077413082115,0.2176543440076912,0.2653706377463509,0.355769
2025-11-24T17:00:00.365385,0.298726470371869,0.23791276556512245,-7.689678612870662,0.7398141131715186,0.2293768174027382,0.26541633444756113,0.365385
2025-11-24T17:00:00.375000,0.30067690304173134,0.24276873071458363,-7.667743093030228,0.7499288758520942,0.24107167675738908,0.26497167331487215,0.375
2025-11-24T17:00:00.384615,0.30233759989770087,0.24741735627669822,-7.64746854311935,0.7595340665104513,0.25272576685329573,0.26403191614269583,0.384615
2025-11-24T17:00:00.394231,0.3036938614061123,0.25184349598859146,-7.628856825211808,0.7686153427711891,0.26432559508591746,0.26259475071138755,0.394231
2025-11-24T17:00:00.403846,0.30473372090072703,0.2560337127964853,-7.611910242222691,0.7771622849117588,0.27585760685326755,0.26066047514412627,0.403846
2025-11-24T17:00:00.413462,0.3054485326717711,0.25997683997215965,-7.596631283006037,0.7851686859546902,0.2873084236878659,0.258232099481196,0.413462
2025-11-24T17:00:00.423077,0.30583344997736134,0.26366444915922693,-7.583022371165613,0.7926328046924648,0.2986650506363695,0.2553153674869258,0.423077
2025-11-24T17:00:00.432692,0.30588776599246903,0.267091206807122,-7.571085603176862,0.7995575518659114,0.30991506021393733,0.25191870324277715,0.432692
2025-11-24T17:00:00.442308,0.30561509796698977,0.27025510516605844,-7.560822461544019,0.8059505804395081,0.32104675562485924,0.2480530847681778,0.442308
2025-11-24T17:00:00.451923,0.3050233997332363,0.2731575641683579,-7.552233494317605,0.8118242538685473,0.33204930918462666,0.24373184434551318,0.451923
2025-11-24T17:00:00.461538,0.30412478951197003,0.27580341043255574,-7.545317959205283,0.8171954705908242,0.34291286957033545,0.23897039626861658,0.461538
2025-11-24T17:00:00.471154,0.3029351844269222,0.278200744369016,-7.54007343673494,0.8220853324399273,0.35362863488241697,0.23378589749780543,0.471154
2025-11-24T17:00:00.480769,0.3014737463207415,0.28036070579301237,-7.536495424190268,0.8265186592474822,0.3641888915849462,0.22819685229257533,0.480769
2025-11-24T17:00:00.490385,0.2997621646283573,0.2822971460426218,-7.534576932237466,0.8305233637017135,0.3745870189203896,0.22222267632028453,0.490385
2025-11-24T17:00:00.500000,0.29782382337625307,0.28402621357706254,-7.534308117274508,0.8341297039241568,0.38481745770712206,0.21588323838584614,0.5
2025-11-24T17:00:00.509615,0.2956829117895518,0.28556586145472007,-7.535675986050172,0.8373694310316172,0.39487564362322686,0.20919839785637007,0.509615
2025-11-24T17:00:00.519231,0.2933635377788612,0.2869352883479734,-7.538664195969843,0.8402748533131973,0.4047579045314383,0.202187554025352,0.519231
2025-11-24T17:00:00.528846,0.2908888943540914,0.28815432875462405,-7.543252946859752,0.8428778488983772,0.4144613163469203,0.1948692242318035,0.528846
2025-11-24T17:00:00.538462,0.28828051708721736,0.28924281227838616,-7.5494189325710765,0.8452088693321368,0.42398350740456675,0.18726067234742688,0.538462
2025-11-24T17:00:00.548077,0.28555765974240227,0.2902199160787733,-7.557135308092367,0.8472959802523783,0.433322406061267,0.17937761363165847,0.548077
2025-11-24T17:00:00.557692,0.28273680661027994,0.2911035380836049,-7.5663716322052315,0.8491639793767324,0.44247594222777453,0.1712340199948416,0.557692
2025-11-24T17:00:00.567308,0.279831335181666,0.2919097203012855,-7.57709376032212,0.8508336211787318,0.4514417316125485,0.16284204131657967,0.567308
2025-11-24T17:00:00.576923,0.2768513401355903,0.2926521506929916,-7.58926368045676,0.8523209711497075,0.4602167802890554,0.15421204816377881,0.576923
2025-11-24T17:00:00.586538,0.27380362427940513,0.29334176796743106,-7.602839303402836,0.8536369141422612,0.4687972441923158,0.1453527917565963,0.586538
2025-11-24T17:00:00.596154,0.27069185074579677,0.293986487586762,-7.617774232063434,0.8547868459063638,0.4771782694189996,0.13627166828719903,0.596154
2025-11-24T17:00:00.605769,0.26751683569477863,0.294591062240855,-7.634017541246782,0.8557705764193747,0.48535393019942163,0.12697506776404816,0.605769
2025-11-24T17:00:00.615385,0.2642769478448529,0.295157086765958,-7.651513598961644,0.856582463074791,0.49331727294553557,0.11746878416440236,0.615385
2025-11-24T17:00:00.625000,0.2609685748726772,0.29568315268020295,-7.670201957973154,0.857211772827655,0.5010604665458359,0.10775846256952046,0.625
2025-11-24T17:00:00.634615,0.25758661685453205,0.29616514855924475,-7.6900173471602855,0.8576432523882608,0.5085750507008351,0.09785005719629006,0.634615
2025-11-24T17:00:00.644231,0.2541249702305329,0.29659669118257237,-7.710889797309826,0.8578578707172556,0.5158522637223295,0.08775027196177948,0.644231
2025-11-24T17:00:00.653846,0.2505769713958095,0.29696966209338105,-7.7327449390928065,0.8578336877383851,0.5228834178329521,0.0774669559143869,0.653846
2025-11-24T17:00:00.663462,0.24693577949564666,0.29727481577807313,-7.755504501490299,0.85754679538675,0.5296602768285189,0.06700943184283943,0.663462
2025-11-24T17:00:00.673077,0.2431946929920313,0.2975024185815939,-7.779087015852272,0.8569722757452689,0.5361753847094126,0.0563887458243037,0.673077
2025-11-24T17:00:00.682692,0.2393474069117848,0.2976428727635156,-7.80340870751951,0.8560851300145607,0.542422300265144,0.045617834594828745,0.682692
2025-11-24T17:00:00.692308,0.23538821999223603,0.29768728014611784,-7.828384543471136,0.8548611467560522,0.5483957117281366,0.034711614388167215,0.692308
2025-11-24T17:00:00.701923,0.2313121950393488,0.29762790664798067,-7.853929395481955,0.8532776899254393,0.5540914309898023,0.023686999418926234,0.701923
2025-11-24T17:00:00.711538,0.22711527085153094,0.29745852279297086,-7.879959268727125,0.8513143937998018,0.5595062898808438,0.012562860175758648,0.711538
2025-11-24T17:00:00.721154,0.22279432568701923,0.2971746133805877,-7.906392542944571,0.8489537540126005,0.5646379767410235,0.0013599296164424654,0.721154
2025-11-24T17:00:00.730769,0.21834719825913748,0.29677346785010816,-7.933151183005666,0.8461816016510368,0.5694848585358184,-0.009899340576012309,0.730769
2025-11-24T17:00:00.740385,0.2137726772670994,0.29625417796090187,-7.9601618894359305,0.8429874422676596,0.5740458307421102,-0.021190977263401068,0.740385
2025-11-24T17:00:00.750000,0.20907047060244616,0.29561757750609763,-7.987357163956021,0.8393646395355939,0.5783202245062072,-0.032489741029222176,0.75
2025-11-24T17:00:00.759615,0.20424116066742676,0.2948661558058549,-8.014676258201982,0.8353104297833996,0.5823077833764176,-0.043769438036604505,0.759615
2025-11-24T17:00:00.769231,0.1992861476934644,0.2940039626155073,-8.042065963510654,0.8308257672974602,0.5860087065899242,-0.05500327704593993,0.769231
2025-11-24T17:00:00.778846,0.19420758455759557,0.2930365040088494,-8.069481194217573,0.8259150129815827,0.5894237449135428,-0.06616424908569721,0.778846
2025-11-24T17:00:00.788462,0.18900831507185828,0.29197061650463085,-8.096885319765988,0.8205854851556774,0.5925543278141462,-0.07722550132092659,0.788462
2025-11-24T17:00:00.798077,0.1836918370996165,0.2908143041858764,-8.12425021135489,0.8148468938549668,0.5954026970070759,-0.08816067886352949,0.798077
2025-11-24T17:00:00.807692,0.17826231434075301,0.2895765278215678,-8.151555982004849,0.8087106845995808,0.5979720217480687,-0.09894421558521267,0.807692
2025-11-24T17:00:00.817308,0.17272465243162952,0.28826694294376093,-8.178790408944101,0.8021893239843604,0.6002664751604867,-0.10955156204541533,0.817308
2025-11-24T17:00:00.826923,0.16708463814155736,0.28689559557248967,-8.205948035610877,0.7952955619174745,0.6022912563395825,-0.11995934348293784,0.826923
2025-11-24T17:00:00.836538,0.16134912113919173,0.28547259735976394,-8.233028967759576,0.7880417016243463,0.6040525476734515,-0.13014544522462557,0.836538
2025-11-24T17:00:00.846154,0.15552620381387,0.2840078082319181,-8.260037410963237,0.7804389048452474,0.6055574003336851,-0.14008902857839986,0.846154
2025-11-24T17:00:00.855769,0.1496254009395051,0.2825105484945464,-8.286980037156015,0.7724965632595988,0.6068135448396162,-0.14977048643703092,0.855769
2025-11-24T17:00:00.865385,0.1436577362548377,0.2809893486129511,-8.313864298167326,0.7642217755612152,0.6078291291813399,-0.1591713516614994,0.865385
2025-11-24T17:00:00.875000,0.13763575227324892,0.27945173424219,-8.340696810011824,0.7556189723739135,0.6086123935004929,-0.1682741708732938,0.875
2025-11-24T17:00:00.884615,0.131573419767593,0.27790404253861156,-8.367481909672284,0.7466897213783558,0.6091712972760571,-0.177062352950186,0.884615
2025-11-24T17:00:00.894231,0.12548594429200835,0.27635127081946836,-8.3942204486385,0.7374327246928721,0.6095131226890154,-0.18551999972509764,0.894231
2025-11-24T17:00:00.903846,0.11938947796569553,0.27479696394529524,-8.42090885729528,0.7278439986030829,0.609644084364882,-0.19363172941791856,0.903846
2025-11-24T17:00:00.913462,0.11330075249839633,0.27324314803134175,-8.447538503724221,0.7179172132396247,0.6095689767548812,-0.20138250956210388,0.913462
2025-11-24T17:00:00.923077,0.10723665241149717,0.2716903153545846,-8.474095368807717,0.7076441714444216,0.609290885076776,-0.20875752086068358,0.923077
2025-11-24T17:00:00.932692,0.10121374864391466,0.27013746158295215,-8.500560048791689,0.6970154129695739,0.6088109783920119,-0.2157420735560817,0.932692
2025-11-24T17:00:00.942308,0.09524781658638712,0.2685821732619672,-8.526908074539374,0.6860209278379559,0.608128397881928,-0.22232159365126727,0.942308
2025-11-24T17:00:00.951923,0.08935336812118022,0.26702075966788114,-8.553110516506239,0.6746509477766165,0.6072402483133197,-0.228481688430157,0.951923
2025-11-24T17:00:00.961538,0.08354322819438131,0.26544841847009065,-8.579134836769498,0.6628967674850741,0.6061416925651064,-0.23420829007810576,0.961538
2025-11-24T17:00:00.971154,0.07782817865189928,0.2638594222706417,-8.604945952855381,0.650751539001735,0.6048261376837061,-0.2394878652882166,0.971154
2025-11-24T17:00:00.980769,0.07221667925137829,0.2622473163009572,-8.630507481489582,0.6382109840411979,0.6032854905875463,-0.24430767062038455,0.980769
2025-11-24T17:00:00.990385,0.06671466674627838,0.2606051252676272,-8.655783123366744,0.6252739757339116,0.6015104582039346,-0.2486560291510772,0.990385
2025-11-24T17:00:01,0.06132543276336858,0.25892557374145253,-8.680738134329738,0.6119429497904176,0.5994908727977954,-0.25252260285335565,1.0
2025-11-24T17:00:01.009615,0.05604958642665372,0.2572013239535076,-8.705340817057094,0.5982241188879754,0.5972160341505274,-0.25589863671275714,1.009615
2025-11-24T17:00:01.019231,0.050885111707570575,0.25542522789391836,-8.729563970196505,0.5841274854015194,0.5946750684992959,-0.25877715507662097,1.019231
2025-11-24T17:00:01.028846,0.045827529383597264,0.2535905836035587,-8.753386243837786,0.5696666700346668,0.5918573053266333,-0.26115309790204894,1.028846
2025-11-24T17:00:01.038462,0.04087016980448579,0.2516913834565043,-8.776793357433997,0.5548585870674074,0.5887526676201238,-0.26302339323858376,1.038462
2025-11-24T17:00:01.048077,0.03600455632247874,0.24972254406858713,-8.799779131601472,0.5397229981473933,0.5853520622039237,-0.2643869703381524,1.048077
2025-11-24T17:00:01.057692,0.03122089078403182,0.24768011053867486,-8.822346275068856,0.5242819717653214,0.5816477482359784,-0.2652447223588491,1.057692
2025-11-24T17:00:01.067308,0.026508622373296282,0.2455614315718673,-8.844506864392255,0.5085592709815795,0.577633657167451,-0.26559942737435077,1.067308
2025-11-24T17:00:01.076923,0.021857070642487778,0.24336530555728267,-8.866282463668972,0.4925796909608299,0.5733056377733261,-0.26545563337587613,1.076923
2025-11-24T17:00:01.086538,0.01725606523962531,0.2410920971867619,-8.887703854055424,0.47636837225907863,0.5686616066222333,-0.2648195105796082,1.086538
2025-11-24T17:00:01.096154,0.012696560425057592,0.23874381780009002,-8.908810374197564,0.4599501237682216,0.5637015979231064,-0.26369867455481266,1.096154
2025-11-24T17:00:01.105769,0.008171181864331214,0.23632415387035524,-8.929648906124028,0.44334879515303843,0.5584277221311852,-0.2621019863814973,1.105769
2025-11-24T17:00:01.115385,0.0036746655042294136,0.23383842289357198,-8.950272570340623,0.4265867384822736,0.552844052017524,-0.2600393393302018,1.115385
2025-11-24T17:00:01.125000,-0.0007958473257686348,0.2312934378588278,-8.97073921607492,0.4096843927237122,0.5469564554945735,-0.25752144290132495,1.125
2025-11-24T17:00:01.134615,-0.005240688385501445,0.22869727032290177,-8.99110980807371,0.3926600145966078,0.5407723906660314,-0.25455961402147126,1.134615
2025-11-24T17:00:01.144231,-0.009657735340831334,0.22605891565184583,-9.01144681895127,0.37552956555551514,0.5343006748443949,-0.2511655835747634,1.144231
2025-11-24T17:00:01.153846,-0.014042686093591661,0.22338787849030342,-9.031812731183196,0.3583067481946855,0.5275512366934652,-0.24735132519851136,1.153846
2025-11-24T17:00:01.163462,-0.018389523948511247,0.220693708193407,-9.052268730981496,0.34100317079545317,0.5205348591225106,-0.24312891150731714,1.163462
2025-11-24T17:00:01.173077,-0.022691142970200348,0.21798552093322032,-9.072873641102536,0.32362861170175045,0.5132629203262598,-0.23851040031281215,1.173077
2025-11-24T17:00:01.182692,-0.026940083339262084,0.21527154623486847,-9.093683105717801,0.3061913540138726,0.5057471409332468,-0.2335077514279663,1.182692
2025-11-24T17:00:01.192308,-0.031129310705937805,0.21255872916208846,-9.114749022195396,0.2886985591081547,0.49799934574034155,-0.22813277435308435,1.192308
2025-11-24T17:00:01.201923,-0.03525296568140024,0.2098524073129985,-9.136119210151733,0.2711566441812906,0.49003124881331944,-0.22239710717075667,1.201923
2025-11-24T17:00:01.211538,-0.03930701235585912,0.20715607156915167,-9.15783730137589,0.2535716303608014,0.48185427052772284,-0.21631222544801615,1.211538
2025-11-24T17:00:01.221154,-0.04328972677245582,0.20447121633260082,-9.17994281535019,0.2359494363929242,0.47347939343372675,-0.20988947763092936,1.221154
2025-11-24T17:00:01.230769,-0.04720198370006461,0.20179728541226433,-9.202471361826595,0.21829610368570831,0.4649170602768467,-0.2031401423153729,1.230769
2025-11-24T17:00:01.240385,-0.051047319149248906,0.19913171663663023,-9.22545489897391,0.200617945662178,0.4561771127100594,-0.19607550254882233,1.240385
2025-11-24T17:00:01.250000,-0.05483176441748195,0.19647007963238325,-9.248921979215424,0.18292161722011185,0.44726876308512054,-0.1887069314535503,1.25
2025-11-24T17:00:01.259615,-0.05856346458649931,0.19380629184186735,-9.272897929488089,0.16521410176247192,0.4382005830663159,-0.18104598254173804,1.259615
2025-11-24T17:00:01.269231,-0.06225211176897761,0.19113289348226567,-9.297404928942605,0.14750261634535589,0.42898048310114273,-0.1731044785362328,1.269231
2025-11-24T17:00:01.278846,-0.06590824084337264,0.18844136334549522,-9.322461961448022,0.12979444116105707,0.4196156528275672,-0.1648945936597324,1.278846
2025-11-24T17:00:01.288462,-0.06954244872658032,0.18572246012787047,-9.34808463604847,0.11209668775300166,0.4101124415286961,-0.15642892465989275,1.288462
2025-11-24T17:00:01.298077,-0.07316460270030535,0.18296657563503027,-9.374284888492069,0.09441602803836521,0.40047617854180284,-0.14772054532123038,1.298077
2025-11-24T17:00:01.307692,-0.07678309846116214,0.18016408774390583,-9.401070596784557,0.07675840906644746,0.39071095622369884,-0.13878303889036703,1.307692
2025-11-24T17:00:01.317308,-0.08040421753830283,0.17730570304579857,-9.428445154299627,0.0591287757322395,0.38081941345704945,-0.1296305036842388,1.317308
2025-11-24T17:00:01.326923,-0.08403161914486194,0.17438277861593698,-9.45640704128919,0.04153081911210755,0.3708025629119556,-0.12027753041548413,1.326923
2025-11-24T17:00:01.336538,-0.08766598523084405,0.17138760677420656,-9.484949428285425,0.023966765840946754,0.3606597011962748,-0.11073915556555014,1.336538
2025-11-24T17:00:01.346154,-0.0913048237435448,0.16831363982743772,-9.514059845043374,0.006437225366122785,0.35038842922176777,-0.1010308004282093,1.346154
2025-11-24T17:00:01.355769,-0.0949424285299581,0.16515563157417976,-9.543719955052852,-0.011058884632715205,0.33998479387817404,-0.09116820637814653,1.355769
2025-11-24T17:00:01.365385,-0.0985699934628767,0.1619096818626205,-9.573905476019595,-0.02852431293028988,0.32944354669680515,-0.08116737302888631,1.365385
2025-11-24T17:00:01.375000,-0.10217587666443426,0.15857318475702406,-9.604586275528174,-0.045963333857191306,0.318758504742368,-0.07104450007357507,1.375
2025-11-24T17:00:01.384615,-0.10574600447854103,0.15514469412444218,-9.635726653426655,-0.0633814909829191,0.3079229938544838,-0.06081592903739824,1.384615
2025-11-24T17:00:01.394231,-0.10926439567402997,0.151623731652841,-9.6672858054326,-0.08078524579026752,0.2969303518321458,-0.05049808022782788,1.394231
2025-11-24T17:00:01.403846,-0.11271377708874869,0.1480105707547522,-9.699218451527992,-0.09818156655538955,0.2857744665203998,-0.04010738337568921,1.403846
2025-11-24T17:00:01.413462,-0.11607625526194579,0.14430603037723777,-9.731475610463374,-0.11557749586341172,0.2744503212903662,-0.02966020587388571,1.413462
2025-11-24T17:00:01.423077,-0.11933400792315688,0.1405113007260333,-9.764005506149406,-0.13297972712332676,0.26295452021785143,-0.01917278683175781,1.423077
2025-11-24T17:00:01.432692,-0.1224699661646458,0.13662780231173444,-9.796754600156971,-0.15039420570386997,0.25128576689671744,-0.008661185671804579,1.432692
2025-11-24T17:00:01.442308,-0.12546846921310936,0.13265706261027088,-9.829668755531198,-0.16782575524597335,0.23944527112009517,0.0018587501934018544,1.442308
2025-11-24T17:00:01.451923,-0.1283158819059804,0.1286005905173864,-9.862694544440215,-0.18527772015960745,0.22743705613473533,0.01237140125951159,1.451923
2025-11-24T17:00:01.461538,-0.13100116572864284,0.12445973645725045,-9.895780704640009,-0.20275161525252514,0.21526813989811502,0.02286138372945673,1.461538
2025-11-24T17:00:01.471154,-0.13351638910001642,0.12023553799024529,-9.92887972231025,-0.2202467836733769,0.2029485707732142,0.033313556885907696,1.471154
2025-11-24T17:00:01.480769,-0.13585715679376287,0.1159285620061902,-9.961949479429215,-0.23776008008230629,0.1904913108258612,0.04371303050410021,1.480769
2025-11-24T17:00:01.490385,-0.13802293604628468,0.11153876253730853,-9.994954868370206,-0.25528560793304717,0.17791197417487317,0.054045164304160224,1.490385
2025-11-24T17:00:01.500000,-0.1400172584952305,0.10706537483405722,-10.027869258624067,-0.2728145415310609,0.16522844049275803,0.06429554729954895,1.5
2025-11-24T17:00:01.509615,-0.14184778099838316,0.10250686135532339,-10.06067570449934,-0.29033505597505826,0.15246037382037822,0.07444994655145568,1.509615
2025-11-24T17:00:01.519231,-0.14352619296797978,0.09786091811501721,-10.093367803068384,-0.30783237545471687,0.13962868251534657,0.08449422054210488,1.519231
2025-11-24T17:00:01.528846,-0.1450679620209999,0.09312454361085061,-10.12595014168284,-0.3252889362477473,0.1267549547227616,0.0944141994235094,1.528846
2025-11-24T17:00:01.538462,-0.14649191433793313,0.08829416588308402,-10.158438309925879,-0.34268464893489575,0.11386089577815199,0.10419554014550964,1.538462
2025-11-24T17:00:01.548077,-0.1478196546071545,0.08336581463272509,-10.190858485939437,-0.3599972388151705,0.10096778352665271,0.11382356787430327,1.548077
2025-11-24T17:00:01.557692,-0.14907484437077356,0.0783353175983689,-10.223246630462029,-0.37720264445926505,0.08809594897309483,0.12328311733581286,1.557692
2025-11-24T17:00:01.567308,-0.15028237266609554,0.07319849835789359,-10.255647326192035,-0.3942754569681695,0.07526428637929122,0.13255838983888257,1.567308
2025-11-24T17:00:01.576923,-0.1514674634168094,0.06795135765674479,-10.288112293337258,-0.4111893826706286,0.062489800759932705,0.14163284329215745,1.576923
2025-11-24T17:00:01.586538,-0.1526547686171789,0.06259022798701237,-10.320698613163362,-0.4279177109754903,0.0497872088316458,0.1504891330046789,1.586538
2025-11-24T17:00:01.596154,-0.15386749546644735,0.057111896281177625,-10.353466711680037,-0.44443377000327805,0.03716861473492134,0.1591091203945398,1.596154
2025-11-24T17:00:01.605769,-0.1551266091798056,0.05151369196799951,-10.386478190121364,-0.460711356188804,0.024643279736680224,0.16747396401138187,1.605769
2025-11-24T17:00:01.615385,-0.1564501439356493,0.045793540389328105,-10.419793620934884,-0.4767251305714485,0.012217497020429156,0.17556430094231326,1.615385
2025-11-24T17:00:01.625000,-0.15785264805784643,0.03994998560963016,-10.453470441578476,-0.49245098383048536,-0.00010542833263035267,0.18336051623593275,1.625
2025-11-24T17:00:01.634615,-0.15934478780190706,0.03398219036757498,-10.487561067980678,-0.5078663802557669,-0.01232510539722182,0.19084308500823874,1.634615
2025-11-24T17:00:01.644231,-0.16093313147951788,0.02788992337515148,-10.522111321751549,-0.5229506932326491,-0.024443908201176492,0.1979929595211926,1.644231
2025-11-24T17:00:01.653846,-0.16262012633700346,0.02167354516040089,-10.557159231387976,-0.5376855423741026,-0.036466769764122026,0.2047919655827546,1.653846
2025-11-24T17:00:01.663462,-0.16440426563559432,0.015334002970197613,-10.592734234721002,-0.5520551385130423,-0.04840093038880646,0.2112231728969614,1.663462
2025-11-24T17:00:01.673077,-0.166280428010719,0.008872843154589097,-10.628856780138552,-0.5660466374338109,-0.060255640543860116,0.21727121365022736,1.673077
2025-11-24T17:00:01.682692,-0.16824035838355597,0.0022922455005301135,-10.665538299748919,-0.5796504947476542,-0.07204181103898794,0.2229225379238005,1.682692
2025-11-24T17:00:01.692308,-0.1702732493829979,-0.004404923369025319,-10.702781509990478,-0.5928608034455317,-0.0837716046266632,0.22816560533677985,1.692308
2025-11-24T17:00:01.701923,-0.1723663749771856,-0.011215050681415158,-10.740580983884891,-0.6056755854446063,-0.09545797313780295,0.2329910153137642,1.701923
2025-11-24T17:00:01.711538,-0.17450572614897927,-0.018133734748213885,-10.778923933848297,-0.6180970014749888,-0.10711415501369903,0.2373915755374044,1.711538
2025-11-24T17:00:01.721154,-0.1766766032752874,-0.02515578518030305,-10.817791144462435,-0.6301314408917074,-0.11875315448582816,0.2413623040426777,1.721154
2025-11-24T17:00:01.730769,-0.17886412998027518,-0.03227528838192808,-10.857158000213705,-0.6417894542721879,-0.13038722744223866,0.24490035868110663,1.730769
2025-11-24T17:00:01.740385,-0.18105366636083361,-0.03948574755798059,-10.89699556296928,-0.6530854972786897,-0.1420274012489213,0.24800489012996105,1.740385
2025-11-24T17:00:01.750000,-0.18323111382659418,-0.04678028758030529,-10.937271663065017,-0.6640374667114792,-0.15368305330296808,0.25067682063304236,1.75
2025-11-24T17:00:01.759615,-0.18538311728100215,-0.05415189889211407,-10.977951968009606,-0.6746660311826386,-0.16536156477353695,0.25291855747413616,1.759615
2025-11-24T17:00:01.769231,-0.18749718077614033,-0.06159368995130181,-11.019000983208155,-0.6849937858970048,-0.177068055570236,0.25473365529447317,1.769231
2025-11-24T17:00:01.778846,-0.1895617188917752,-0.06909912452958991,-11.060382932285208,-0.6950442847473883,-0.18880519826462472,0.256126444955317,1.778846
2025-11-24T17:00:01.788462,-0.19156606824253225,-0.07666222946887848,-11.102062474195197,-0.7048410161106928,-0.2005731050877159,0.2571016505748983,1.788462
2025-11-24T17:00:01.798077,-0.19350048295424258,-0.08427776252202647,-11.144005239694264,-0.7144063898598628,-0.21236928503280972,0.25766402030115676,1.798077
2025-11-24T17:00:01.807692,-0.19535613512307876,-0.09194132958183754,-11.186178195419867,-0.723760794716178,-0.22418867573432782,0.25781799674181277,1.807692
2025-11-24T17:00:01.817308,-0.19712513496117262,-0.09964944141490743,-11.228549854462143,-0.7329217720595893,-0.2360237598925122,0.2575674472385714,1.817308
2025-11-24T17:00:01.826923,-0.1988005747517185,-0.10739950390037238,-11.271090347039465,-0.7419033399443534,-0.24786477168678359,0.25691546445902885,1.826923
2025-11-24T17:00:01.836538,-0.2003765890319245,-0.11518973989250623,-11.31377135480899,-0.7507154909760261,-0.2596999856751427,0.255864238695958,1.836538
2025-11-24T17:00:01.846154,-0.2018484176474267,-0.12301904320991891,-11.356565907954193,-0.7593638775046395,-0.27151606663452804,0.25441499781111016,1.846154
2025-11-24T17:00:01.855769,-0.20321246307769172,-0.13088676793770698,-11.39944804977589,-0.7678496849374576,-0.2832984508325955,0.252568009239056,1.855769
2025-11-24T17:00:01.865385,-0.20446634450448037,-0.13879246191334238,-11.442392388108038,-0.7761696787353229,-0.295031729221001,0.2503226397030228,1.865385
2025-11-24T17:00:01.875000,-0.2056089587301514,-0.14673556103491045,-11.485373570939528,-0.7843163947804865,-0.30670000805644687,0.24767747048691652,1.875
2025-11-24T17:00:01.884615,-0.20664055660530062,-0.15471506699820217,-11.52836573760456,-0.7922784315446544,-0.3182872286368925,0.2446304668957739,1.884615
2025-11-24T17:00:01.894231,-0.20756283494702873,-0.16272923292683464,-11.571342001176179,-0.8000408028769556,-0.329777433714075,0.2411791978172498,1.894231
2025-11-24T17:00:01.903846,-0.2083790332917558,-0.17077528038807627,-11.614274009797676,-0.8075853235085184,-0.3411549741526613,0.237321095203651,1.903846
2025-11-24T17:00:01.913462,-0.20909401744200248,-0.17884916938826131,-11.657131615741255,-0.8148910173121707,-0.35240465566549745,0.23305373701420717,1.913462
2025-11-24T17:00:01.923077,-0.20971433035123854,-0.18694543956216877,-11.699882656630198,-0.8219345511214268,-0.3635118316327568,0.22837513439144425,1.923077
2025-11-24T17:00:01.932692,-0.21024819343462772,-0.19505713398576943,-11.742492832879368,-0.8286907014753786,-0.37446245437139747,0.22328400537493973,1.932692
2025-11-24T17:00:01.942308,-0.2107054440807779,-0.20317580687086081,-11.784925657172757,-0.8351328608743684,-0.38524310355794217,0.2177800213293771,1.942308
2025-11-24T17:00:01.951923,-0.21109739801673205,-0.21129160553180593,-11.827142455705507,-0.8412335875507092,-0.395841014392011,0.21186401673793598,1.951923
2025-11-24T17:00:01.961538,-0.21143663137601676,-0.21939340843520708,-11.869102409958005,-0.8469651988197832,-0.4062441264453835,0.20553815769566647,1.961538
2025-11-24T17:00:01.971154,-0.21173668666427958,-0.22746899690043654,-11.910762637220808,-0.8523004001069013,-0.416441166904337,0.19880606927993152,1.971154
2025-11-24T17:00:01.980769,-0.21201171411989553,-0.23550523987402075,-11.952078317077586,-0.8572129293064393,-0.42642177156988303,0.1916729265111484,1.980769
2025-11-24T17:00:01.990385,-0.2122760613400521,-0.2434882794744317,-11.993002876037687,-0.8616781845668168,-0.4361766346861818,0.18414551697940315,1.990385
2025-11-24T17:00:02,-0.21254382225784113,-0.2514037159898361,-12.03348823931296,-0.8656737985615216,-0.4456976652909923,0.17623228484093909,2.0
2025-11-24T17:00:02.009615,-0.21282835786515508,-0.25923679833864466,-12.0734851498425,-0.869180123930244,-0.4549781185462123,0.16794336601403453,2.009615
2025-11-24T17:00:02.019231,-0.21314180803024513,-0.2669726263698518,-12.112943546124837,-0.8721806010083342,-0.46401267176621674,0.15929062305152267,2.019231
2025-11-24T17:00:02.028846,-0.21349462230226451,-0.27459636721731057,-12.151812984395457,-0.874661990692812,-0.4727974253609181,0.1502876847381031,2.028846
2025-11-24T17:00:02.038462,-0.21389514061549247,-0.2820934832061759,-12.190043085806241,-0.8766144716003098,-0.481329820829392,0.14094999026259633,2.038462
2025-11-24T17:00:02.048077,-0.21434924853436707,-0.2894499642896589,-12.227583983782981,-0.8780316174357229,-0.48960847684906955,0.13129483270912148,2.048077
2025-11-24T17:00:02.057692,-0.21486011905428504,-0.29665255221630693,-12.264386740692862,-0.8789102845830257,-0.4976329519557118,0.12134139351443174,2.057692
2025-11-24T17:00:02.067308,-0.2154280408447031,-0.303688937360249,-12.300403699616288,-0.8792504503782343,-0.5054034496813817,0.1111107588337857,2.067308
2025-11-24T17:00:02.076923,-0.216050325975189,-0.3105479066290386,-12.335588739546603,-0.8790550465548548,-0.5129204881473577,0.10062590914333228,2.076923
2025-11-24T17:00:02.086538,-0.216721288315469,-0.31721942614621584,-12.369897410457622,-0.8783298259595231,-0.5201845594780143,0.08991167317207567,2.086538
2025-11-24T17:00:02.096154,-0.2174322844114479,-0.3236946553930844,-12.403286937700704,-0.8770832836679289,-0.527195803439365,0.07899463573882864,2.096154
2025-11-24T17:00:02.105769,-0.21817181102070382,-0.3299659059936253,-12.435716102708678,-0.8753266307329568,-0.5339537136925379,0.06790298723502441,2.105769
2025-11-24T17:00:02.115385,-0.21892565768904398,-0.33602657238277406,-12.467145025393041,-0.8730737961557792,-0.5404568869291199,0.05666630266715585,2.115385
2025-11-24T17:00:02.125000,-0.21967711544873927,-0.34187106696303976,-12.497534888408978,-0.8703414166201301,-0.5467028206001261,0.04531524267280291,2.125
2025-11-24T17:00:02.134615,-0.22040723974854937,-0.3474947850646398,-12.52684765227995,-0.8671487699439454,-0.5526877676543218,0.033881178136173744,2.134615
2025-11-24T17:00:02.144231,-0.22109516013606512,-0.3528941078520625,-12.555045809575553,-0.8635176183666352,-0.5584066647431415,0.02239575197901353,2.144231
2025-11-24T17:00:02.153846,-0.2217184297298888,-0.35806643336265664,-12.582092210897125,-0.859471944768942,-0.5638531562317726,0.010890402987860882,2.153846
2025-11-24T17:00:02.163462,-0.22225341630540024,-0.36301021424897645,-12.60794996686733,-0.8550375779429844,-0.5690197323598725,-0.0006041168098785445,2.163462
2025-11-24T17:00:02.173077,-0.22267574593239245,-0.36772497462581505,-12.6325824009688,-0.8502417075081755,-0.5738979853659713,-0.012058200176909029,2.173077
2025-11-24T17:00:02.182692,-0.2229608111302865,-0.3722112742183929,-12.655953014047311,-0.8451122904212712,-0.5784789691657319,-0.0234437931143491,2.182692
2025-11-24T17:00:02.192308,-0.22308434655551107,-0.37647058855348464,-12.67802542987012,-0.8396773570096802,-0.5827536340015674,-0.034734735860074126,2.192308
2025-11-24T17:00:02.201923,-0.22302306012595244,-0.3805050865022351,-12.698763313699477,-0.8339642364040234,-0.5867133010672647,-0.04590702355954393,2.201923
2025-11-24T17:00:02.211538,-0.22275529315736656,-0.3843173122331356,-12.718130274234072,-0.8279987346882354,-0.5903501426733866,-0.05693897728509781,2.211538
2025-11-24T17:00:02.221154,-0.22226167596045043,-0.3879098068761912,-12.73608976094318,-0.821804309554815,-0.5936576376318093,-0.06781132072554388,2.221154
2025-11-24T17:00:02.230769,-0.22152574736771266,-0.39128472036982737,-12.752604955748676,-0.8154012913158456,-0.5966309761743944,-0.07850716390710262,2.230769
2025-11-24T17:00:02.240385,-0.22053451449222503,-0.39444345949900134,-12.767638643461568,-0.8088062022933141,-0.5992673925456934,-0.08901190035865506,2.240385
2025-11-24T17:00:02.250000,-0.2192789356979873,-0.3973864021227795,-12.78115304583195,-0.8020312242619809,-0.6015664057783549,-0.0993130264822309,2.25
2025-11-24T17:00:02.259615,-0.21775430821275654,-0.40011269343917943,-12.79310962831755,-0.7950838543317278,-0.6035299509045632,-0.10939989211500956,2.259615
2025-11-24T17:00:02.269231,-0.2159605314811384,-0.4026201342452098,-12.803468926691744,-0.7879667731734503,-0.6051623867892888,-0.11926339081715165,2.269231
2025-11-24T17:00:02.278846,-0.21390220714498923,-0.40490517058176756,-12.812190467395041,-0.7806779295360323,-0.6064703740531613,-0.12889559850944737,2.278846
2025-11-24T17:00:02.288462,-0.21158853708778064,-0.4069629922606031,-12.819232852083264,-0.7732108247538296,-0.6074626253780865,-0.13828937097137875,2.288462
2025-11-24T17:00:02.298077,-0.2090329954166112,-0.40878773994548306,-12.824554045249782,-0.7655549604342958,-0.6081495400513975,-0.1474379151320023,2.298077
2025-11-24T17:00:02.307692,-0.20625277497569056,-0.41037280712297247,-12.828111862108791,-0.7576963936308686,-0.6085427454658333,-0.15633435430349518,2.307692
2025-11-24T17:00:02.317308,-0.2032680382328685,-0.4117112096152029,-12.829864621314506,-0.7496183337855272,-0.6086545787098016,-0.16497130975544408,2.317308
2025-11-24T17:00:02.326923,-0.20010102824643575,-0.41279598710591076,-12.829771912991172,-0.7413017209573535,-0.6084975481373113,-0.17334051896032773,2.326923
2025-11-24T17:00:02.336538,-0.1967751095278926,-0.4136206003322644,-12.827795432739338,-0.7327257430668065,-0.6080838160900714,-0.18143250751031192,2.336538
2025-11-24T17:00:02.346154,-0.19331380871745268,-0.41417929219211364,-12.823899834106165,-0.7238682725487412,-0.6074247392627277,-0.18923633033705406,2.346154
2025-11-24T17:00:02.355769,-0.1897399161401005,-0.41446738923461984,-12.818053546976493,-0.7147062242520278,-0.6065304943414832,-0.19673939781563496,2.355769
2025-11-24T17:00:02.365385,-0.1860746969416316,-0.41448153052254255,-12.810229500828747,-0.705215856686157,-0.6054098082739015,-0.20392740054947514,2.365385
2025-11-24T17:00:02.375000,-0.18233724645351235,-0.4142198200770922,-12.800405689796962,-0.6953730573207846,-0.6040698075157904,-0.2107843415808882,2.375
2025-11-24T17:00:02.384615,-0.1785440093766107,-0.41368190321000503,-12.78856552709517,-0.6851536638099358,-0.6025159953485862,-0.2172926777483569,2.384615
2025-11-24T17:00:02.394231,-0.17470846715224875,-0.4128689659465298,-12.774697956676777,-0.6745338703965983,-0.6007523562449909,-0.22343356531373035,2.394231
2025-11-24T17:00:02.403846,-0.17084098333199127,-0.411783652902859,-12.758797311794224,-0.6634907528107903,-0.5987815724280444,-0.22918720094913703,2.403846
2025-11-24T17:00:02.413462,-0.16694878583023964,-0.4104298958215953,-12.740862928544331,-0.6520029215838303,-0.5966053257929248,-0.23453324904383305,2.413462
2025-11-24T17:00:02.423077,-0.16303606178823105,-0.40881264738081163,-12.720898540277558,-0.6400512882691373,-0.5942246516396078,-0.23945134838334065,2.423077
2025-11-24T17:00:02.432692,-0.15910414467203363,-0.40693752532436056,-12.698911500618626,-0.6276199061438075,-0.5916403079617447,-0.24392168965870173,2.432692
2025-11-24T17:00:02.442308,-0.155151778180881,-0.4048103869102864,-12.67491190638858,-0.6146968316171662,-0.5888531237831583,-0.24792564478305004,2.442308
2025-11-24T17:00:02.451923,-0.1511754434581669,-0.40243686798688044,-12.648911706763284,-0.6012749471022463,-0.5858642939155002,-0.2514464122033888,2.451923
2025-11-24T17:00:02.461538,-0.14716973560714494,-0.39982193109101816,-12.620923883774188,-0.5873526873386916,-0.5826755967956587,-0.2544696288687684,2.461538
2025-11-24T17:00:02.471154,-0.1431277740095044,-0.396969468365841,-12.59096177442349,-0.5729346143291938,-0.5792895235416686,-0.2569838971307251,2.471154
2025-11-24T17:00:02.480769,-0.1390416289892125,-0.3938819944794995,-12.559038585024862,-0.5580317910642147,-0.5757093162599034,-0.2589811838359479,2.480769
2025-11-24T17:00:02.490385,-0.13490274663603205,-0.39056044595692396,-12.525167130011452,-0.5426619148846129,-0.5719389219778159,-0.2604570637634516,2.490385
2025-11-24T17:00:02.500000,-0.13070235542280972,-0.3870040863440114,-12.48935981004556,-0.5268491893341701,-0.5679828760903697,-0.26141079441922443,2.5
2025-11-24T17:00:02.509615,-0.126431840234645,-0.38321050920225014,-12.451628822218591,-0.5106239368385354,-0.5638461340666123,-0.2618452211098008,2.509615
2025-11-24T17:00:02.519231,-0.12208306821755323,-0.37917573307479807,-12.411986565253533,-0.4940219801651538,-0.5595338705760341,-0.2617665208765452,2.519231
2025-11-24T17:00:02.528846,-0.11764864826584225,-0.374894388195933,-12.370446172831931,-0.47708384205943566,-0.5550512613024637,-0.2611838041841506,2.528846
2025-11-24T17:00:02.538462,-0.113122107989484,-0.37035999795962044,-12.327022092985693,-0.45985382114848217,-0.5504032545774316,-0.26010860649036777,2.538462
2025-11-24T17:00:02.548077,-0.10849798105918321,-0.3655653571163184,-12.281730638035361,-0.4423789949850909,-0.5455943286014734,-0.25855431589254263,2.548077
2025-11-24T17:00:02.557692,-0.10377180950360036,-0.3605030037310291,-12.234590450971616,-0.4247081843644797,-0.5406282216701751,-0.25653559093671763,2.557692
2025-11-24T17:00:02.567308,-0.09894007354266743,-0.35516577325655063,-12.185622854969555,-0.40689089649695087,-0.535507625510494,-0.25406781844128207,2.567308
2025-11-24T17:00:02.576923,-0.09400006391444284,-0.3495474105881666,-12.134852061182961,-0.3889762542064992,-0.530233845430358,-0.2511666463962978,2.576923
2025-11-24T17:00:02.586538,-0.08894971196505012,-0.34364320125396497,-12.082305208516075,-0.3710119156598926,-0.5248064466287458,-0.2478476091812955,2.586538
2025-11-24T17:00:02.596154,-0.08378739612686434,-0.3374505710567614,-12.028012210577543,-0.3530429928213818,-0.5192229159620196,-0.244125847946105,2.596154
2025-11-24T17:00:02.605769,-0.07851175045073944,-0.330969601347703,-11.97200540052319,-0.3351109833466394,-0.513478371281275,-0.24001591955536222,2.605769
2025-11-24T17:00:02.615385,-0.07312150496455441,-0.32420341712414774,-11.914318998448572,-0.3172527371166786,-0.5075653479564295,-0.2355316814171368,2.615385
2025-11-24T17:00:02.625000,-0.06761538061422906,-0.31715842228465113,-11.854988474017482,-0.29949948531289367,-0.5014736866020454,-0.23068623552060336,2.625
2025-11-24T17:00:02.634615,-0.06199204446223333,-0.3098443729746858,-11.79404991930317,-0.2818759685623399,-0.49519053973378624,-0.22549191367715618,2.634615
2025-11-24T17:00:02.644231,-0.056250115438050044,-0.3022742921059935,-11.731539556441685,-0.26439971025865283,-0.48870050981688684,-0.21996028856630642,2.644231
2025-11-24T17:00:02.653846,-0.050388207233432965,-0.29446423615142353,-11.667493473846559,-0.2470804866692645,-0.48198592680214114,-0.21410220134742067,2.653846
2025-11-24T17:00:02.663462,-0.044405001082592606,-0.286432930216254,-11.60194763350812,-0.2299200423783835,-0.4750272690084639,-0.20792780374958278,2.663462
2025-11-24T17:00:02.673077,-0.038299348427020596,-0.2782012893696801,-11.534938147052369,-0.212912088322325,-0.4678037267733904,-0.20144661786154458,2.673077
2025-11-24T17:00:02.682692,-0.03207040689176936,-0.26979184396493017,-11.46650179310136,-0.1960426023762348,-0.4602939021575976,-0.19466761854540865,2.682692
2025-11-24T17:00:02.692308,-0.025717813738593664,-0.2612280862948482,-11.396676739966768,-0.17929042993821395,-0.45247662753128154,-0.18759934105262205,2.692308
2025-11-24T17:00:02.701923,-0.01924189986208959,-0.25253375854059124,-11.3255034310843,-0.16262815748222761,-0.44433187161012194,-0.18025001203098365,2.701923
2025-11-24T17:00:02.711538,-0.012643941591596309,-0.24373210965663336,-11.253025573401985,-0.146023213503866,-0.4358416885374998,-0.1726276996344749,2.711538
2025-11-24T17:00:02.721154,-0.005926435613914125,-0.23484515948091447,-11.179291146354556,-0.12943914349347888,-0.42699115850609437,-0.16474047984036558,2.721154
2025-11-24T17:00:02.730769,0.0009066313405348506,-0.22589301561304637,-11.1043533363291,-0.11283700457352247,-0.4177692671923342,-0.15659661895974308,2.730769
2025-11-24T17:00:02.740385,0.00784955491209507,-0.21689328668099225,-11.028271304463432,-0.09617682565343583,-0.40816967325245046,-0.1482047726819419,2.740385
2025-11-24T17:00:02.750000,0.014894763536242084,-0.20786062390473892,-10.951110711603377,-0.0794190807403145,-0.3981913166595692,-0.13957419798255144,2.75
2025-11-24T17:00:02.759615,0.022032772572348633,-0.19880640642354747,-10.872943953096287,-0.06252612819938484,-0.38783882654755736,-0.13071496711108924,2.759615
2025-11-24T17:00:02.769231,0.029252252873365348,-0.18973857190396776,-10.793850095371026,-0.04546357502118668,-0.37712269664595394,-0.12163816586366415,2.769231
2025-11-24T17:00:02.778846,0.036540210400463395,-0.18066158653504796,-10.713914543466899,-0.02820152985084038,-0.36605920830787103,-0.1123560550127399,2.778846
2025-11-24T17:00:02.788462,0.043882262963876206,-0.17157654653611934,-10.633228489880702,-0.010715712692874359,-0.35467009445857794,-0.10288217573545347,2.788462
2025-11-24T17:00:02.798077,0.05126299376184779,-0.16248140354575222,-10.551888200307591,0.007011605280018897,-0.34298195466366704,-0.09323138560590993,2.798077
2025-11-24T17:00:02.807692,0.058666358469655476,-0.15337130593722592,-10.469994194630994,0.024990852159286883,-0.33102545306821657,-0.08341981910170579,2.807692
2025-11-24T17:00:02.817308,0.06607612063534746,-0.14423904478868899,-10.387650390007892,0.04322461124554404,-0.31883435174851615,-0.07346477522459426,2.817308
2025-11-24T17:00:02.826923,0.07347628725769234,-0.1350755861002182,-10.304963278749584,0.06170729531284934,-0.30644444452099834,-0.06338454338507603,2.826923
2025-11-24T17:00:02.836538,0.08085151520809723,-0.12587066254234947,-10.222041204429415,0.08042505335277872,-0.2938924582252801,-0.05319818351585405,2.836538
2025-11-24T17:00:02.846154,0.08818746281046833,-0.11661339359836666,-10.138993773931237,0.09935592746404336,-0.28121498203796647,-0.042925276008549305,2.846154
2025-11-24T17:00:02.855769,0.09547106800987257,-0.10729290630990723,-10.055931411114901,0.11847027613920574,-0.268447473146255,-0.03258565429004757,2.855769
2025-11-24T17:00:02.865385,0.10269074157229534,-0.0978989385942167,-9.972965031003174,0.13773146757308166,-0.25562337251594897,-0.02219913073545761,2.865385
2025-11-24T17:00:02.875000,0.10983646913067634,-0.08842241599342218,-9.890205795360824,0.15709682617593285,-0.24277335195762711,-0.011785226278822043,2.875
2025-11-24T17:00:02.884615,0.11689981950857639,-0.07885599410162755,-9.80776489834434,0.17651879741796286,-0.22992470594133396,-0.001362915846914985,2.884615
2025-11-24T17:00:02.894231,0.12387385949379104,-0.06919455411359676,-9.72575332620745,0.19594628632078592,-0.21710089681130504,0.009049595496002004,2.894231
2025-11-24T17:00:02.903846,0.13075298059039073,-0.05943563474916432,-9.644281544632952,0.2153261214776403,-0.20432125546287278,0.019435050023541664,2.903846
2025-11-24T17:00:02.913462,0.13753265471754791,-0.04957978419122498,-9.56345908957079,0.23460459500401923,-0.1916008294419671,0.02977725587674373,2.913462
2025-11-24T17:00:02.923077,0.14420915045896301,-0.03963081957624945,-9.483394058083745,0.25372902575215855,-0.17895036081686752,0.04006114020090409,2.923077
2025-11-24T17:00:02.932692,0.15077924960709427,-0.029595986473791202,-9.40419250333473,0.272649286991754,-0.16637637191310653,0.05027273787988258,2.932692
2025-11-24T17:00:02.942308,0.1572399981991209,-0.01948601425757372,-9.325957738853491,0.29131923298599244,-0.15388133925877084,0.0603991239216734,2.942308
2025-11-24T17:00:02.951923,0.16358851092477622,-0.009315063438906262,-9.248789565451215,0.30969795584652376,-0.14146394404119197,0.07042830188024671,2.951923
2025-11-24T17:00:02.961538,0.16982183322742045,0.0008994410713576284,-9.172783451080951,0.3277508067748631,-0.12911939906753295,0.08034906067823384,2.961538
2025-11-24T17:00:02.971154,0.17593685705277773,0.011137097431426992,-9.098029709371774,0.34545012527464797,-0.11683986107805445,0.09015080865132694,2.971154
2025-11-24T17:00:02.980769,0.18193028211641796,0.021374938192797427,-9.024612730241351,0.36277563842662247,-0.10461493438661501,0.09982338924707829,2.980769
2025-11-24T17:00:02.990385,0.18779861238354867,0.0315879606534779,-8.95261031824,0.37971451943711737,-0.09243225625435049,0.1093568807175869,2.990385
2025-11-24T17:00:03,0.19353817705965112,0.04174975955301793,-8.882093194251585,0.39626112473104397,-0.08027813655384203,0.11874138415210399,3.0
2025-11-24T17:00:03.009615,0.19914516642531227,0.051833231300402315,-8.813124711195623,0.41241645530400234,-0.06813821564044502,0.127966808853441,3.009615
2025-11-24T17:00:03.019231,0.2046156745199114,0.06181130691534762,-8.745760817036237,0.4281874061932544,-0.055998106600237546,0.13702266770674082,3.019231
2025-11-24T17:00:03.028846,0.20994574312758735,0.07165766656375987,-8.680050265986731,0.44358587418062456,-0.043843994689764604,0.14589789542288958,3.028846
2025-11-24T17:00:03.038462,0.21513140516975138,0.0813473946004492,-8.616035040872653,0.4586277881507748,-0.031663173167979626,0.15458069955964437,3.038462
2025-11-24T17:00:03.048077,0.22016873009786506,0.09085754717581451,-8.553750921551366,0.4733321145365647,-0.019444502210773422,0.16305844954723445,3.048077
2025-11-24T17:00:03.057692,0.22505387764326681,0.10016761765606097,-8.493228124661687,0.48771987847632486,-0.0071787874116866915,0.17131760446793617,3.057692
2025-11-24T17:00:03.067308,0.22978316670621024,0.10925989319645249,-8.434491948212028,0.5018132313859556,0.005140916828039492,0.17934367783561792,3.067308
2025-11-24T17:00:03.076923,0.23435316197839445,0.11811969926735069,-8.377563376387142,0.5156345862620209,0.017519069108507687,0.1871212375999128,3.076923
2025-11-24T17:00:03.086538,0.2387607746970601,0.12673553214495817,-8.322459628981884,0.529205834138646,0.029957457055322795,0.19463394091597372,3.086538
2025-11-24T17:00:03.096154,0.2430033701230872,0.1350990857399229,-8.26919466561474,0.5425476519695933,0.04245505818317178,0.20186460473359913,3.096154
2025-11-24T17:00:03.105769,0.24707887391386738,0.1432051873889886,-8.217779667880738,0.5556789137689093,0.055007941569986535,0.2087953148181231,3.105769
2025-11-24T17:00:03.115385,0.2509858690397257,0.15105166234929254,-8.168223522856392,0.5686162176491144,0.06760921508188525,0.21540757626228355,3.115385
2025-11-24T17:00:03.125000,0.2547236718222475,0.15863914505507815,-8.12053332508414,0.5813735356346083,0.08024903205595303,0.22168250529488365,3.125
2025-11-24T17:00:03.134615,0.2582923730068271,0.1659708485365583,-8.074714901979055,0.593961981117919,0.09291467741892573,0.22760105514907114,3.134615
2025-11-24T17:00:03.144231,0.2616928320389238,0.17305229710309566,-8.030773346074213,0.6063896773930143,0.10559075334894583,0.23314426192583543,3.144231
2025-11-24T17:00:03.153846,0.26492661981825544,0.17989102504082316,-7.988713512247461,0.6186617061601085,0.11825947753549604,0.23829349413113166,3.153846
2025-11-24T17:00:03.163462,0.2679959130539625,0.18649624486350874,-7.948540424149238,0.6307801171870361,0.1309010956567059,0.2430306932397809,3.163462
2025-11-24T17:00:03.173077,0.2709033487212562,0.19287848889956025,-7.910259542212408,0.6427439853449081,0.14349440000222954,0.2473385997939129,3.173077
2025-11-24T17:00:03.182692,0.27365184970085554,0.19904922579792386,-7.87387687294983,0.6545495055241383,0.15601734177176002,0.251200965136602,3.182692
2025-11-24T17:00:03.192308,0.2762444332967134,0.20502045213995065,-7.839398931288878,0.6661901177399906,0.16844772233039068,0.254602749952528,3.192308
2025-11-24T17:00:03.201923,0.2786840131187085,0.21080426269629698,-7.806832586521926,0.6776566549588184,0.18076394289161746,0.25753030928518633,3.201923
2025-11-24T17:00:03.211538,0.2809732018624714,0.21641240907947198,-7.776184817453235,0.6889375087703078,0.19294578132847354,0.25997156191683135,3.211538
2025-11-24T17:00:03.221154,0.28311411955717264,0.22185586107279542,-7.7474623798216635,0.7000188156017003,0.20497515286955323,0.261916138995507,3.221154
2025-11-24T17:00:03.230769,0.28510821135570563,0.2271443878248943,-7.720671368450462,0.7108846748021092,0.21683680387386292,0.2633555030880238,3.230769
2025-11-24T17:00:03.240385,0.28695608126248917,0.2322861800241276,-7.695816652426657,0.7215174118788241,0.22851888878142027,0.26428302944966225,3.240385
2025-11-24T17:00:03.250000,0.28865735130454395,0.23728753711858291,-7.672901174565192,0.7318978926444262,0.24001338940884093,0.2646940491973332,3.25
2025-11-24T17:00:03.259615,0.2902105575510364,0.24215264012397547,-7.651925130619308,0.7420058826038298,0.25131634914229284,0.26458586437143305,3.259615
2025-11-24T17:00:03.269231,0.2916130944115666,0.24688342035283814,-7.6328850733729565,0.7518204382655276,0.2624279096055125,0.26395774994710053,3.269231
2025-11-24T17:00:03.278846,0.292861216221206,0.2514795246264373,-7.615773013887885,0.7613203156609142,0.273352152814353,0.262810955284505,3.278846
2025-11-24T17:00:03.288462,0.29395009888044393,0.25593837352788773,-7.600575605156071,0.7704843837803399,0.28409676488700214,0.26114870981994603,3.288462
2025-11-24T17:00:03.298077,0.29487395508606423,0.2602553086951478,-7.587273484826466,0.779292034797365,0.2946725463554222,0.25897622811135523,3.298077
2025-11-24T17:00:03.307692,0.2956261901646514,0.26442382353233407,-7.57584083109114,0.787723587971972,0.3050928009884705,0.25630070076241,3.307692
2025-11-24T17:00:03.317308,0.29619958716493744,0.268435868035767,-7.566245167321929,0.795760687173506,0.31537264064026826,0.25313125412166837,3.317308
2025-11-24T17:00:03.326923,0.29658651716979656,0.27228221396171776,-7.558447445834194,0.8033866896514351,0.3255282447179304,0.24947886551759427,3.326923
2025-11-24T17:00:03.336538,0.2967791749575519,0.27595286267647173,-7.552402440493823,0.8105870368573803,0.33557610757167905,0.24535623073001764,3.336538
2025-11-24T17:00:03.346154,0.29676983577750143,0.2794374757079264,-7.548059467175546,0.817349591316878,0.3455322994989058,0.24077759153400316,3.346154
2025-11-24T17:00:03.355769,0.29655111969799763,0.2827258073029919,-7.545363425008153,0.8236649203433158,0.3554117625753329,0.23575853802599295,3.355769
2025-11-24T17:00:03.365385,0.2961162442567446,0.2858081187308145,-7.544256116693674,0.829526509051486,0.36522766191100103,0.2303157996904209,3.365385
2025-11-24T17:00:03.375000,0.2954592487099731,0.28867555595422595,-7.544677773776696,0.8349308908562707,0.374990813246693,0.2244670317856389,3.375
2025-11-24T17:00:03.384615,0.29457518079332085,0.291320476476785,-7.5465686880634015,0.839877689556821,0.3847092065427061,0.21823059585225613,3.384615
2025-11-24T17:00:03.394231,0.2934602434437637,0.29373671721780775,-7.549870833477142,0.8443695694219381,0.39438764129955056,0.21162533183885793,3.394231
2025-11-24T17:00:03.403846,0.2921119022053719,0.2959198006454957,-7.554529355595687,0.8484120905361925,0.4040274825553525,0.2046703245303421,3.403846
2025-11-24T17:00:03.413462,0.2905289550832753,0.2978670794383876,-7.560493814419097,0.8520134722585296,0.4136265369647833,0.19738467232440418,3.413462
2025-11-24T17:00:03.423077,0.2887115662421701,0.2995778224894813,-7.567719090856988,0.8551842803048965,0.4231790379111197,0.18978726813267038,3.423077
2025-11-24T17:00:03.432692,0.2866612641679413,0.30105324948364937,-7.576165901950876,0.8579370674374065,0.43267572288419215,0.18189660233521115,3.432692
2025-11-24T17:00:03.442308,0.2843809045533681,0.30229652650979694,-7.585800903495323,0.8602860043517775,0.4421039909810252,0.1737305980688285,3.442308
2025-11-24T17:00:03.451923,0.28187459758391115,0.303312737709866,-7.596596385044877,0.8622465294423579,0.4514481410818515,0.16530648795067127,3.451923
2025-11-24T17:00:03.461538,0.2791475987123049,0.3041088449977793,-7.608529580328767,0.8638350266919378,0.46068970197479764,0.15664073689092933,3.461538
2025-11-24T17:00:03.471154,0.27620616347954774,0.30469363925425286,-7.6215816273260115,0.8650685202293904,0.4698078655406429,0.14774900862383322,3.471154
2025-11-24T17:00:03.480769,0.27305737084388376,0.30507767522725154,-7.635736221080263,0.8659643609733678,0.4787800219835295,0.13864616672220628,3.480769
2025-11-24T17:00:03.490385,0.2697089244047549,0.30527317346531785,-7.650978016638119,0.8665398794663148,0.48758237780171076,0.12934629766291253,3.490385
2025-11-24T17:00:03.500000,0.2661689471989695,0.3052938695600716,-7.667290864410011,0.8668119894527747,0.4961906205523339,0.11986274552923755,3.5
2025-11-24T17:00:03.509615,0.26244579353421493,0.30515479440563137,-7.684655991925997,0.8667967427670307,0.5045805850449757,0.11020815336100949,3.509615
2025-11-24T17:00:03.519231,0.2585479060728494,0.3048719775866901,-7.703050272199832,0.8665088488060714,0.5127288750215233,0.10039451214617988,3.519231
2025-11-24T17:00:03.528846,0.2544837424674464,0.30446207730161506,-7.7224447252567625,0.8659611785057395,0.5206134015491296,0.090433223216432,3.528846
2025-11-24T17:00:03.538462,0.2502617836031057,0.3039419517668678,-7.742803378729474,0.8651642765908657,0.5282138126215441,0.08033518210201035,3.538462
2025-11-24T17:00:03.548077,0.24589062025450426,0.3033281953356352,-7.764082572676192,0.8641259084870764,0.5355118057884777,0.07011089056264118,3.548077
2025-11-24T17:00:03.557692,0.24137910111589597,0.30263666541698125,-7.786230748719234,0.862850668338595,0.5424913332052743,0.059770598683168655,3.557692
2025-11-24T17:00:03.567308,0.23673651475475702,0.3018820250889347,-7.809188726487292,0.8613396730744063,0.5491387211437654,0.049324473136804596,3.567308
2025-11-24T17:00:03.576923,0.23197277268604924,0.30107732418965666,-7.832890443007756,0.8595903674606977,0.5554427297627303,0.03878278463704807,3.576923
2025-11-24T17:00:03.586538,0.2270985610267858,0.30023364010230374,-7.85726410828973,0.8575964650481407,0.5613945734454798,0.02815610822477636,3.586538
2025-11-24T17:00:03.596154,0.22212543280205893,0.2993597974104821,-7.882233709285068,0.8553480432194731,0.5669879115279496,0.017455531128485864,3.596154
2025-11-24T17:00:03.605769,0.21706582061361246,0.29846218107563594,-7.9077207758948695,0.8528317956063899,0.5722188105811764,0.006692861130814347,3.605769
2025-11-24T17:00:03.615385,0.21193295842807186,0.29754465009103775,-7.933646309659909,0.8500314305576231,0.577085676729057,-0.004119175130353748,3.615385
2025-11-24T17:00:03.625000,0.2067407083298617,0.2966085495910401,-7.959932768322741,0.8469281976403115,0.581589158720093,-0.014966755591164206,3.625
2025-11-24T17:00:03.634615,0.20150329175578127,0.29565281228423296,-7.98650599367995,0.8435015214945927,0.5857320262291144,-0.025834817161401406,3.634615
2025-11-24T17:00:03.644231,0.1962349289747219,0.29467413741450343,-8.013296962646049,0.8397297154537771,0.5895190298746014,-0.03670694804386556,3.644231
2025-11-24T17:00:03.653846,0.19094940021220896,0.29366723803830885,-8.040243237687367,0.8355907358172505,0.592956747349012,-0.04756532623347805,3.653846
2025-11-24T17:00:03.663462,0.18565955624212638,0.29262515316917637,-8.067290008616318,0.8310629299087403,0.5960534149083163,-0.05839071604290839,3.663462
2025-11-24T17:00:03.673077,0.18037681973619515,0.29153962610432715,-8.094390662982915,0.8261257353497318,0.5988187400842523,-0.06916253565828169,3.673077
2025-11-24T17:00:03.682692,0.17511072449515983,0.2904015507841907,-8.121506883689692,0.8207603044708868,0.6012636934583623,-0.07985900422815154,3.682692
2025-11-24T17:00:03.692308,0.1698685349912942,0.28920148399537826,-8.1486083242871,0.8149500481239522,0.6034002823391845,-0.09045736775162332,3.692308
2025-11-24T17:00:03.701923,0.16465497711721586,0.2879302138931919,-8.175671940495176,0.8086811076827614,0.6052413110834907,-0.10093419220582799,3.701923
2025-11-24T17:00:03.711538,0.15947209936428144,0.28657936560390745,-8.202681063095904,0.8019427684427581,0.6068001292772587,-0.1112657022031016,3.711538
2025-11-24T17:00:03.721154,0.15431927478265825,0.28514201334143385,-8.229624293003212,0.7947278229332658,0.6080903651281595,-0.12142813548774552,3.721154
2025-11-24T17:00:03.730769,0.14919334603036483,0.28361325820861677,-8.256494296432564,0.7870328821681466,0.6091256429085566,-0.13139807994799627,3.730769
2025-11-24T17:00:03.740385,0.14408890612150496,0.2819907265743563,-8.283286580490936,0.7788586205806507,0.6099192890558283,-0.14115276230053023,3.740385
2025-11-24T17:00:03.750000,0.13899869633864695,0.28027494870792263,-8.309998327053703,0.7702099299924792,0.61048403697927,-0.15067026570706976,3.75
2025-11-24T17:00:03.759615,0.13391409310781777,0.278469588181558,-8.33662734570974,0.7610959527026736,0.6108317435458295,-0.1599296650734835,3.759615
2025-11-24T17:00:03.769231,0.12882565117535144,0.276581503016748,-8.36317117993391,0.75152996578983,0.6109731298691807,-0.1689110813457921,3.769231
2025-11-24T17:00:03.778846,0.1237236721509297,0.27462062706630463,-8.389626378517171,0.7415290970918309,0.6109175544496633,-0.17759566736297708,3.778846
2025-11-24T17:00:03.788462,0.11859877178910543,0.2725996681623361,-8.415987937261422,0.7311138655405076,0.610672819243356,-0.18596554436109425,3.788462
2025-11-24T17:00:03.798077,0.1134424216765374,0.27053363201357183,-8.44224892494407,0.7203075538444347,0.6102450033102216,-0.19400370759870886,3.798077
2025-11-24T17:00:03.807692,0.1082474407715287,0.26843919555160123,-8.46840032043407,0.7091354391838512,0.6096383185774878,-0.20169391428985153,3.807692
2025-11-24T17:00:03.817308,0.10300841313394483,0.2663339637811036,-8.494431086381631,0.6976239232891921,0.6088549883748038,-0.20902056351254114,3.817308
2025-11-24T17:00:03.826923,0.09772201342349661,0.264235646976852,-8.520328483330271,0.685799612135404,0.6078951567671349,-0.21596857955679585,3.826923
2025-11-24T17:00:03.836538,0.09238723046674692,0.2621611939011037,-8.546078598841035,0.6736883974696709,0.6067568383325948,-0.22252331415768348,3.836538
2025-11-24T17:00:03.846154,0.08700548740177769,0.26012591769288196,-8.571667043662215,0.6613145905685028,0.6054359124461122,-0.22867048307178042,3.846154
2025-11-24T17:00:03.855769,0.08158066200877857,0.2581426568299498,-8.597079754773196,0.6487001535726149,0.6039261596668688,-0.23439614587251018,3.855769
2025-11-24T17:00:03.865385,0.07611901364280954,0.25622102108198935,-8.622303840392915,0.6358640643365104,0.6022193373461526,-0.23968672871438332,3.865385
2025-11-24T17:00:03.875000,0.07062902504120891,0.2543667767448019,-8.64732840113131,0.6228218390396981,0.6003052976906738,-0.244529085168606,3.875
2025-11-24T17:00:03.884615,0.06512116805875523,0.25258142458177507,-8.672145261657402,0.6095852275236147,0.5981721596402105,-0.24891059273545854,3.884615
2025-11-24T17:00:03.894231,0.05960760243225777,0.2508620172434567,-8.696749550074406,0.5961620913479595,0.5958065507451886,-0.25281928800769926,3.894231
2025-11-24T17:00:03.903846,0.05410181755253597,0.24920124834854282,-8.721140073081488,0.5825564710727659,0.5931939340510926,-0.25624404482950214,3.903846
2025-11-24T17:00:03.913462,0.04861822918010532,0.24758782180088995,-8.74531945635499,0.568768842309894,0.5903190285420662,-0.2591747935463067,3.913462
2025-11-24T17:00:03.923077,0.04317174445411763,0.24600708119792705,-8.76929404635719,0.554796546564017,0.5871663223454648,-0.26160276802654575,3.923077
2025-11-24T17:00:03.932692,0.03777730882770955,0.24444185247788636,-8.793073593694679,0.5406343662715629,0.5837206675279848,-0.26352075738453623,3.932692
2025-11-24T17:00:03.942308,0.032449449174895006,0.24287343389129892,-8.816670754338219,0.5262752034325381,0.5799679345727374,-0.2649233370669022,3.942308
2025-11-24T17:00:03.951923,0.027201829349534096,0.2412826583343015,-8.840100453497731,0.5117108229341265,0.5758956935923555,-0.26580705991275877,3.951923
2025-11-24T17:00:03.961538,0.022046837782474488,0.23965095403567338,-8.863379161155969,0.49693262792008663,0.5714938792292661,-0.2661705981400903,3.961538
2025-11-24T17:00:03.971154,0.01699523120941701,0.23796133824915125,-8.886524133316199,0.4819324355194505,0.5667553899785379,-0.2660148365720684,3.971154
2025-11-24T17:00:03.980769,0.012055862920776397,0.2361992900688978,-8.90955267979318,0.46670321663905784,0.5616765732806814,-0.2653429218375549,3.980769
2025-11-24T17:00:03.990385,0.007235522536219557,0.2343534581986138,-8.93248152065526,0.45123975968884494,0.5562575557511358,-0.2641602709089989,3.990385
2025-11-24T17:00:04,0.0025389017948370097,0.23241616778429344,-8.955326282743647,0.43553921938574164,0.550502390368329,-0.2624745371828808,4.0
2025-11-24T17:00:04.009615,-0.0020313199646879035,0.23038370127574317,-8.97810116979399,0.41960151838950543,0.54441900522227,-0.26029552711800574,4.009615
2025-11-24T17:00:04.019231,-0.006474295945506902,0.22825634322254215,-9.000818823828014,0.40342957848811284,0.5380189504515105,-0.25763505886781246,4.019231
2025-11-24T17:00:04.028846,-0.010790772295944042,0.22603819520939455,-9.023490381445209,0.38702936577558206,0.5313169524263192,-0.25450675745163565,4.028846
2025-11-24T17:00:04.038462,-0.014982822470788507,0.22373678147848897,-9.046125710103574,0.3704097418975129,0.52433029733624,-0.2509257873354406,4.038462
2025-11-24T17:00:04.048077,-0.019053582551543248,0.2213624765202999,-9.068733787487556,0.3535821266212864,0.5170780802166359,-0.24690853092786233,4.048077
2025-11-24T17:00:04.057692,-0.023007008410862922,0.21892779305293336,-9.09132316809253,0.3365599966599821,0.5095803695561448,-0.24247222833037482,4.057692
2025-11-24T17:00:04.067308,-0.026847673256712983,0.21644657370222048,-9.113902469408412,0.3193582650457052,0.5018573474567906,-0.23763459690053684,4.067308
2025-11-24T17:00:04.076923,-0.030580622131291046,0.21393313377284717,-9.136480812388255,0.30199259916143373,0.49392848511698784,-0.23241344755506513,4.076923
2025-11-24T17:00:04.086538,-0.034211293115561946,0.21140140564147814,-9.159068174417458,0.28447874357388425,0.4858118033268673,-0.22682631103737327,4.086538
2025-11-24T17:00:04.096154,-0.037745502901113386,0.20886413541876428,-9.181675649042853,0.26683191373088794,0.47752325375125754,-0.22089008608622457,4.096154
2025-11-24T17:00:04.105769,-0.0411894814695199,0.20633217727284192,-9.204315634007749,0.24906631412568903,0.4690762442583087,-0.21462072389818743,4.105769
2025-11-24T17:00:04.115385,-0.044549932663442426,0.20381392032998158,-9.227001978121935,0.23119481166299988,0.46048132157702737,-0.20803296692623846,4.115385
2025-11-24T17:00:04.125000,-0.04783409801036897,0.2013148707377734,-9.249750115880646,0.21322877040732183,0.4517460160276675,-0.20114016139260188,4.125
2025-11-24T17:00:04.134615,-0.05104980808659671,0.19883740098991087,-9.272577213712594,0.19517803536220096,0.442874844940489,-0.19395415938336455,4.134615
2025-11-24T17:00:04.144231,-0.05420551277263695,0.19638066985792393,-9.29550234203684,0.17705104202804312,0.43386946424590866,-0.1864853179457229,4.144231
2025-11-24T17:00:04.153846,-0.057310285005460954,0.19394070549126458,-9.318546672955037,0.15885502290314826,0.4247289530957552,-0.17874259257395986,4.153846
2025-11-24T17:00:04.163462,-0.06037379263070986,0.19151062997209115,-9.341733690202503,0.14059628069574098,0.41545021370504687,-0.17073371521463793,4.163462
2025-11-24T17:00:04.173077,-0.06340623190756749,0.18908099069595943,-9.365089389359762,0.12228050145373918,0.4060284653805669,-0.16246544407240834,4.173077
2025-11-24T17:00:04.182692,-0.0664182154673635,0.186640159470241,-9.388642438847866,0.10391308736565912,0.396457807640752,-0.15394387214003863,4.182692
2025-11-24T17:00:04.192308,-0.0694206074001791,0.18417476651231843,-9.41242426309915,0.08549949326442653,0.3867318251151141,-0.14517478026743977,4.192308
2025-11-24T17:00:04.201923,-0.07242429924341391,0.18167014939508527,-9.436469003390979,0.06704554827952425,0.37684420751658454,-0.13616401720173363,4.201923
2025-11-24T17:00:04.211538,-0.07543992436970874,0.17911080952710126,-9.460813316826515,0.048557735821935996,0.36678935859516243,-0.12691788493342218,4.211538
2025-11-24T17:00:04.221154,-0.07847751520317524,0.17648087588620462,-9.485495990594867,0.03004339885714878,0.35656296632585954,-0.11744350579056123,4.221154
2025-11-24T17:00:04.230769,-0.08154611647903424,0.17376457636287454,-9.510557368806598,0.011510841722616764,0.3461625041773277,-0.10774914958446465,4.230769
2025-11-24T17:00:04.240385,-0.08465337678066036,0.17094671364036584,-9.536038602626622,-0.007030684788861082,0.3355876326825895,-0.0978445042180905,4.240385
2025-11-24T17:00:04.250000,-0.08780514906777874,0.16801313819498556,-9.561980737474302,-0.02557110973143423,0.3248404726621619,-0.0877408799417663,4.25
2025-11-24T17:00:04.259615,-0.09100513702922373,0.16495120670572508,-9.588423649904035,-0.04409975992585698,0.3139257275051381,-0.07745134389959796,4.259615
2025-11-24T17:00:04.269231,-0.0942546244958234,0.16175020887073469,-9.615404851978509,-0.06260564052202873,0.3028506435980388,-0.06699078609328567,4.269231
2025-11-24T17:00:04.278846,-0.09755231776376733,0.1584017394538334,-9.642958198800399,-0.08107774390330225,0.2916248143848965,-0.056375920202345525,4.278846
2025-11-24T17:00:04.288462,-0.10089431651648989,0.15489998845840347,-9.671112560921483,-0.09950535133808121,0.2802598502750571,-0.045625223812597177,4.288462
2025-11-24T17:00:04.298077,-0.10427421189268755,0.15124192432059444,-9.699890542982448,-0.1178782948724808,0.268768948432204,-0.03475882345033902,4.298077
2025-11-24T17:00:04.307692,-0.10768329581470269,0.14742735318304703,-9.729307332538664,-0.13618715354929722,0.2571663995460228,-0.02379833138403496,4.307692
2025-11-24T17:00:04.317308,-0.1111108586651134,0.14345884788141705,-9.759369755189066,-0.1544233663668162,0.2454670626469566,-0.012766643995711825,4.317308
2025-11-24T17:00:04.326923,-0.11454455284803809,0.13934154909789281,-9.790075606587232,-0.17257925271475724,0.23368582878013333,-0.0016877136126098734,4.326923
2025-11-24T17:00:04.336538,-0.11797080363223196,0.13508284755932468,-9.82141332794804,-0.19064793869404859,0.2218370877681871,0.009413696715015914,4.336538
2025-11-24T17:00:04.346154,-0.12137525203531274,0.13069196229663255,-9.853362077713307,-0.20862319507379673,0.20993421337953388,0.020512273187299767,4.346154
2025-11-24T17:00:04.355769,-0.12474321572686903,0.12617943672763593,-9.885892223116286,-0.22649919964466383,0.19798908741722637,0.03158243022872919,4.355769
2025-11-24T17:00:04.365385,-0.12806015252060232,0.12155657982928485,-9.918966239291699,-0.2442702426905513,0.18601168605841611,0.042598612514047854,4.365385
2025-11-24T17:00:04.375000,-0.13131210765804147,0.11683488108430487,-9.95253997099669,-0.26193039922629663,0.17400974926872123,0.05353561647052735,4.375
2025-11-24T17:00:04.384615,-0.13448612369258356,0.11202542391289805,-9.986564187586794,-0.27947319710625995,0.1619885474196875,0.06436891729048862,4.384615
2025-11-24T17:00:04.394231,-0.13757059409068717,0.10713831573513714,-10.020986347924781,-0.2968913165289011,0.14995075084504703,0.07507497917331356,4.394231
2025-11-24T17:00:04.403846,-0.14055554938339296,0.10218214966122684,-10.055752490103993,-0.3141763592201042,0.13789640058997588,0.08563152207935304,4.403846
2025-11-24T17:00:04.413462,-0.14343287363669288,0.09716351554063771,-10.09080916564686,-0.33131871792747886,0.12582297402968967,0.09601771813332667,4.413462
2025-11-24T17:00:04.423077,-0.14619645313003624,0.0920865820448446,-10.126105340610383,-0.3483075588484044,0.11372553872313994,0.10621429598168915,4.423077
2025-11-24T17:00:04.432692,-0.14884225650656716,0.08695277150983312,-10.161594187607005,-0.3651309100243203,0.1015969930609462,0.11620354230072076,4.432692
2025-11-24T17:00:04.442308,-0.15136834131525165,0.08176054606959796,-10.197234699473208,-0.38177583663423453,0.08942840104799588,0.12596920442562223,4.442308
2025-11-24T17:00:04.451923,-0.1537747838706582,0.07650531934665196,-10.232993066503823,-0.3982286815664567,0.07720943295951235,0.13549631287235606,4.451923
2025-11-24T17:00:04.461538,-0.1560635407212642,0.07117950183841021,-10.268843769011534,-0.414475352758038,0.0649289159648894,0.1447709526320542,4.461538
2025-11-24T17:00:04.471154,-0.15823826394786528,0.06577268049829814,-10.304770345107414,-0.43050164328847396,0.052575481480811155,0.15378001419965584,4.471154
2025-11-24T17:00:04.480769,-0.160304097698129,0.06027192811577927,-10.34076580545441,-0.44629357406112735,0.040138279463970465,0.16251094991533904,4.480769
2025-11-24T17:00:04.490385,-0.16226747535577749,0.05466223803072104,-10.37683268407286,-0.4618377499486568,0.027607721389418548,0.17095155223435668,4.490385
2025-11-24T17:00:04.500000,-0.1641359220569203,0.048927079491323563,-10.412982731493475,-0.4771217153742678,0.014976212172975999,0.1790897624342946,4.5
2025-11-24T17:00:04.509615,-0.16591785543409204,0.04304906221586886,-10.449236268825576,-0.4921342849885423,0.002238831745636231,0.1869135142319931,4.509615
2025-11-24T17:00:04.519231,-0.16762237229584181,0.037010686239904535,-10.485621231640817,-0.5068658165700216,-0.010606073683092557,0.19441061743271335,4.519231
2025-11-24T17:00:04.528846,-0.16925900939932176,0.030795141453496107,-10.52217194737753,-0.5213083951689801,-0.023556431084667748,0.20156868918165685,4.528846
2025-11-24T17:00:04.538462,-0.1708374725562777,0.02438711438466904,-10.55892770963332,-0.5354559117408678,-0.036606147460829026,0.208375140105577,4.538462
2025-11-24T17:00:04.548077,-0.17236734106728865,0.0177735573226687,-10.595931227724996,-0.5493040390369519,-0.04974501062871855,0.21481721696687853,4.548077
2025-11-24T17:00:04.557692,-0.17385777021018164,0.010944376378199774,-10.63322702753903,-0.5628501224650713,-0.06295879537063767,0.22088209405080964,4.557692
2025-11-24T17:00:04.567308,-0.1753172240637285,0.0038930014858109562,-10.670859857851326,-0.5760930092414979,-0.07622956918408932,0.22655699813390265,4.567308
2025-11-24T17:00:04.576923,-0.17675326732387278,-0.0033831877782067245,-10.708873129037372,-0.5890328371156607,-0.08953617578194918,0.23182935182307246,4.576923
2025-11-24T17:00:04.586538,-0.178172429253367,-0.01088259403197475,-10.747307396856128,-0.6016707985863761,-0.10285486252354,0.2366869265285943,4.586538
2025-11-24T17:00:04.596154,-0.17958013325779032,-0.018599293562472485,-10.786198909811455,-0.6140088924371101,-0.11616001114941737,0.24111800369447112,4.596154
2025-11-24T17:00:04.605769,-0.18098067137457327,-0.026523081140003544,-10.825578256518666,-0.6260496742709425,-0.1294249283885287,0.2451115470176346,4.605769
2025-11-24T17:00:04.615385,-0.18237720195535437,-0.034639657598266295,-10.865469164296783,-0.6377960190124987,-0.14262265334480786,0.2486573891611041,4.615385
2025-11-24T17:00:04.625000,-0.18377176159045142,-0.042930948323983864,-10.905887500534636,-0.6492509058120184,-0.15572674234448372,0.2517464347738977,4.625
2025-11-24T17:00:04.634615,-0.18516529860465625,-0.05137554063055198,-10.94684051445684,-0.6604172291429962,-0.168711998798214,0.2543708764856907,4.634615
2025-11-24T17:00:04.644231,-0.18655774144889106,-0.05994922762774961,-10.9883263383223,-0.6712976355681851,-0.18155512380312036,0.25652441152614247,4.644231
2025-11-24T17:00:04.653846,-0.18794810700807332,-0.0686256437978087,-11.030333752568307,-0.6818943889458868,-0.1942352706054906,0.25820243804634274,4.653846
2025-11-24T17:00:04.663462,-0.1893346395982086,-0.07737697062223453,-11.072842209383312,-0.6922092742262554,-0.20673449188483758,0.25940220850074786,4.663462
2025-11-24T17:00:04.673077,-0.19071496194350143,-0.08617468013243347,-11.115822098410217,-0.7022435524063008,-0.21903807372958747,0.2601229236474015,4.673077
2025-11-24T17:00:04.682692,-0.19208621945205132,-0.09499027603742187,-11.159235225019277,-0.7119979725648249,-0.23113475431757208,0.26036575979684334,4.682692
2025-11-24T17:00:04.692308,-0.19344520725819608,-0.10379599246761755,-11.203035462849595,-0.7214728348433277,-0.2430168274291384,0.26013382892464076,4.692308
2025-11-24T17:00:04.701923,-0.19478848058321716,-0.112565420315388,-11.247169547712398,-0.7306680859902396,-0.25468013040525994,0.2594320748641437,4.701923
2025-11-24T17:00:04.711538,-0.19611245623591914,-0.12127404532257649,-11.291577998123765,-0.7395834204352416,-0.26612391527005824,0.2582671104082653,4.711538
2025-11-24T17:00:04.721154,-0.1974135126195329,-0.12989969369314144,-11.336196162381317,-0.7482183586194938,-0.277350604414674,0.2566470018005695,4.721154
2025-11-24T17:00:04.730769,-0.1986880899392422,-0.1384228875426505,-11.380955387810044,-0.7565722824046459,-0.28836543991151864,0.25458100938937533,4.730769
2025-11-24T17:00:04.740385,-0.19993278719236263,-0.14682711637857876,-11.425784287278422,-0.7646444216957515,-0.2991760445905329,0.25207929514389654,4.740385
2025-11-24T17:00:04.750000,-0.20114445045653076,-0.1550990342016428,-11.470610057930617,-0.7724338006807764,-0.3097919188930296,0.24915260879161333,4.75
2025-11-24T17:00:04.759615,-0.20232024621211844,-0.16322859269373577,-11.515359800089001,-0.7799391616493745,-0.32022390018976216,0.2458119653516394,4.759615
2025-11-24T17:00:04.769231,-0.20345771238607446,-0.1712091172512913,-11.559961790058184,-0.7871588879815029,-0.33048361315989877,0.2420683288499017,4.769231
2025-11-24T17:00:04.778846,-0.2045547797169472,-0.1790373267909013,-11.604346670190528,-0.794090946910926,-0.3405829400010018,0.23793232036771567,4.778846
2025-11-24T17:00:04.788462,-0.20560975907754936,-0.18671329344511745,-11.648448526093953,-0.8007328694681305,-0.3505335330884427,0.23341397204426423,4.788462
2025-11-24T17:00:04.798077,-0.20662129637966573,-0.19424033392519086,-11.692205824786793,-0.8070817805859707,-0.36034637799288766,0.2285225494060204,4.798077
2025-11-24T17:00:04.807692,-0.20758830296789127,-0.20162481962908727,-11.73556219167692,-0.8131344851744525,-0.37003139677411423,0.2232664603622391,4.807692
2025-11-24T17:00:04.817308,-0.20850987348158131,-0.20887589091541567,-11.778467005470853,-0.8188876047418526,-0.37959707064080384,0.21765326092177037,4.817308
2025-11-24T17:00:04.826923,-0.20938520320442974,-0.21600506707324582,-11.820875783393385,-0.8243377454362205,-0.3890500646806848,0.211689757506203,4.826923
2025-11-24T17:00:04.836538,-0.21021351216447684,-0.22302575703702068,-11.862750319623007,-0.8294816665484053,-0.3983948545458606,0.20538219578395311,4.836538
2025-11-24T17:00:04.846154,-0.21099397729762315,-0.2299526904737968,-11.904058543924382,-0.8343164140984367,-0.4076333782344852,0.1987365170892492,4.846154
2025-11-24T17:00:04.855769,-0.21172567319525315,-0.23680129752214055,-11.944774094701938,-0.8388393895337731,-0.4167647551743748,0.19175865618503404,4.855769
2025-11-24T17:00:04.865385,-0.21240752688304962,-0.243587065659946,-11.984875640028537,-0.8430483344019071,-0.4257851213052612,0.18445484941371063,4.865385
2025-11-24T17:00:04.875000,-0.21303829594975032,-0.2503248967326315,-12.024346010949376,-0.8469412219468095,-0.43468762060452026,0.17683192138900378,4.875
2025-11-24T17:00:04.884615,-0.2136165771771111,-0.2570284817179089,-12.063171224819571,-0.8505160561984071,-0.4434625747625234,0.16889752216465426,4.884615
2025-11-24T17:00:04.894231,-0.21414084636368075,-0.26370970988652565,-12.101339476837207,-0.8537705929377144,-0.4520978301621828,0.1606602948452194,4.894231
2025-11-24T17:00:04.903846,-0.21460952309472411,-0.27037813250974835,-12.138840166514756,-0.8567020146248904,-0.4605792601594723,0.15212996329099773,4.903846
2025-11-24T17:00:04.913462,-0.21502104906549208,-0.27704050379074274,-12.175663000237327,-0.859306605667809,-0.4688913840737885,0.14331733795737517,4.913462
2025-11-24T17:00:04.923077,-0.21537396699531322,-0.28370041763415177,-12.211797181007785,-0.8615794786220924,-0.4770180544204111,0.1342342449050322,4.923077
2025-11-24T17:00:04.932692,-0.21566699009465515,-0.29035804881304006,-12.247230682295855,-0.8635143955141568,-0.4849431618047369,0.12489339102360003,4.932692
2025-11-24T17:00:04.942308,-0.21589905809234725,-0.2970099976814156,-12.281949613062261,-0.8651037139813335,-0.49265131261303685,0.1153081882347815,4.942308
2025-11-24T17:00:04.951923,-0.2160693823438303,-0.303649234911743,-12.315937702277623,-0.8663384675701776,-0.5001284470407685,0.10549256726087405,4.951923
2025-11-24T17:00:04.961538,-0.21617748711000564,-0.3102651475553673,-12.349175942377867,-0.867208567849351,-0.5073623799990962,0.09546081243485785,4.961538
2025-11-24T17:00:04.971154,-0.21622325489773364,-0.3168436961665041,-12.381642419709555,-0.8677031006114024,-0.5143432589916089,0.08522744219532327,4.971154
2025-11-24T17:00:04.980769,-0.21620697949206102,-0.32336769922193637,-12.413312330582881,-0.8678106837008072,-0.5210639374489918,0.07480714983795303,4.980769
2025-11-24T17:00:04.990385,-0.2161294206498533,-0.3298172605030714,-12.44415815253427,-0.867519856153581,-0.5275202592401065,0.06421481055468703,4.990385
2025-11-24T17:00:05,-0.21599184245772618,-0.3361703449954637,-12.474149927952556,-0.8668194707941684,-0.5337112425668159,0.05346555500365434,5.0
2025-11-24T17:00:05.009615,-0.21579601008578853,-0.3424034909833073,-12.50325561842053,-0.865699063537182,-0.5396391432742529,0.04257490563221903,5.009615
2025-11-24T17:00:05.019231,-0.21554412170779305,-0.34849262575929624,-12.531441485629921,-0.8641491747097563,-0.5453093722064114,0.03155896892729439,5.019231
2025-11-24T17:00:05.028846,-0.2152386616145733,-0.3544139359378872,-12.558672439874831,-0.8621616022496781,-0.5507302402224121,0.02043467422388438,5.028846
2025-11-24T17:00:05.038462,-0.21488217306255764,-0.36014473452730916,-12.584912282512414,-0.859729574442455,-0.5559125113515934,0.009220046444666388,5.038462
2025-11-24T17:00:05.048077,-0.21447696335304886,-0.3656642658897785,-12.610123775268995,-0.856847841619995,-0.5608687641667502,-0.002065505663201929,5.048077
2025-11-24T17:00:05.057692,-0.21402476684342323,-0.37095439516892814,-12.634268505892823,-0.8535126993179675,-0.5656125906339372,-0.013400912255368914,5.057692
2025-11-24T17:00:05.067308,-0.21352640049668872,-0.3760001394585361,-12.657306576359442,-0.8497219646080791,-0.5701576872395976,-0.024763208524982025,5.067308
2025-11-24T17:00:05.076923,-0.212981448922124,-0.38079001186287753,-12.679196192886472,-0.8454749310441347,-0.5745169047669235,-0.03612737616558877,5.076923
2025-11-24T17:00:05.086538,-0.2123880120499457,-0.3853161638969072,-12.69989326363122,-0.8407723279025405,-0.5787013222348008,-0.047466285426033504,5.086538
2025-11-24T17:00:05.096154,-0.21174254107569268,-0.389574325276529,-12.719351104133738,-0.8356163058955748,-0.5827194041493311,-0.058750754559358805,5.096154
2025-11-24T17:00:05.105769,-0.21103977967431362,-0.393563553419802,-12.737520322631044,-0.8300104618973541,-0.5865762922562772,-0.0699497363836085,5.105769
2025-11-24T17:00:05.115385,-0.21027281833332304,-0.39728581663453355,-12.754348920469889,-0.8239599008775202,-0.5902732743819712,-0.08103063539391968,5.115385
2025-11-24T17:00:05.125000,-0.20943325989420325,-0.40074544195051043,-12.769782607595932,-0.8174713202036377,-0.5938074633174291,-0.09195975100879446,5.125
2025-11-24T17:00:05.134615,-0.2085114852447229,-0.40394846001832807,-12.783765307073404,-0.8105530946483448,-0.597171705664517,-0.1027028323039556,5.134615
2025-11-24T17:00:05.144231,-0.20749699988494325,-0.40690187843988207,-12.796239804644784,-0.8032153393320417,-0.6003547226113259,-0.1132257192718452,5.144231
2025-11-24T17:00:05.153846,-0.20637883273234017,-0.40961291539135936,-12.807148482841987,-0.7954699293071908,-0.6033414650184471,-0.12349503880660959,5.153846
2025-11-24T17:00:05.163462,-0.2051459482703828,-0.4120882301676545,-12.81643406469223,-0.7873304587919084,-0.606113649298068,-0.13347892164777606,5.163462
2025-11-24T17:00:05.173077,-0.20378762741694387,-0.4143331963262494,-12.824040287296464,-0.7788121327190225,-0.608650430565377,-0.14314770738327048,5.173077
2025-11-24T17:00:05.182692,-0.20229377631236653,-0.4163512719999893,-12.829912435899912,-0.769931595666319,-0.6109291657255644,-0.15247460489838016,5.182692
2025-11-24T17:00:05.192308,-0.20065513493249929,-0.41814352370171215,-12.833997696181635,-0.7607067104865655,-0.6129262233275722,-0.16143627372831776,5.192308
2025-11-24T17:00:05.201923,-0.19886337553427236,-0.4197083505711143,-12.836245325255076,-0.7511562960899687,-0.6146178094653044,-0.17001328977044358,5.201923
2025-11-24T17:00:05.211538,-0.1969111013985461,-0.42104143646223396,-12.836606692571793,-0.7412998231572014,-0.6159807936790243,-0.17819046118466927,5.211538
2025-11-24T17:00:05.221154,-0.19479177435650863,-0.42213593165777347,-12.835035284222203,-0.7311570556908129,-0.6169935269854946,-0.18595696928967587,5.221154
2025-11-24T17:00:05.230769,-0.1924996085482206,-0.4229828404499174,-12.8314867808663,-0.7207476235768591,-0.617636642626203,-0.1933063229252934,5.230769
2025-11-24T17:00:05.240385,-0.19002946486919833,-0.423571570660584,-12.825919305761946,-0.7100905190489184,-0.6178938222301026,-0.20023612974718652,5.240385
2025-11-24T17:00:05.250000,-0.18737676979024948,-0.42389058771642085,-12.818293903019063,-0.6992035223927293,-0.6177525004362513,-0.20674770142413815,5.25
2025-11-24T17:00:05.259615,-0.18453747157375552,-0.4239281091040527,-12.808575255807591,-0.688102574514928,-0.6172044720393827,-0.21284551895887416,5.259615
2025-11-24T17:00:05.269231,-0.1815080418417518,-0.423672776934547,-12.796732596538462,-0.6768011287273172,-0.6162463593312706,-0.21853658797038306,5.269231
2025-11-24T17:00:05.278846,-0.17828553029887245,-0.42311425747091685,-12.782740709392483,-0.6653095326383841,-0.6148798973608881,-0.2238297138821407,5.278846
2025-11-24T17:00:05.288462,-0.17486767989894642,-0.4222437317972564,-12.766580896727268,-0.6536345048129093,-0.6131120042866495,-0.22873472755635257,5.288462
2025-11-24T17:00:05.298077,-0.1712531045722952,-0.4210542546269573,-12.74824178151435,-0.6417787697355521,-0.61095462033367,-0.2332616949736408,5.298077
2025-11-24T17:00:05.307692,-0.16744152213573063,-0.419540966750686,-12.727719841350318,-0.6297408986469097,-0.6084243165577476,-0.23742014845738052,5.307692
2025-11-24T17:00:05.317308,-0.16343402461355233,-0.4177011541914039,-12.70501960549114,-0.6175153812000498,-0.6055416907336646,-0.24121837806857416,5.317308
2025-11-24T17:00:05.326923,-0.1592333598222069,-0.415534157020515,-12.680153489160245,-0.6050929312414025,-0.6023305816606184,-0.2446628177478411,5.326923
2025-11-24T17:00:05.336538,-0.1548441926255835,-0.4130411429186786,-12.653141284185157,-0.5924610123628788,-0.5988171443804693,-0.2477575528888794,5.336538
2025-11-24T17:00:05.346154,-0.15027331196542731,-0.41022477366968496,-12.624009361320477,-0.579604554993844,-0.5950288372467815,-0.25050396818847726,5.346154
2025-11-24T17:00:05.355769,-0.1455297513437076,-0.40708880589121693,-12.592789658058457,-0.5665068261736437,-0.5909933771116077,-0.2529005492104312,5.355769
2025-11-24T17:00:05.365385,-0.14062479635913808,-0.40363767643709436,-12.559518528541634,-0.5531504052665229,-0.58673771779919,-0.2549428472678631,5.365385
2025-11-24T17:00:05.375000,-0.13557186268154814,-0.39987612089504365,-12.524235529206246,-0.5395182126957948,-0.5822870967996101,-0.25662361283930174,5.375
2025-11-24T17:00:05.384615,-0.13038623996057006,-0.3958088587427103,-12.486982210947351,-0.5255945341074246,-0.5776641797721402,-0.2579330959571571,5.384615
2025-11-24T17:00:05.394231,-0.1250847090836728,-0.39144036022457485,-12.447800983619127,-0.5113659802643606,-0.5728883202514471,-0.25885950113035194,5.394231
2025-11-24T17:00:05.403846,-0.11968505044623673,-0.38677469954186156,-12.406734105377053,-0.4968223241872424,-0.5679749472905202,-0.25938956885854114,5.403846
2025-11-24T17:00:05.413462,-0.11420547060025116,-0.3818154985572597,-12.363822827261233,-0.48195716202780325,-0.5629350953737278,-0.25950923940552445,5.413462
2025-11-24T17:00:05.423077,-0.10866398412110582,-0.3765659674975244,-12.319106703193242,-0.46676835369771236,-0.5577750953391291,-0.25920434515188245,5.423077
2025-11-24T17:00:05.432692,-0.1030777934557328,-0.37102904702725203,-12.272623070461218,-0.45125821441820246,-0.5524964472767773,-0.2584612811141539,5.432692
2025-11-24T17:00:05.442308,-0.09746270883981502,-0.36520764821594487,-12.224406716840083,-0.4354334492309883,-0.5470958900706105,-0.2572676167090951,5.442308
2025-11-24T17:00:05.451923,-0.09183264433235186,-0.3591049753226988,-12.17448976272227,-0.4193048463572276,-0.5415656652495519,-0.25561262817223035,5.451923
2025-11-24T17:00:05.461538,-0.08619921745241937,-0.3527249037967606,-12.122901781795306,-0.4028867667937677,-0.5358939518283841,-0.25348774422243353,5.461538
2025-11-24T17:00:05.471154,-0.08057146952282197,-0.3460723763501331,-12.069670158002523,-0.3861964830705627,-0.5300654345675597,-0.2508869052444732,5.471154
2025-11-24T17:00:05.480769,-0.074955711839709,-0.3391537774499167,-12.01482064331004,-0.36925343001413724,-0.524061966490702,-0.24780683913526166,5.480769
2025-11-24T17:00:05.490385,-0.06935549158736697,-0.33197725175968074,-11.958378057995441,-0.35207843521396015,-0.5178632963233589,-0.24424725757407995,5.490385
2025-11-24T17:00:05.500000,-0.06377166380226582,-0.32455294047703886,-11.900367072356296,-0.334692994301827,-0.5114478466298062,-0.24021097663107627,5.5
2025-11-24T17:00:05.509615,-0.058202551739796236,-0.3168931148343977,-11.840813023681594,-0.3171186442431249,-0.5047935401361613,-0.23570396483285033,5.509615
2025-11-24T17:00:05.519231,-0.05264417580573093,-0.3090121860782166,-11.779742742609747,-0.2993764691099833,-0.4978786728897607,-0.23073531910151768,5.519231
2025-11-24T17:00:05.528846,-0.04709053044318376,-0.30092657134387274,-11.717185373990914,-0.2814867526232783,-0.49068282253787376,-0.22531716507576918,5.528846
2025-11-24T17:00:05.538462,-0.04153389077394397,-0.2926544031637853,-11.653173174450627,-0.2634687738718493,-0.48318776332132646,-0.21946447546514306,5.538462
2025-11-24T17:00:05.548077,-0.035965136218892094,-0.2842150886676007,-11.587742258604514,-0.2453407267738941,-0.4753783440666461,-0.21319480102208033,5.548077
2025-11-24T17:00:05.557692,-0.030374083187235803,-0.2756287458691231,-11.520933253803358,-0.22711972952101794,-0.4672432780992155,-0.2065279152096145,5.557692
2025-11-24T17:00:05.567308,-0.02474982092800477,-0.2669155599371791,-11.452791810445737,-0.20882188277410882,-0.4587757970860533,-0.199485384394416,5.567308
2025-11-24T17:00:05.576923,-0.01908104556727894,-0.2580951079179605,-11.38336890876921,-0.1904623417370013,-0.4499741318826532,-0.19209008559702057,5.576923
2025-11-24T17:00:05.586538,-0.013356389160239424,-0.24918569734037238,-11.31272091558164,-0.17205538389575814,-0.4408417977208111,-0.18436569857976096,5.586538
2025-11-24T17:00:05.596154,-0.007564742196250274,-0.24020375706821714,-11.240909374477036,-0.15361446736966775,-0.43138767414231544,-0.17633619765742348,5.596154
2025-11-24T17:00:05.605769,-0.001695567918120877,-0.23116331290464978,-11.168000544662071,-0.13515227563368434,-0.4216258782208344,-0.16802536463472506,5.605769
2025-11-24T17:00:05.615385,0.004260794130537965,-0.22207557801750888,-11.094064723312748,-0.11668073798905894,-0.41157543119337353,-0.1594563413651269,5.615385
2025-11-24T17:00:05.625000,0.010312838596588684,-0.2129486864444735,-11.019175393811857,-0.09821101326363857,-0.4012597177840097,-0.15065123919779122,5.625
2025-11-24T17:00:05.634615,0.016467623189539655,-0.20378759240764113,-10.943408243323066,-0.07975343293378412,-0.390705742792296,-0.14163082142691724,5.634615
2025-11-24T17:00:05.644231,0.022730521952135326,-0.19459414770346675,-10.86684009255313,-0.06131741526488403,-0.37994320470195236,-0.13241427243524,5.644231
2025-11-24T17:00:05.653846,0.029105009396002492,-0.18536735644676716,-10.789547782264558,-0.04291137436232785,-0.3690034248176731,-0.12301906328234999,5.653846
2025-11-24T17:00:05.663462,0.03559248039877746,-0.17610379437685855,-10.71160707271376,-0.02454264905880147,-0.35791818430081696,-0.11346091812752547,5.663462
2025-11-24T17:00:05.673077,0.042192109234632215,-0.16679816997370817,-10.633091638245832,-0.006217465297268182,-0.34671852966988387,-0.10375387932556572,5.673077
2025-11-24T17:00:05.682692,0.04890075154128505,-0.15744399507491302,-10.554072267572394,0.012059071581234898,-0.33543361349934014,-0.09391046214578104,5.682692
2025-11-24T17:00:05.692308,0.055712894460134894,-0.14803432317761708,-10.474616385130819,0.03028297168540286,-0.32408964013506575,-0.08394188391105152,5.692308
2025-11-24T17:00:05.701923,0.0626206602537869,-0.1385625076756738,-10.394787975739764,0.048451360910664355,-0.3127089811741651,-0.07385834728708651,5.701923
2025-11-24T17:00:05.711538,0.06961386673414796,-0.12902293236029638,-10.314647935253683,0.0665624924876044,-0.3013095108726706,-0.06366935379493982,5.711538
2025-11-24T17:00:05.721154,0.07668014561673703,-0.11941167001351256,-10.234254810046071,0.0846157564443013,-0.28990419202837164,-0.0533840230385706,5.721154
2025-11-24T17:00:05.730769,0.08380511985450095,-0.10972702894167359,-10.153665847193183,0.10261165999073918,-0.27850092369951296,-0.043011397231991794,5.730769
2025-11-24T17:00:05.740385,0.09097264409088487,-0.09996995303266479,-10.072938258276789,0.12055174919075078,-0.2671026455809971,-0.03256071815943766,5.740385
2025-11-24T17:00:05.750000,0.09816511660675742,-0.0901442504065978,-9.992130594365584,0.13843844778303208,-0.2557076797945464,-0.02204167131400184,5.75
2025-11-24T17:00:05.759615,0.10536387145897495,-0.08025663857590823,-9.911304130873972,0.1562747978661576,-0.24431027960549456,-0.011464597160316232,5.759615
2025-11-24T17:00:05.769231,0.11254965193093855,-0.07031660875931474,-9.830524168987903,0.17406409779394255,-0.23290134670504964,-0.0008406718987403622,5.769231
2025-11-24T17:00:05.778846,0.11970315261686866,-0.06033612700013671,-9.749861175268887,0.19180944514576115,-0.2214692729185311,0.009817939509239178,5.778846
2025-11-24T17:00:05.788462,0.12680560264845445,-0.050329203282285115,-9.66939169575837,0.20951320668630413,-0.21000085686190276,0.020497956137348,5.788462
2025-11-24T17:00:05.798077,0.13383934970310282,-0.04031137085763773,-9.5891989869012,0.22717645157129693,-0.1984822421117993,0.031184879075512168,5.798077
2025-11-24T17:00:05.807692,0.14078839454816247,-0.030299125607205577,-9.509373304530998,0.2447983951411287,-0.18689982382845877,0.04186291524955887,5.807692
2025-11-24T17:00:05.817308,0.14763882289976168,-0.020309377471951762,-9.430011798893007,0.26237590333103283,-0.17524107697945274,0.05251492952585306,5.817308
2025-11-24T17:00:05.826923,0.1543790903361558,-0.010358960950835865,-9.351217993759969,0.27990310072693436,-0.16349526890428093,0.06312243053547549,5.826923
2025-11-24T17:00:05.836538,0.1610001358280257,-0.0004642395858661271,-9.273100879391622,0.2973711136462044,-0.15165402715301357,0.0736655991257135,5.836538
2025-11-24T17:00:05.846154,0.1674953227633425,0.009359177763726141,-9.195773701315588,0.31476796882905184,-0.13971173865990857,0.0841233702527073,5.846154
2025-11-24T17:00:05.855769,0.1738602263495299,0.01909660996621365,-9.119352556963578,0.33207865789422103,-0.1276657625177401,0.0944735777835981,5.855769
2025-11-24T17:00:05.865385,0.1800922996666419,0.02873438322494795,-9.043954912621526,0.34928536341774546,-0.11551645121085084,0.1046931664506098,5.865385
2025-11-24T17:00:05.875000,0.18619045622027802,0.03825984393921164,-8.969698131357168,0.36636782457465383,-0.1032669937705832,0.11475846670829432,5.875
2025-11-24T17:00:05.884615,0.19215460619352975,0.047661333717544996,-8.896698071448272,0.3833038061078434,-0.09092311219492327,0.12464551915924674,5.884615
2025-11-24T17:00:05.894231,0.19798518125049797,0.05692815229556102,-8.825067787030047,0.40006963137590096,-0.07849265300091794,0.1343304285503716,5.894231
2025-11-24T17:00:05.903846,0.20368268191402364,0.06605052659653211,-8.754916345775282,0.4166407481861674,-0.06598511727644633,0.1437897233736805,5.903846
2025-11-24T17:00:05.913462,0.20924728113387656,0.07501959240922289,-8.686347768904644,0.4329923082711294,-0.053411166365260464,0.1530006949186168,5.913462
2025-11-24T17:00:05.923077,0.21467851470847674,0.08382738181783107,-8.619460087571445,0.4490997505413808,-0.04078212881903622,0.1619416901914296,5.923077
2025-11-24T17:00:05.932692,0.21997508154054843,0.09246680084499743,-8.554344498261006,0.4649393809446442,-0.028109522603489874,0.17059233740049665,5.932692
2025-11-24T17:00:05.942308,0.2251347624406567,0.10093158387322239,-8.491084601674048,0.4804889385545348,-0.015404601086564652,0.1789336893223317,5.942308
2025-11-24T17:00:05.951923,0.23015444500382834,0.10921622474235211,-8.42975572815692,0.49572813247671177,-0.0026779348392920567,0.18694827728375288,5.951923
2025-11-24T17:00:05.961538,0.23503021949289837,0.11731590146199593,-8.370424371753568,0.5106391306233193,0.010060949300135135,0.19462007692681343,5.961538
2025-11-24T17:00:05.971154,0.2397574976882749,0.1252264220162721,-8.313147758564059,0.5252069798739022,0.022803841707949593,0.20193439650919154,5.971154
2025-11-24T17:00:05.980769,0.24433111115919856,0.13294421807622078,-8.257973566183946,0.5394199378601554,0.03554400392975586,0.2088777076374737,5.980769
2025-11-24T17:00:05.990385,0.24874536476661044,0.1404664036802163,-8.204939801898693,0.5532697000083061,0.048276179332595176,0.21543744450217467,5.990385
2025-11-24T17:00:06,0.25299404570439,0.14779090140595433,-8.154074844847463,0.566751509780541,0.06099645409548675,0.22160179899240617,6.0
2025-11-24T17:00:06.009615,0.2570704098493972,0.15491662333543188,-8.10539766256831,0.5798641433972844,0.07370198288685657,0.2273595357288673,6.009615
2025-11-24T17:00:06.019231,0.26096718157975834,0.16184368212782074,-8.05891822249522,0.5926097648730254,0.08639061084934656,0.23269984595057389,6.019231
2025-11-24T17:00:06.028846,0.2646766075735505,0.16857360119392678,-8.014638123813066,0.6049936563375992,0.09906043411423864,0.23761225533227057,6.028846
2025-11-24T17:00:06.038462,0.2681905977323268,0.17510949172555548,-7.9725514600594005,0.6170238408690727,0.11170934420303243,0.2420865979294694,6.038462
2025-11-24T17:00:06.048077,0.27150096983252464,0.1814561657879133,-7.932645883526733,0.6287106255585712,0.1243345974693606,0.24611306422251217,6.048077
2025-11-24T17:00:06.057692,0.27459979457489253,0.18762015796597667,-7.894903793765721,0.6400660984320967,0.13693244254712686,0.24968232496015272,6.057692
2025-11-24T17:00:06.067308,0.27747981961876966,0.19360963497507427,-7.859303540526276,0.6511036139314182,0.14949783219473226,0.2527857250234707,6.067308
2025-11-24T17:00:06.076923,0.2801349373024306,0.19943418413712255,-7.8258205326533306,0.6618372980272609,0.1620242422749903,0.2554155332762447,6.076923
2025-11-24T17:00:06.086538,0.2825606508051335,0.20510448452053065,-7.7944281719159845,0.6722815959321906,0.17450361559742686,0.2575652265039502,6.086538
2025-11-24T17:00:06.096154,0.28475448770729334,0.21063187407526818,-7.765098567053023,0.6824508749453101,0.18692643939654574,0.2592297814326395,6.096154
2025-11-24T17:00:06.105769,0.28671631038486767,0.2160278302544698,-7.737803020399645,0.6923590868427998,0.19928195509766716,0.26040595094955604,6.105769
2025-11-24T17:00:06.115385,0.2884484802823263,0.22130338231683153,-7.712512315330253,0.7020194909881383,0.21155849021234088,0.26109250630465325,6.115385
2025-11-24T17:00:06.125000,0.28995584595525475,0.22646847525699354,-7.689196859202764,0.7114444370994325,0.22374389295028277,0.2612904303336228,6.125
2025-11-24T17:00:06.134615,0.2912455412579642,0.23153131199971266,-7.667826744760432,0.7206451996384705,0.2358260385329554,0.26100304562954224,6.134615
2025-11-24T17:00:06.144231,0.292326599587866,0.23649771202944736,-7.6483717835218465,0.7296318442987437,0.24779336444546024,0.2602360604049431,6.144231
2025-11-24T17:00:06.153846,0.29320941059894673,0.24137053717526463,-7.630801543789401,0.7384130978431549,0.2596353844582563,0.2589975183283928,6.153846
2025-11-24T17:00:06.163462,0.29390506349058093,0.24614924327265583,-7.615085399625073,0.7469961934399464,0.27134313083833844,0.25729764653429726,6.163462
2025-11-24T17:00:06.173077,0.29442463267732183,0.25082961379339863,-7.601192572069312,0.7553866778662222,0.28290948049889697,0.25514860451963123,6.173077
2025-11-24T17:00:06.182692,0.29477846634630134,0.2554037153629052,-7.589092128806926,0.7635881892021705,0.2943293325346104,0.2525641442809359,6.182692
2025-11-24T17:00:06.192308,0.2949755372805796,0.2598600901534716,-7.57875291112714,0.7716022317212125,0.30559961981099143,0.24955920057848888,6.192308
2025-11-24T17:00:06.201923,0.29502290990845176,0.26418417571780556,-7.5701433766093,0.7794279789428008,0.3167191531826881,0.24614943995507357,6.201923
2025-11-24T17:00:06.211538,0.2949253677417078,0.26835892375751147,-7.563231371525589,0.7870621277024955,0.32768831167239426,0.2423508044973744,6.211538
2025-11-24T17:00:06.221154,0.2946852300034833,0.27236557376675835,-7.557983866010477,0.7944988147577301,0.33850860655611364,0.2381790870206923,6.221154
2025-11-24T17:00:06.230769,0.294302365707976,0.27618452389788384,-7.554366692154807,0.8017296000731117,0.34918216185194617,0.23364956721737118,6.230769
2025-11-24T17:00:06.240385,0.29377439125362864,0.2797962339319406,-7.552344321492994,0.808743519384473,0.35971116348188414,0.22877672552385392,6.240385
2025-11-24T17:00:06.250000,0.2930970189626837,0.28318209979814646,-7.551879707230065,0.8155272118136986,0.3700973293401227,0.22357403664259495,6.25
2025-11-24T17:00:06.259615,0.29226451312602914,0.2863252552248085,-7.552934203085653,0.8220651327667031,0.3803414439325457,0.21805383197488623,6.259615
2025-11-24T17:00:06.269231,0.2912702076876456,0.28921127563075844,-7.5554675620268394,0.8283398620643929,0.39044298944849126,0.21222721402990063,6.269231
2025-11-24T17:00:06.278846,0.2901070423954154,0.29182877312852157,-7.559438016848892,0.8343325070451333,0.4003998932004708,0.2061040078436252,6.278846
2025-11-24T17:00:06.288462,0.28876807854495967,0.2941698759720078,-7.564802443042885,0.8400231813764163,0.4102084006526683,0.19969274076587787,6.288462
2025-11-24T17:00:06.298077,0.28724696191422655,0.2962305839102188,-7.571516597147081,0.8453915216864225,0.41986307518426863,0.19300064676051737,6.298077
2025-11-24T17:00:06.307692,0.28553831112859807,0.2980109887546917,-7.579535417871672,0.8504171975040719,0.4293569186381991,0.18603369330194086,6.307692
2025-11-24T17:00:06.317308,0.2836380227754245,0.2995153508827727,-7.588813378095329,0.8550803793838998,0.4386815966416736,0.17879663154546735,6.317308
2025-11-24T17:00:06.326923,0.28154349558923547,0.3007520262661809,-7.599304874663954,0.8593621476006398,0.4478277409431442,0.17129307579619085,6.326923
2025-11-24T17:00:06.336538,0.279253781777181,0.30173324247558636,-7.6109646336515056,0.8632448373025571,0.45678529428154413,0.16352562391026915,6.336538
2025-11-24T17:00:06.346154,0.27676967339671477,0.3024747268860021,-7.623748101910949,0.8667123197797842,0.46554386416138704,0.15549603212230045,6.346154
2025-11-24T17:00:06.355769,0.27409372711798824,0.30299519906381317,-7.637611802248446,0.869750216477071,0.474093055763769,0.1472054540999047,6.355769
2025-11-24T17:00:06.365385,0.27123022514232964,0.30331575226153396,-7.652513642936191,0.8723460387042307,0.48242275737961493,0.1386547457213924,6.365385
2025-11-24T17:00:06.375000,0.26818506779838247,0.3034591608989742,-7.668413177216969,0.8744892459172883,0.49052335659610435,0.12984482679680795,6.375
2025-11-24T17:00:06.384615,0.26496559727848357,0.3034491552236577,-7.685271798958471,0.8761712205494115,0.49838587576128046,0.12077708237956619,6.384615
2025-11-24T17:00:06.394231,0.261580360405831,0.3033097001048713,-7.703052845371321,0.8773851668987315,0.5060020301515769,0.11145378243062024,6.394231
2025-11-24T17:00:06.403846,0.2580388247018691,0.3030643072573375,-7.721721572525225,0.8781259522466032,0.5133642265622114,0.10187849889981539,6.403846
2025-11-24T17:00:06.413462,0.25435106201198066,0.3027354029691573,-7.741244984799648,0.8783899159428946,0.5204655282778229,0.0920565003720102,6.413462
2025-11-24T17:00:06.423077,0.25052741116103944,0.3023437661960727,-7.7615915302742335,0.8781746733204641,0.527299612279425,0.08199510445590359,6.423077
2025-11-24T17:00:06.432692,0.24657813145977409,0.30190804456470816,-7.782730700957424,0.877478935010051,0.533860737980524,0.07170396874654394,6.432692
2025-11-24T17:00:06.442308,0.2425130624606094,0.3014443513982296,-7.8046325812999955,0.8763023525542101,0.5401437381860135,0.061195304574853976,6.442308
2025-11-24T17:00:06.451923,0.23834130797274697,0.300965947894115,-7.827267369781005,0.8746453960944724,0.5461440361244326,0.05048400343092124,6.451923
2025-11-24T17:00:06.461538,0.23407096185487414,0.3004830185047571,-7.850604874914321,0.8725092727305962,0.5518576881573785,0.03958767166177,6.461538
2025-11-24T17:00:06.471154,0.2297088909932693,0.30000254774721286,-7.874613979936058,0.8698958983327045,0.5572814484459193,0.028526573456757198,6.471154
2025-11-24T17:00:06.480769,0.22526058875028002,0.2995282993014344,-7.8992620833331895,0.8668079316787304,0.5624128477508838,0.017323486289322367,6.480769
2025-11-24T17:00:06.490385,0.22073010877484672,0.29906088723757357,-7.924514541543621,0.8632488670067574,0.5672502741589165,0.0060034788803007225,6.490385
2025-11-24T17:00:06.500000,0.21612008204603508,0.2985979223772564,-7.950334153254583,0.8592231683490109,0.571793041651085,-0.005406370623402454,6.5
2025-11-24T17:00:06.509615,0.21143181079407306,0.2981342183128776,-7.9766807291625,0.8547364246569316,0.5760414355027328,-0.01687729242031529,6.509615
2025-11-24T17:00:06.519231,0.2066654270975194,0.2976620492021489,-8.003510786323615,0.8497955075140258,0.5799967305925998,-0.028379154603953727,6.519231
2025-11-24T17:00:06.528846,0.20182010475091788,0.29717146018597307,-8.030777392205504,0.844408715001699,0.5836611856751718,-0.03988078727532186,6.528846
2025-11-24T17:00:06.538462,0.19689431746419322,0.2966506380972763,-8.058430167218628,0.8385858813783987,0.5870380191983345,-0.0513502949603341,6.538462
2025-11-24T17:00:06.548077,0.1918861394392883,0.2960863533716478,-8.08641544719876,0.8323384279943153,0.5901313692984343,-0.06275536070980473,6.548077
2025-11-24T17:00:06.557692,0.18679358278464722,0.295464480883069,-8.114676611851447,0.8256793359207348,0.5929462358378189,-0.0740635506129352,6.557692
2025-11-24T17:00:06.567308,0.18161495945459316,0.2947705954976339,-8.143154590872056,0.8186230359559048,0.5954884000924092,-0.08524262837759677,6.567308
2025-11-24T17:00:06.576923,0.1763492461890455,0.2939906197089673,-8.17178855362843,0.8111852263183208,0.5977643180167513,-0.09626088638344654,6.576923
2025-11-24T17:00:06.586538,0.17099642509960286,0.29311148343075016,-8.200516769913696,0.8033826341367049,0.5997809840044199,-0.1070874926254736,6.586538
2025-11-24T17:00:06.596154,0.16555777375832031,0.29212174907307303,-8.229277606629951,0.7952327369947401,0.6015457637703733,-0.11769284412099339,6.596154
2025-11-24T17:00:06.605769,0.16003608488694124,0.29101216168688104,-8.258010603683674,0.7867534608984529,0.6030661974450778,-0.12804890934847385,6.605769
2025-11-24T17:00:06.615385,0.15443580335671603,0.28977609750728595,-8.286657552822485,0.7779628697112037,0.6043497761626723,-0.13812953734628117,6.615385
2025-11-24T17:00:06.625000,0.1487630765214457,0.28840989469025136,-8.315163491546437,0.7688788546852954,0.6054036979360915,-0.1479107109755456,6.625
2025-11-24T17:00:06.634615,0.1430257237363326,0.2869130539964565,-8.343477531953168,0.7595188229891464,0.6062346129607329,-0.15737072686541995,6.634615
2025-11-24T17:00:06.644231,0.13723314091715771,0.28528829801976235,-8.371553475620681,0.7498993774625301,0.6068483744942113,-0.16649029198783769,6.644231
2025-11-24T17:00:06.653846,0.13139616198349266,0.28354147926544165,-8.39935020945457,0.7400359808735263,0.6072498168572804,-0.17525253310100491,6.653846
2025-11-24T17:00:06.663462,0.12552689611734485,0.28168133198429784,-8.42683191553943,0.7299426051163845,0.6074425824207883,-0.18364292055623882,6.663462
2025-11-24T17:00:06.673077,0.11963854698392813,0.2797190712836935,-8.453968149089429,0.7196313732655335,0.6074290108002348,-0.19164911510610164,6.673077
2025-11-24T17:00:06.682692,0.11374520458276279,0.2776678557933406,-8.480733843667085,0.7091122067519116,0.6072100888515962,-0.19926075519948655,6.682692
2025-11-24T17:00:06.692308,0.10786159342382914,0.2755421453725389,-8.507109298083748,0.6983924928071292,0.6067854487543003,-0.20646920818638964,6.692308
2025-11-24T17:00:06.701923,0.10200276622694775,0.27335699959349574,-8.533080187473042,0.6874767911551675,0.6061534003976708,-0.2132673087459546,6.701923
2025-11-24T17:00:06.711538,0.09618374373129243,0.27112737180625546,-8.55863762147418,0.6763666028107569,0.6053109927743406,-0.21964910354600634,6.711538
2025-11-24T17:00:06.721154,0.09041911078077816,0.26886745390445266,-8.58377824551316,0.6650602250696903,0.6042541104893931,-0.22560961634681273,6.721154
2025-11-24T17:00:06.730769,0.08472258496803108,0.2665901172587596,-8.608504349383463,0.6535527144600859,0.6029776174328453,-0.23114464468233958,6.730769
2025-11-24T17:00:06.740385,0.07910657785706122,0.2643064785419877,-8.632823917511665,0.6418359743895649,0.601475555857802,-0.23625059794942438,6.740385
2025-11-24T17:00:06.750000,0.07358177075715662,0.2620256014648291,-8.656750539116414,0.6298989767570526,0.599741399152011,-0.24092438577727918,6.75
2025-11-24T17:00:06.759615,0.06815672823646689,0.25975433127596237,-8.680303104851454,0.6177281179998155,0.5977683475202686,-0.24516336365811342,6.759615
2025-11-24T17:00:06.769231,0.06283757242114087,0.2574972480535692,-8.703505249424545,0.6053077034548245,0.5955496498716634,-0.24896533933632176,6.769231
2025-11-24T17:00:06.778846,0.05762773612924281,0.255256715929855,-8.72638454249955,0.5926205509029443,0.5930789294053141,-0.25232863700483765,6.778846
2025-11-24T17:00:06.788462,0.052527802947972414,0.25303300027831127,-8.748971466434057,0.5796487004764539,0.5903504839508951,-0.25525220561932355,6.788462
2025-11-24T17:00:06.798077,0.0475354338202807,0.25082442700934243,-8.771298245413307,0.5663742099822365,0.5873595301437594,-0.2577357447702959,6.798077
2025-11-24T17:00:06.807692,0.042645377702028586,0.2486275671742301,-8.793397610490807,0.5527800054604357,0.5841023678113606,-0.25977981296792146,6.807692
2025-11-24T17:00:06.817308,0.03784956630151352,0.24643744083154812,-8.815301597836772,0.53885075243046,0.580576455449967,-0.2613858845728298,6.817308
2025-11-24T17:00:06.826923,0.0331372947321538,0.24424774133088645,-8.837040478512238,0.5245737132343619,0.5767804028875351,-0.262556332248754,6.826923
2025-11-24T17:00:06.836538,0.02849548927733659,0.24205108348831209,-8.85864190848553,0.5099395537705502,0.5727138988232987,-0.2632943258191264,6.836538
2025-11-24T17:00:06.846154,0.02390906185063212,0.23983927789704268,-8.880130373570774,0.4949430562774645,0.5683775979051247,-0.2636036507829017,6.846154
2025-11-24T17:00:06.855769,0.01936134953280105,0.2376036307793731,-8.90152698715285,0.4795836896216568,0.5637729938018007,-0.26348845935042214,6.855769
2025-11-24T17:00:06.865385,0.01483463714140587,0.23533526651209405,-8.92284967127513,0.4638659924754778,0.5589023009456617,-0.26295297482104596,6.865385
2025-11-24T17:00:06.875000,0.010310760594420324,0.2330254694689435,-8.944113706197719,0.4477997392776142,0.5537683602132341,-0.26200117751806046,6.875
2025-11-24T17:00:06.884615,0.005771786080512783,0.2306660423895343,-8.965332575648377,0.4313998787298823,0.5483745766488284,-0.2606365067163023,6.884615
2025-11-24T17:00:06.894231,0.0012007509188084197,0.22824967832750662,-8.98651898311423,0.4146862533074988,0.5427248920195878,-0.25886161518124456,6.894231
2025-11-24T17:00:06.903846,-0.003417562977127151,0.22577034018141898,-9.007685887418749,0.3976831222255307,0.536823788885176,-0.25667820800389685,6.903846
2025-11-24T17:00:06.913462,-0.008095865911949227,0.2232236344520464,-9.028847413196111,0.3804185189571361,0.5306763138591036,-0.2540869856264216,6.913462
2025-11-24T17:00:06.923077,-0.012843655460986435,0.2206071564785496,-9.050019530390252,0.36292347922748736,0.5242880997035247,-0.25108769646894435,6.923077
2025-11-24T17:00:06.932692,-0.017666612769990583,0.21792077839776042,-9.071220451476147,0.3452311790254296,0.5176653653349902,-0.24767929174496958,6.932692
2025-11-24T17:00:06.942308,-0.022566132455777772,0.21516685174838918,-9.092470747906358,0.32737602603916793,0.5108148801299018,-0.24386016542876568,6.942308
2025-11-24T17:00:06.951923,-0.02753900701875016,0.21235030296594598,-9.113793227344681,0.30939274984833315,0.5037438879918479,-0.23962845561149274,6.951923
2025-11-24T17:00:06.961538,-0.03257727707130287,0.2094786090774857,-9.135212636743386,0.2913155316564401,0.4964599933967902,-0.23498237983362072,6.961538
2025-11-24T17:00:06.971154,-0.037668251353088135,0.20656164954868936,-9.15675526260612,0.27317720183795013,0.4889710171322835,-0.22992057760995754,6.971154
2025-11-24T17:00:06.980769,-0.04279469459278291,0.20361143591425682,-9.178448491825035,0.25500851861083784,0.4812848338949372,-0.2244424390184939,6.980769
2025-11-24T17:00:06.990385,-0.04793517640604241,0.20064172371279346,-9.200320380720848,0.23683753291821202,0.4734092039320348,-0.21854840726691632,6.990385
2025-11-24T17:00:07,-0.053064571931082605,0.1976675136172299,-9.222399261126245,0.21868904722994373,0.4653516054396875,-0.21224025169742844,7.0
2025-11-24T17:00:07.009615,-0.05815470496456225,0.1947044515665928,-9.244713393135076,0.20058418413108753,0.45711906857961465,-0.20552131235397003,7.009615
2025-11-24T17:00:07.019231,-0.06317512265190778,0.1917681410894026,-9.267290660813085,0.18254008505839286,0.4487180109515622,-0.19839671723653426,7.019231
2025-11-24T17:00:07.028846,-0.06809398310012266,0.1888733856953377,-9.290158307602418,0.16456975515108313,0.4401540764461008,-0.19087357017718998,7.028846
2025-11-24T17:00:07.038462,-0.07287902644742257,0.18603338624457438,-9.313342719868077,0.14668205753601174,0.43143198029966967,-0.18296110364330556,7.038462
2025-11-24T17:00:07.048077,-0.07749859256249433,0.1832589277092719,-9.336869274877701,0.12888184446369513,0.4225553647850532,-0.17467078952791937,7.048077
2025-11-24T17:00:07.057692,-0.08192264670931533,0.18055760074094904,-9.360762260920216,0.11117020024899046,0.4135266775642031,-0.1660164028489818,7.057692
2025-11-24T17:00:07.067308,-0.08612377521758395,0.17793311221639813,-9.385044857093918,0.09354476635793756,0.40434709607537483,-0.15701403644095777,7.067308
2025-11-24T17:00:07.076923,-0.09007811399957598,0.17538473926212692,-9.409739145785766,0.07600012322885358,0.3950165262095167,-0.14768206749312732,7.076923
2025-11-24T17:00:07.086538,-0.09376617419218777,0.17290697033106736,-9.434866131889017,0.05852821522208248,0.38553369529051457,-0.1380410790078616,7.086538
2025-11-24T17:00:07.096154,-0.09717353283226998,0.1704893590539618,-9.460445751448843,0.04111881906477385,0.37589634199034794,-0.1281137405836942,7.096154
2025-11-24T17:00:07.105769,-0.10029136272978119,0.168116598872039,-9.486496854555197,0.02376006349683765,0.36610148867857395,-0.11792465241937061,7.105769
2025-11-24T17:00:07.115385,-0.10311678396591797,0.1657688133522223,-9.513037139910928,0.006439004104583308,0.35614577082484633,-0.10750015443761507,7.115385
2025-11-24T17:00:07.125000,-0.10565302917225643,0.16342204977405927,-9.540083011012294,-0.010857753444595058,0.34602579354740065,-0.09686810066233555,7.125
2025-11-24T17:00:07.134615,-0.1079094251101045,0.1610489600529322,-9.567649326178374,-0.028143399624840207,0.33573848491100683,-0.0860575989536335,7.134615
2025-11-24T17:00:07.144231,-0.10990120092972178,0.15861964886041421,-9.595749030193073,-0.045430262211686626,0.32528141770357905,-0.07509871897672911,7.144231
2025-11-24T17:00:07.153846,-0.1116491346340702,0.15610266040661597,-9.624392682242917,-0.06272917228267964,0.3146530762194956,-0.06402217657388178,7.153846
2025-11-24T17:00:07.163462,-0.11317904443674903,0.1534660626875142,-9.65358792601115,-0.08004888962347477,0.3038530525260717,-0.05285900705202476,7.163462
2025-11-24T17:00:07.173077,-0.11452112799655013,0.1506785741840479,-9.683338970786403,-0.09739562908528497,0.29288216695832575,-0.04164023898077488,7.173077
2025-11-24T17:00:07.182692,-0.11570915562904216,0.14771066861866985,-9.713646155912311,-0.11477273315764856,0.28174251728325506,-0.030396573853172692,7.182692
2025-11-24T17:00:07.192308,-0.11677953258563568,0.14453559407211972,-9.74450565391249,-0.13218052619297277,0.2704374667300458,-0.01915806985992181,7.192308
2025-11-24T17:00:07.201923,-0.1177702566951226,0.14113025436389456,-9.775909340667196,-0.14961635973474655,0.258971581621752,-0.007953824588560284,7.201923
2025-11-24T17:00:07.211538,-0.11871980844000979,0.13747591795827058,-9.807844834788044,-0.16707482628177778,0.24735052669174093,0.0031883467528318566,7.211538
2025-11-24T17:00:07.221154,-0.11966601841669289,0.13355873668196505,-9.840295685779019,-0.18454809321907076,0.23558092436627662,0.014242235170575039,7.221154
2025-11-24T17:00:07.230769,-0.1206449600389705,0.1293700698620536,-9.873241673824234,-0.2020262946449089,0.22367018611073902,0.025183554105591578,7.230769
2025-11-24T17:00:07.240385,-0.12168991313322963,0.12490661755672718,-9.906659179693454,-0.21949791615280181,0.21162632820021457,0.03599023209342012,7.240385
2025-11-24T17:00:07.250000,-0.1228304384245427,0.12017036981331844,-9.940521593597756,-0.2369501172582404,0.19945778697050304,0.04664266207985414,7.25
2025-11-24T17:00:07.259615,-0.12409159687749595,0.11516838150637841,-9.974799749474814,-0.25436895949915583,0.18717324728249451,0.0571238872842978,7.259615
2025-11-24T17:00:07.269231,-0.12549334384995792,0.1099123892669773,-10.009462387358989,-0.2717395409093741,0.17478149416667688,0.0674197073256625,7.269231
2025-11-24T17:00:07.278846,-0.12705012428774087,0.1044182977262122,-10.044476657501022,-0.2890460672912839,0.162291293780388,0.07751869472797507,7.278846
2025-11-24T17:00:07.288462,-0.12877068710328274,0.09870556967754429,-10.079808683652871,-0.30627190448442576,0.14971130542548272,0.08741211775243406,7.288462
2025-11-24T17:00:07.298077,-0.13065812268356738,0.09279655276267915,-10.11542419659567,-0.32339965053923275,0.13705002058686885,0.09709376975025885,7.298077
2025-11-24T17:00:07.307692,-0.132710110201708,0.08671576592962416,-10.151289233664441,-0.3404112512606263,0.12431572017882904,0.10655970925880304,7.307692
2025-11-24T17:00:07.317308,-0.1349193463274084,0.08048916021160432,-10.187370883251882,-0.3572881691910301,0.11151644059895546,0.11580791895137808,7.317308
2025-11-24T17:00:07.326923,-0.137274118498278,0.07414336616969405,-10.223638042790135,-0.3740116103487221,0.09865994252063422,0.12483789445710186,7.326923
2025-11-24T17:00:07.336538,-0.13975898495896588,0.06770494378535664,-10.260062155712722,-0.390562811249141,0.0857536805860469,0.13365017717088096,7.336538
2025-11-24T17:00:07.346154,-0.14235552718070132,0.06119965562143015,-10.296617893758851,-0.4069233839199558,0.07280477463476893,0.14224584951220426,7.346154
2025-11-24T17:00:07.355769,-0.14504314423504694,0.054651788593505904,-10.333283753100014,-0.4230757066894004,0.05981998293856949,0.1506260145731265,7.355769
2025-11-24T17:00:07.365385,-0.14779986091675798,0.04808355263577438,-10.370042537045356,-0.43900333815723613,0.04680567629580601,0.15879128261578457,7.365385
2025-11-24T17:00:07.375000,-0.15060312105456297,0.041514582791902725,-10.406881706767898,-0.4546914270236776,0.033767811348941607,0.16674128534342167,7.375
2025-11-24T17:00:07.384615,-0.15343053611611154,0.034961562669037646,-10.443793593248648,-0.47012709297367045,0.020711903944382586,0.17447423653615513,7.384615
2025-11-24T17:00:07.394231,-0.15626056073498334,0.028437975056155206,-10.480775471143295,-0.4852997600486956,0.007643008981124218,0.18198655430185462,7.394231
2025-11-24T17:00:07.403846,-0.1590730732866632,0.02195397590354905,-10.517829491855222,-0.5002014289089781,-0.00543427901703707,0.18927255642679391,7.403846
2025-11-24T17:00:07.413462,-0.16184984864442858,0.01551638369367636,-10.554962462778832,-0.5148268753929787,-0.018515784736746425,0.1963242376322373,7.413462
2025-11-24T17:00:07.423077,-0.16457491684593334,0.009128775492745659,-10.592185455438873,-0.5291737606756749,-0.03159765420738938,0.20313113583278758,7.423077
2025-11-24T17:00:07.432692,-0.16723480349854825,0.002791679179722398,-10.629513234614738,-0.5432426359337295,-0.044676199672974,0.20968029281334483,7.432692
