Timestamp,Acceleration_X,Acceleration_Y,Acceleration_Z,Gyro_X,Gyro_Y,Gyro_Z,time_s
2025-11-25T07:15:45,-0.128296218781105,-0.012536481017098242,-9.84086435303127,-0.18172443949954284,-0.05417026578268803,-0.09820521027415222,0.0
2025-11-25T07:15:45.009615,-0.13033339352717357,5.470565023828154e-05,-9.861541906739722,-0.17390512807989283,-0.05272539765426288,-0.09399981383469944,0.009615
2025-11-25T07:15:45.019231,-0.13236100877434218,0.012783009224594155,-9.88207113130975,-0.16609158213721714,-0.05126874670773835,-0.08978143257261,0.019231
2025-11-25T07:15:45.028846,-0.13433149027074542,0.025510181514843154,-9.902316371789787,-0.15838722644803976,-0.04992160790276171,-0.08559363106453874,0.028846
2025-11-25T07:15:45.038462,-0.1361978268599635,0.038104408968233895,-9.922150784737974,-0.1508898728063991,-0.04879839990099945,-0.08147920261078567,0.038462
2025-11-25T07:15:45.048077,-0.1379147460746716,0.050443488310387426,-9.941458593814877,-0.14368862572412147,-0.048002109462041274,-0.07747888504068981,0.048077
2025-11-25T07:15:45.057692,-0.13943985817389332,0.062417412276912075,-9.960136925206804,-0.1368613418606391,-0.047620532866002034,-0.07363035929893193,0.057692
2025-11-25T07:15:45.067308,-0.14073473214970322,0.07393032089118333,-9.978097213411939,-0.13047272336360852,-0.047723469428424155,-0.0699675746323715,0.067308
2025-11-25T07:15:45.076923,-0.14176585656046917,0.08490181906768773,-9.995266186237949,-0.12457308320896483,-0.04836094693727587,-0.06652040579448593,0.076923
2025-11-25T07:15:45.086538,-0.1425054338712973,0.09526769699100082,-10.01158643721709,-0.11919779358862259,-0.04956249122767165,-0.06331461309933796,0.086538
2025-11-25T07:15:45.096154,-0.1429319650011422,0.1049801156413523,-10.027016592508405,-0.11436739652970006,-0.051337391598462234,-0.060372044832854875,0.096154
2025-11-25T07:15:45.105769,-0.14303059889980008,0.1140073297863075,-10.041531089434615,-0.11008830762042549,-0.053675857277101315,-0.05771099283353028,0.105769
2025-11-25T07:15:45.115385,-0.14279324373403304,0.12233301506644303,-10.055119602621984,-0.10635399069026653,-0.05655090986016879,-0.05534659104651143,0.115385
2025-11-25T07:15:45.125,-0.14221845582516932,0.12995525470870903,-10.067786169355488,-0.10314644177072209,-0.059920820449405096,-0.05329114381638297,0.125
2025-11-25T07:15:45.134615,-0.14131113541313656,0.13688523580288126,-10.079548066186337,-0.10043780279353888,-0.06373188697802774,-0.0515542926943618,0.134615
2025-11-25T07:15:45.144231,-0.140082062556965,0.1431457093268471,-10.090434474373241,-0.09819193323298507,-0.06792136451481037,-0.05014297568949232,0.144231
2025-11-25T07:15:45.153846,-0.13854730447233368,0.14876927996606454,-10.100484959667352,-0.09636580558466544,-0.07242040857062294,-0.049061189481567506,0.153846
2025-11-25T07:15:45.163462,-0.13672752242099365,0.15379660380384383,-10.109747798458237,-0.09491065331420924,-0.07715695148143022,-0.04830961367775861,0.163462
2025-11-25T07:15:45.173077,-0.1346472048251569,0.15827457563641562,-10.118278201210329,-0.09377287044507578,-0.08205847693298443,-0.04788517815659306,0.173077
2025-11-25T07:15:45.182692,-0.13233385227315994,0.16225458050420755,-10.12613649446166,-0.09289472274865493,-0.08705466804280561,-0.04778064475137403,0.182692
2025-11-25T07:15:45.192308,-0.129817136280404,0.16579086936292384,-10.133386316009233,-0.09221497192652316,-0.09207988346545401,-0.04798424599795526,0.192308
2025-11-25T07:15:45.201923,-0.12712804700018737,0.16893909946586066,-10.14009286721344,-0.09166952849542565,-0.09707538667152857,-0.04847939634452003,0.201923
2025-11-25T07:15:45.211538,-0.1242980405496744,0.17175505876455702,-10.14632126461519,-0.09119223018490571,-0.10199123667703865,-0.0492444742111864,0.211538
2025-11-25T07:15:45.221154,-0.12135819786777177,0.1742935764568606,-10.152135035136792,-0.09071579967195875,-0.10678774591190741,-0.050252663358574944,0.221154
2025-11-25T07:15:45.230769,-0.1183384102264707,0.17660761325063065,-10.157594794112812,-0.09017299303541691,-0.11143641549759299,-0.05147183928217473,0.230769
2025-11-25T07:15:45.240385,-0.1152666063364791,0.17874752266862654,-10.16275713381939,-0.08949792757505978,-0.11592027104623293,-0.052864499654111594,0.240385
2025-11-25T07:15:45.25,-0.11216803400876085,0.18076047371404474,-10.167673737230706,-0.08862757568791826,-0.12023355084906845,-0.05438776980927252,0.25
2025-11-25T07:15:45.259615,-0.10906461006898287,0.1826900244215633,-10.172390717301985,-0.08750341833783867,-0.12438074616641841,-0.055993550599037406,0.259615
2025-11-25T07:15:45.269231,-0.10597435594596331,0.18457583738349828,-10.176948167509886,-0.08607324814321737,-0.12837505243817923,-0.057628895683452176,0.269231
2025-11-25T07:15:45.278846,-0.10291094134302368,0.18645353124111166,-10.181379901449224,-0.0842930790221273,-0.1322363434326234,-0.05923669689608456,0.278846
2025-11-25T07:15:45.288462,-0.09988336367858029,0.18835466084819488,-10.18571335943388,-0.08212905411578972,-0.1359888147573965,-0.060756722013409044,0.288462
2025-11-25T07:15:45.298077,-0.09689579372681054,0.19030681000620886,-10.1899696603435,-0.07955917327318614,-0.13965846166750623,-0.06212700157816592,0.298077
2025-11-25T07:15:45.307692,-0.09394761393301646,0.19233376741205238,-10.19416377360707,-0.07657462704126831,-0.14327056753365958,-0.06328551682412684,0.307692
2025-11-25T07:15:45.317308,-0.09103366331209153,0.19445574345838038,-10.198304785011382,-0.07318054494144069,-0.14684738072152206,-0.06417211060140864,0.317308
2025-11-25T07:15:45.326923,-0.08814468328598962,0.19668957545768287,-10.202396232713033,-0.06939602569007222,-0.1504061366067256,-0.06473052681538075,0.326923
2025-11-25T07:15:45.336538,-0.08526793832778688,0.19904886631823324,-10.206436491897689,-0.06525339312011658,-0.1539575370888873,-0.06491047352790985,0.336538
2025-11-25T07:15:45.346154,-0.0823879728262992,0.20154401470791605,-10.210419191732601,-0.060796705106565645,-0.15750475298230096,-0.06466959780582088,0.346154
2025-11-25T07:15:45.355769,-0.07948746557504024,0.2041821262168389,-10.214333665596557,-0.0560796225429968,-0.16104298980115514,-0.06397526025373944,0.355769
2025-11-25T07:15:45.365385,-0.07654815090757756,0.20696683222952922,-10.218165460460737,-0.05116279976992537,-0.1645596569169483,-0.06280600529527902,0.365385
2025-11-25T07:15:45.375,-0.07355178190045364,0.2098980634374597,-10.221896946110933,-0.04611097868551272,-0.16803517839500107,-0.061152637149971906,0.375
2025-11-25T07:15:45.384615,-0.07048111055195841,0.2129718198845623,-10.225508057522834,-0.04098997023524363,-0.17144444956911914,-0.05901882983031811,0.384615
2025-11-25T07:15:45.394231,-0.06732085190570077,0.21617996543301263,-10.22897717636928,-0.03586370332748541,-0.1747588658632517,-0.056421222533885,0.394231
2025-11-25T07:15:45.403846,-0.06405858762323392,0.21951006979406684,-10.232282121024564,-0.0307915124181458,-0.17794874905815147,-0.05338897777421779,0.403846
2025-11-25T07:15:45.413462,-0.06068555584587371,0.22294532620249205,-10.235401179124072,-0.02582581334128352,-0.18098591076411052,-0.04996280582066615,0.413462
2025-11-25T07:15:45.423077,-0.057197272567666296,0.22646457767047623,-10.23831409000204,-0.021010277857521194,-0.1838460618350346,-0.046193485840828725,0.423077
2025-11-25T07:15:45.432692,-0.05359393404713661,0.2300424823312374,-10.241002872412095,-0.016378565784967776,-0.1865108126031427,-0.04213994515837956,0.432692
2025-11-25T07:15:45.442308,-0.04988055709773011,0.23364983718756907,-10.2434524018553,-0.011953621072747354,-0.18896908879499438,-0.03786699526286865,0.442308
2025-11-25T07:15:45.451923,-0.04606682607772715,0.23725406241524408,-10.245650672503283,-0.007747494740933931,-0.19121787300404033,-0.033442859428140057,0.451923
2025-11-25T07:15:45.461538,-0.04216663656632906,0.2408198280369604,-10.24758872398118,-0.0037616301109675205,-0.19326224910757234,-0.028936644875888158,0.461538
2025-11-25T07:15:45.471154,-0.03819735431428796,0.24430978348598872,-10.249260261002716,1.2462041492722156e-05,-0.19511477775996305,-0.024415900817628643,0.471154
2025-11-25T07:15:45.480769,-0.03417883473271942,0.24768533497365275,-10.250661030875618,0.0035922037005214464,-0.19679427261211171,-0.019944370468057332,0.480769
2025-11-25T07:15:45.490385,-0.0301322662772845,0.25090741432518904,-10.251788041899736,0.007002678777464523,-0.19832408407535568,-0.015580008091926448,0.490385
2025-11-25T07:15:45.5,-0.026078911972798668,0.25393719667959197,-10.252638707068703,0.010275134419475583,-0.19973003509700563,-0.011373301886503174,0.5
2025-11-25T07:15:45.509615,-0.022038830238212896,0.25673674525123985,-10.253209992318775,0.01344529407089211,-0.20103819074444038,-0.007365922912493654,0.509615
2025-11-25T07:15:45.519231,-0.018029659736715477,0.25926958192741245,-10.253497644821104,0.016551535418918458,-0.2022726649953529,-0.003589711448251381,0.519231
2025-11-25T07:15:45.528846,-0.014065552677567355,0.2615011990464142,-10.253495574683114,0.01963301876366429,-0.20345365528506634,-6.601445083534918e-05,0.528846
2025-11-25T07:15:45.538462,-0.01015633539531146,0.26339953682846573,-10.253195456482503,0.022727884437150563,-0.2045958484788431,0.0031946063859511833,0.538462
2025-11-25T07:15:45.548077,-0.006306961656404107,0.26493545072759933,-10.252586598018274,0.025871645616522825,-0.2057072822928889,0.006192278421197749,0.548077
2025-11-25T07:15:45.557692,-0.002517302156552719,0.26608318614095344,-10.251656092076354,0.029095875945977116,-0.20678869608014672,0.008937332994563205,0.557692
2025-11-25T07:15:45.567308,0.0012177148828585573,0.266820869431478,-10.250389232345304,0.032427246942124316,-0.20783337295149473,0.011449459965936907,0.567308
2025-11-25T07:15:45.576923,0.00490762840969306,0.26713101529879585,-10.248770148404379,0.03588693257460931,-0.20882745572004768,0.013756558554085663,0.576923
2025-11-25T07:15:45.586538,0.008565679345965267,0.26700103739403686,-10.246782599171468,0.039490375637840525,-0.20975069757169099,0.01589335356070916,0.586538
2025-11-25T07:15:45.596154,0.012207819785221369,0.2664237317339582,-10.244410854678383,0.04324739728462354,-0.2105775745528932,0.01789984098439525,0.596154
2025-11-25T07:15:45.605769,0.015851569235597773,0.26539769045171324,-10.24164059248888,0.047162623235173326,-0.21127865105459206,0.0198196169857992,0.605769
2025-11-25T07:15:45.615385,0.01951479150727161,0.26392760464022286,-10.238459739838417,0.051236193334365625,-0.21182207592899774,0.021698140366947134,0.615385
2025-11-25T07:15:45.625,0.023214465220877743,0.2620244246681373,-10.23485920168105,0.055464706430309,-0.21217510588169947,0.02358098064399378,0.625
2025-11-25T07:15:45.634615,0.0269655217114293,0.2597053554341099,-10.230833425549354,0.05984232578343288,-0.21230558556559442,0.025512104627213792,0.634615
2025-11-25T07:15:45.644231,0.03077982407599424,0.2569936727307734,-10.226380772107179,0.06436194143045582,-0.21218333286699015,0.027532250751417922,0.644231
2025-11-25T07:15:45.653846,0.03466535458261849,0.2539183607382128,-10.221503687108749,0.06901627443267444,-0.2117813766230944,0.02967743529027409,0.653846
2025-11-25T07:15:45.663462,0.038625659794187285,0.2505135877887918,-10.216208696497345,0.07379882475473655,-0.21107698923738863,0.031977632435569676,0.663462
2025-11-25T07:15:45.673077,0.042659574073610415,0.2468180468798987,-10.210506261881637,0.07870459639960373,-0.21005246375755712,0.03445566938759455,0.673077
2025-11-25T07:15:45.682692,0.046761211171060905,0.2428741805154876,-10.204410536411533,0.0837305503177233,-0.20869560236580417,0.03712637343607373,0.682692
2025-11-25T07:15:45.692308,0.050920193238388874,0.23872729234259438,-10.197939053330979,0.08887572552437706,-0.20699990327182632,0.03999600262629615,0.692308
2025-11-25T07:15:45.701923,0.055122083469408896,0.23442453956005807,-10.191112364590325,0.09414095983472806,-0.20496445467530044,0.04306199210471583,0.701923
2025-11-25T07:15:45.711538,0.059348995958174756,0.23001381487057043,-10.183953628531022,0.09952817241154446,-0.2025935690562991,0.04631305509668468,0.711538
2025-11-25T07:15:45.721154,0.06358036047304085,0.22554255832311232,-10.176488130536328,0.10503924449872423,-0.19989621206773678,0.04972968009877008,0.721154
2025-11-25T07:15:45.730769,0.06779381282229255,0.22105656395783435,-10.168742720662044,0.11067461997252384,-0.19688528540875988,0.05328505060489113,0.730769
2025-11-25T07:15:45.740385,0.07196616744814976,0.21659884539721494,-10.160745175717969,0.11643180958849594,-0.1935768092854964,0.056946376019260725,0.740385
2025-11-25T07:15:45.75,0.0760744179560002,0.21220860179718293,-10.152523530854165,0.12230400510946424,-0.18998903016542643,0.060676570852260574,0.75
2025-11-25T07:15:45.759615,0.0800967102191156,0.20792030044189083,-10.144105452922993,0.12827898996329734,-0.18614146832519873,0.06443616847993311,0.759615
2025-11-25T07:15:45.769231,0.08401324094653502,0.2037628829140897,-10.135517723879738,0.13433848067874776,-0.18205392362703818,0.06818531997969023,0.769231
2025-11-25T07:15:45.778846,0.0878070465918508,0.19975911143781297,-10.126785867356693,0.14045796496295418,-0.17774547714708597,0.07188571944604968,0.778846
2025-11-25T07:15:45.788462,0.09146465762471065,0.19592508808116382,-10.117933905897134,0.14660703747850187,-0.17323355235789129,0.07550231884660775,0.788462
2025-11-25T07:15:45.798077,0.09497659944891348,0.19226998473119308,-10.108984204453293,0.15275018671180213,-0.1685331163778606,0.07900474067512221,0.798077
2025-11-25T07:15:45.807692,0.09833772440252206,0.18879600786079934,-10.099957348162558,0.1588479558588249,-0.16365609949657073,0.08236835148757395,0.807692
2025-11-25T07:15:45.817308,0.1015473603084138,0.18549859602870425,-10.090872011781862,0.16485837934538813,-0.15861109110198024,0.08557500980448889,0.817308
2025-11-25T07:15:45.826923,0.10460926121743688,0.1823668264074688,-10.081744789773222,0.17073858430162608,-0.15340333500127748,0.08861353475928364,0.826923
2025-11-25T07:15:45.836538,0.10753134843589979,0.17938400124241716,-10.072589962368058,0.17644645422792654,-0.14803500381156617,0.09147994815504491,0.836538
2025-11-25T07:15:45.846154,0.11032523839255388,0.17652839161923176,-10.063419178535321,0.18194228274817376,-0.14250570026946466,0.09417752470353898,0.846154
2025-11-25T07:15:45.855769,0.11300556882627115,0.17377411909696988,-10.054241049715165,0.18719037664639027,-0.136813128829641,0.09671665745418837,0.855769
2025-11-25T07:15:45.865385,0.11558915239481256,0.17109214679520807,-10.045060670474413,0.1921605729627809,-0.13095389306354596,0.0991145229729215,0.865385
2025-11-25T07:15:45.875,0.11809400284189411,0.16845133648035854,-10.03587910993929,0.1968296172417586,-0.1249243798914332,0.10139452052107358,0.875
2025-11-25T07:15:45.884615,0.12053829093885703,0.16581951978695839,-10.026692943898674,0.20118233206017114,-0.11872168729309973,0.10358546049029806,0.884615
2025-11-25T07:15:45.894231,0.1229392936934522,0.16316453528790809,-10.017493911350341,0.20521249447580983,-0.11234455287783959,0.10572048706633999,0.894231
2025-11-25T07:15:45.903846,0.12531239984796005,0.16045519323578664,-10.008268771137882,0.20892333207002123,-0.10579425227806194,0.10783573886732921,0.903846
2025-11-25T07:15:45.913462,0.12767022966155306,0.15766213942335489,-9.998999404247039,0.21232754859944553,-0.09907544957587934,0.10996878091762209,0.913462
2025-11-25T07:15:45.923077,0.13002191954592793,0.15475859731883088,-9.989663168277966,0.21544681720950515,-0.0921969870784548,0.11215687719428755,0.923077
2025-11-25T07:15:45.932692,0.1323726096584775,0.15172097421527309,-9.980233479941276,0.21831072558985284,-0.0851725925794363,0.11443520217670636,0.932692
2025-11-25T07:15:45.942308,0.13472315283297628,0.14852932161162782,-9.970680587683932,0.22095520618796324,-0.07802145851805994,0.11683510090488833,0.942308
2025-11-25T07:15:45.951923,0.13707004208014173,0.14516764233684137,-9.960972493934763,0.22342053192392874,-0.07076862292354216,0.11938249976214416,0.951923
2025-11-25T07:15:45.961538,0.1394055391382082,0.1416240398015141,-9.95107598325534,0.2257490051208882,-0.06344507535492981,0.12209655441952089,0.961538
2025-11-25T07:15:45.971154,0.14171797806188827,0.13789070906417258,-9.94095770597544,0.22798250517065272,-0.056087525060593155,0.12498860690030814,0.971154
2025-11-25T07:15:45.980769,0.1439922117434619,0.13396377201826248,-9.930585266938316,0.23016007742965733,-0.0487377938867023,0.1280615103003765,0.980769
2025-11-25T07:15:45.990385,0.14621016681181748,0.12984296045565116,-9.91992828473128,0.2323157404714519,-0.041441829698418094,0.1313093591837375,0.990385
2025-11-25T07:15:46,0.1483514770672413,0.12553115838090062,-9.908959409433844,0.23447666548244703,-0.03424837632730313,0.13471763287138674,1.0
2025-11-25T07:15:46.009615,0.1503941758238497,0.12103383295842861,-9.89765529723313,0.23666184431660767,-0.02720737200589582,0.138263725229561,1.009615
2025-11-25T07:15:46.019231,0.15231543699351804,0.11635840575840478,-9.885997530911881,0.23888131667367435,-0.02036816654350458,0.14191780713499538,1.019231
2025-11-25T07:15:46.028846,0.15409235783656816,0.11151363133169633,-9.873973455618094,0.24113597924578464,-0.013777647368188544,0.14564395009892514,1.028846
2025-11-25T07:15:46.038462,0.15570277063792998,0.1065090510278649,-9.861576882673623,0.24341795400370494,-0.00747835367327163,0.14940143508357726,1.038462
2025-11-25T07:15:46.048077,0.15712605777088398,0.10135457713760751,-9.848808611144204,0.24571144748138182,-0.0015066408275627207,0.15314618204612251,1.048077
2025-11-25T07:15:46.057692,0.15834393078355236,0.09606024288504099,-9.835676733632237,0.24799399140277445,0.00410906299600161,0.1568322535032892,1.057692
2025-11-25T07:15:46.067308,0.15934112746769521,0.0906361330310806,-9.822196722203971,0.25023793035812,0.009349878482424242,0.16041339340185132,1.067308
2025-11-25T07:15:46.076923,0.1601059858582135,0.08509248774201608,-9.808391313587412,0.2524120252074378,0.014207934635709593,0.1638445593193261,1.076923
2025-11-25T07:15:46.086538,0.16063086768512552,0.07943994737028727,-9.794290217892602,0.25448306801351583,0.018687588590468592,0.16708340212130623,1.086538
2025-11-25T07:15:46.096154,0.16091241840357134,0.07368988042006876,-9.779929668461117,0.2564174415526175,0.022806286785755806,0.17009164643422242,1.096154
2025-11-25T07:15:46.105769,0.16095166142042902,0.06785471848720363,-9.765351826461092,0.2581825907149876,0.026594932152556892,0.17283632448679345,1.105769
2025-11-25T07:15:46.115385,0.16075393068432045,0.06194821886711684,-9.750604059036204,0.25974839669577887,0.030097642891577164,0.17529081513131245,1.115385
2025-11-25T07:15:46.125,0.16032865143039549,0.0559855914698907,-9.735738117368305,0.26108845141669534,0.03337083585602127,0.17743564075665208,1.125
2025-11-25T07:15:46.134615,0.15968898552073602,0.049983456366151806,-9.720809239168617,0.26218121347071244,0.036481626563125945,0.17925897715098885,1.134615
2025-11-25T07:15:46.144231,0.15885136390809548,0.04395963089616395,-9.7058751860162,0.2630109920116602,0.039505601977939814,0.18075683813198093,1.144231
2025-11-25T07:15:46.153846,0.15783493055005454,0.037932770975213546,-9.690995209855915,0.2635686723902097,0.04252408356268878,0.18193291446663226,1.153846
2025-11-25T07:15:46.163462,0.15666091891793182,0.03192190420258561,-9.676228938093262,0.2638520948937221,0.04562103934539956,0.1827980771996444,1.163462
2025-11-25T07:15:46.173077,0.15535197844330734,0.025945893381543152,-9.661635177843284,0.2638660344163591,0.04887981149259859,0.18336959211457934,1.173077
2025-11-25T07:15:46.182692,0.15393146787213657,0.02002286614151084,-9.647270662093625,0.26362178128818264,0.052379805843924244,0.18367012225405865,1.182692
2025-11-25T07:15:46.192308,0.15242273463245634,0.014169647077180778,-9.633188783503465,0.26313636091412723,0.05619326491998134,0.18372660731328222,1.192308
2025-11-25T07:15:46.201923,0.1508484002906433,0.008401231738012717,-9.619438373095361,0.2624314459432071,0.0603822385568544,0.18356909949595662,1.201923
2025-11-25T07:15:46.211538,0.14922966996169112,0.0027303392825031767,-9.606062575013455,0.2615320258165585,0.06499587934465945,0.18322961523272427,1.211538
2025-11-25T07:15:46.221154,0.14758568108714068,-0.0028329315299802276,-9.593097853636285,0.2604649157613022,0.0700682047543049,0.1827410427071923,1.221154
2025-11-25T07:15:46.230769,0.14593291077237303,-0.008281335252186325,-9.580573163440324,0.2592572028722569,0.07561646195040773,0.18213612632894352,1.230769
2025-11-25T07:15:46.240385,0.14428467132358092,-0.013610605241902473,-9.568509322195364,0.2579347262435913,0.08164019752471707,0.18144652566352346,1.240385
2025-11-25T07:15:46.25,0.14265073008333548,-0.018819475493646688,-9.55691864141972,0.25652066604182067,0.08812108545652612,0.18070192509983166,1.25
2025-11-25T07:15:46.259615,0.14103708166743206,-0.023909595160605666,-9.545804864979788,0.25503428414238827,0.09502352049950177,0.1799291722030808,1.259615
2025-11-25T07:15:46.269231,0.13944588019961426,-0.02888532712569562,-9.53516344221703,0.25348983735383024,0.10229594473652404,0.1791514561485967,1.269231
2025-11-25T07:15:46.278846,0.1378755169058165,-0.03375342843887371,-9.524982131110235,0.2518956865034475,0.10987283737891039,0.17838758116508485,1.278846
2025-11-25T07:15:46.288462,0.1363208140544445,-0.03852262974844954,-9.515241907864072,0.2502536450651929,0.11767726621939482,0.17765140894417442,1.288462
2025-11-25T07:15:46.298077,0.1347733044457006,-0.04320315289331354,-9.505918152991738,0.24855863109568138,0.12562388193665067,0.17695152599554897,1.298077
2025-11-25T07:15:46.307692,0.13322157602056375,-0.0478062150832109,-9.496982077598577,0.24679868816202877,0.13362223166965806,0.1762911551641339,1.307692
2025-11-25T07:15:46.317308,0.1316516768577237,-0.05234355682076165,-9.488402340432595,0.24495541727607242,0.1415802666266995,0.17566830002051825,1.317308
2025-11-25T07:15:46.326923,0.13004758661299343,-0.056827004635579915,-9.4801467904167,0.24300481839635057,0.1494079147909991,0.175076094484636,1.326923
2025-11-25T07:15:46.336538,0.12839176061082552,-0.061268053234261856,-9.47218425349662,0.24091849032495102,0.15702058514847603,0.1745033194245228,1.336538
2025-11-25T07:15:46.346154,0.1266657439599953,-0.06567743888274367,-9.464486266271045,0.23866509553369133,0.16434246681027778,0.17393503592377832,1.346154
2025-11-25T07:15:46.355769,0.12485083977032384,-0.07006467916359764,-9.45702864682392,0.2362119723446885,0.17130948421889078,0.17335327535034115,1.355769
2025-11-25T07:15:46.365385,0.1229288031161898,-0.07443756248327532,-9.449792794529493,0.23352677460749008,0.17787176555096476,0.17273772756785272,1.365385
2025-11-25T07:15:46.375,0.12088252699615099,-0.07880157580669615,-9.442766632354486,0.23057903130504062,0.1839954784703771,0.1720663838827022,1.375
2025-11-25T07:15:46.384615,0.11869669032793978,-0.08315926914367519,-9.435945147306787,0.22734153494020165,0.1896638966552206,0.17131611829008353,1.384615
2025-11-25T07:15:46.394231,0.11635834496165742,-0.08750958156071184,-9.429330533459023,0.2237914862708463,0.19487759071153898,0.17046322349271273,1.394231
2025-11-25T07:15:46.403846,0.11385741982035871,-0.09184719118967223,-9.422931975099257,0.21991134904722404,0.19965368673481823,0.16948394703518668,1.403846
2025-11-25T07:15:46.413462,0.11118711359426062,-0.0961619816418516,-9.416765115199588,0.21568940397430578,0.2040241998031223,0.16835508612298575,1.413462
2025-11-25T07:15:46.423077,0.108344141250304,-0.10043872361447766,-9.41085124788472,0.2111200307091384,0.20803352527471475,0.16705469119947972,1.423077
2025-11-25T07:15:46.432692,0.1053288046578601,-0.10465705337465067,-9.405216270432694,0.2062037777210191,0.21173525125639509,0.1655629005793228,1.432692
2025-11-25T07:15:46.442308,0.1021448756299296,-0.10879179989548686,-9.399889438388396,0.20094728828593722,0.21518852557550974,0.1638628889711784,1.442308
2025-11-25T07:15:46.451923,0.09879930213716123,-0.11281367682090834,-9.39490198173047,0.19536313183659093,0.2184542537830855,0.16194187127989712,1.451923
2025-11-25T07:15:46.461538,0.09530176511561148,-0.11669031469494806,-9.390285649517763,0.18946955250009984,0.22159141287947298,0.15979207155121058,1.461538
2025-11-25T07:15:46.471154,0.091664119602084,-0.12038756774496454,-9.386071249395428,0.18329010945538754,0.22465373573040145,0.15741155642028407,1.471154
2025-11-25T07:15:46.480769,0.08789975369989705,-0.12387100092464486,-9.382287242676295,0.1768531661899915,0.22768695513173984,0.1548048450687545,1.480769
2025-11-25T07:15:46.490385,0.08402290113606088,-0.12710745554612607,-9.378958453627108,0.17019119825157983,0.23072671007403775,0.15198323429962704,1.490385
2025-11-25T07:15:46.5,0.08004795229369614,-0.1300665998462063,-9.376104952072113,0.1633399242801237,0.23379713984462336,0.1489648060920932,1.5
2025-11-25T07:15:46.509615,0.07598881844604352,-0.1327223816890581,-9.373741164099304,0.15633730143906005,0.23691014691869372,0.14577410830281376,1.509615
2025-11-25T07:15:46.519231,0.07185840482732271,-0.13505430775683577,-9.371875251441347,0.14922244668554394,0.24006529560585327,0.14244151308352782,1.519231
2025-11-25T07:15:46.528846,0.06766823680911935,-0.1370484787857079,-9.370508774317186,0.14203454894713896,0.24325031150672752,0.13900226244428726,1.528846
2025-11-25T07:15:46.538462,0.06342826337921496,-0.13869831939858027,-9.369636617554923,0.13481183124769452,0.24644214100745224,0.13549521281366567,1.538462
2025-11-25T07:15:46.548077,0.05914683835158237,-0.1400049595154204,-9.36924712860523,0.12759061055734103,0.24960851683096055,0.13196130032996783,1.548077
2025-11-25T07:15:46.557692,0.05483085652644109,-0.14097725332367306,-9.369322408513911,0.12040448958477108,0.25270995776546207,0.12844177278248164,1.557692
2025-11-25T07:15:46.567308,0.05048600425050077,-0.14163145510912115,-9.36983871976327,0.11328369826490194,0.2557021091494342,0.12497626966704571,1.567308
2025-11-25T07:15:46.576923,0.046117075450744824,-0.14199059892319008,-9.370767011688374,0.106254577122601,0.2585383068490917,0.12160086429976806,1.576923
2025-11-25T07:15:46.586538,0.04172830471909982,-0.14208364454944217,-9.372073591949622,0.0993391626874279,0.2611722250087743,0.11834619653347661,1.586538
2025-11-25T07:15:46.596154,0.037323674159180885,-0.1419444544861137,-9.37372098059475,0.09255481706155864,0.26356044995739203,0.1152358200785479,1.596154
2025-11-25T07:15:46.605769,0.03290715683958793,-0.14161065767589187,-9.375668973678307,0.0859138584054065,0.2656648122269686,0.11228487404224204,1.605769
2025-11-25T07:15:46.615385,0.028482867023540193,-0.14112244060250542,-9.37787592168714,0.07942319359506421,0.26745431012809295,0.10949916917455724,1.615385
2025-11-25T07:15:46.625,0.024055098758972694,-0.14052129395406543,-9.380300197667431,0.07308400719403155,0.26890647713583904,0.10687475195845697,1.625
2025-11-25T07:15:46.634615,0.019628250812872693,-0.13984874011399065,-9.382901797152467,0.06689159600796558,0.27000808679565574,0.10439797168454609,1.634615
2025-11-25T07:15:46.644231,0.015206654196738471,-0.13914507139402177,-9.38564398928318,0.06083543895474578,0.2707551530647047,0.1020460341201849,1.644231
2025-11-25T07:15:46.653846,0.010794334222919833,-0.1384481331012396,-9.388494933809774,0.05489956094448031,0.2711522601593736,0.09978799346335333,1.653846
2025-11-25T07:15:46.663462,0.006394748271005977,-0.13779218384693073,-9.391429184135347,0.04906320711881234,0.2712113272139987,0.09758611844826125,1.663462
2025-11-25T07:15:46.673077,0.002010540621294958,-0.13720685926627418,-9.394428997472641,0.043301810516930626,0.27094996453716996,0.09539755988211227,1.673077
2025-11-25T07:15:46.682692,-0.002356652138407282,-0.13671625788117042,-9.397485365301131,0.03758821666196537,0.27038959861725914,0.09317623119133231,1.682692
2025-11-25T07:15:46.692308,-0.00670632258509545,-0.13633816049857456,-9.400598671407408,0.031894112530181755,0.269553529764348,0.0908747914261162,1.692308
2025-11-25T07:15:46.701923,-0.01103912762411473,-0.13608338965992423,-9.403778896095545,0.026191587553009158,0.26846505335239734,0.08844660784864113,1.701923
2025-11-25T07:15:46.711538,-0.015356831022948346,-0.13595531752413204,-9.407045319697922,0.020454736325685594,0.26714574362903853,0.08584758298897308,1.711538
2025-11-25T07:15:46.721154,-0.019662152971625223,-0.13594953868879892,-9.410425727739312,0.014661205577858617,0.265613979132706,0.08303775446344278,1.721154
2025-11-25T07:15:46.730769,-0.02395853176122114,-0.1360537325245969,-9.413955167160706,0.008793594504602245,0.263883781449127,0.07998260775235189,1.730769
2025-11-25T07:15:46.740385,-0.028249806947014892,-0.13624774279114446,-9.417674336034956,0.0028406337952297804,0.26196403510148647,0.07665407890799013,1.740385
2025-11-25T07:15:46.75,-0.03253983816441621,-0.13650389906226265,-9.421627709791263,-0.0032019140994666044,0.25985813781539285,0.0730312593844601,1.75
2025-11-25T07:15:46.759615,-0.03683208192487956,-0.1367875946437874,-9.425861522872284,-0.009330677822131745,0.2575640884953606,0.06910083816440334,1.759615
2025-11-25T07:15:46.769231,-0.04112915982337546,-0.1370581231455042,-9.430421735710073,-0.015534454095149398,0.255074970386473,0.06485732117872343,1.769231
2025-11-25T07:15:46.778846,-0.04543246075632601,-0.13726976566308266,-9.43535211556686,-0.021794354108328893,0.2523797541986409,0.0603030590731863,1.778846
2025-11-25T07:15:46.788462,-0.04974182010835996,-0.13737311022461277,-9.440692544628728,-0.028084321768434183,0.24946434059894787,0.05544810094917255,1.788462
2025-11-25T07:15:46.798077,-0.05405530673669324,-0.13731656930659464,-9.446477644240913,-0.03437201283668407,0.24631277315013475,0.05030988158994239,1.798077
2025-11-25T07:15:46.807692,-0.058369128415785454,-0.13704804179621632,-9.452735770999507,-0.04061999691437744,0.24290856352978335,0.0449127478175418,1.807692
2025-11-25T07:15:46.817308,-0.0626776483072061,-0.13651664892659024,-9.459488398873411,-0.046787205401609494,0.2392360701276296,0.0392873360792624,1.817308
2025-11-25T07:15:46.826923,-0.06697349570287069,-0.13567446076824702,-9.466749861231573,-0.05283051796733922,0.23528186375968238,0.03346982277040284,1.826923
2025-11-25T07:15:46.836538,-0.07124775214175796,-0.13447811910131047,-9.474527400997333,-0.05870637234787501,0.23103601329529397,0.02750107623902012,1.836538
2025-11-25T07:15:46.846154,-0.07549019298413084,-0.1328902584077356,-9.482821470767789,-0.06437229825367838,0.22649323288465523,0.021425743661579896,1.846154
2025-11-25T07:15:46.855769,-0.07968956134616059,-0.13088064033680671,-9.491626230946169,-0.0697883125499482,0.2216538432962577,0.015291305006336414,1.855769
2025-11-25T07:15:46.865385,-0.08383384814827163,-0.12842695027523135,-9.500930200520308,-0.07491816133280634,0.2165245081425107,0.009147117046036282,1.865385
2025-11-25T07:15:46.875,-0.08791055256747662,-0.12551524206858458,-9.51071701295575,-0.07973043431413576,0.21111871206563268,0.003043454939456817,1.875
2025-11-25T07:15:46.884615,-0.09190690212793248,-0.12214004479958596,-9.520966220309608,-0.08419958413356224,0.2054569499463151,-0.002969455515277855,1.884615
2025-11-25T07:15:46.894231,-0.09581001978259365,-0.11830416780923764,-9.531654083254816,-0.08830685244572702,0.19956659336776916,-0.008842428644331319,1.894231
2025-11-25T07:15:46.903846,-0.0996070358210185,-0.11401826193212299,-9.542754295004096,-0.09204105818154087,0.19348140203491718,-0.014528341683434823,1.903846
2025-11-25T07:15:46.913462,-0.10328515482370397,-0.10930020854518184,-9.554238616823387,-0.09539917308944625,0.18724066684654023,-0.019983183108727594,1.913462
2025-11-25T07:15:46.923077,-0.1068317005680421,-0.10417440691181028,-9.56607744288449,-0.0983866102621355,0.18088801137371363,-0.0251671023560596,1.923077
2025-11-25T07:15:46.932692,-0.11023417031467524,-0.09867101748598138,-9.578240343448934,-0.1010171770736027,0.17446992520902346,-0.03004542842181718,1.932692
2025-11-25T07:15:46.942308,-0.113480329217673,-0.09282519773790762,-9.590696640418486,-0.10331268330062593,0.16803413242995496,-0.034589628777850656,1.942308
2025-11-25T07:15:46.951923,-0.1165583661152847,-0.08667633961877715,-9.603416045543309,-0.10530223593070705,0.16162789861517352,-0.03877818922798267,1.951923
2025-11-25T07:15:46.961538,-0.11945711977595112,-0.08026729111112027,-9.616369352612212,-0.10702127859023208,0.15529635669200742,-0.042597400993722855,1.961538
2025-11-25T07:15:46.971154,-0.1221663754509084,-0.07364352893012946,-9.629529138777944,-0.10851043606437519,0.14908089983998904,-0.046042037202808965,1.971154
2025-11-25T07:15:46.980769,-0.12467722663527402,-0.06685225159394301,-9.642870406708244,-0.10981421268098823,0.14301766273285352,-0.049115885683327774,1.980769
2025-11-25T07:15:46.990385,-0.1269824922752856,-0.05994138038149573,-9.65637108913299,-0.11097958701959748,0.13713610441771087,-0.05183208592258682,1.990385
2025-11-25T07:15:47,-0.12907716840957756,-0.05295848292414445,-9.670012339990807,-0.11205454974478449,0.13145772541014383,-0.05421320786697526,2.0
2025-11-25T07:15:47.009615,-0.1309588746574409,-0.04594966125462734,-9.683778553891303,-0.11308663585160271,0.1259949893357125,-0.056291016379338234,2.009615
2025-11-25T07:15:47.019231,-0.1326282403995812,-0.038958464934707046,-9.697657087678191,-0.11412150276777638,0.1207505501272583,-0.05810588540633907,2.019231
2025-11-25T07:15:47.028846,-0.13408917451044922,-0.0320248933294236,-9.71163769814334,-0.11520160809581692,0.11571688648442831,-0.0597058534413436,2.028846
2025-11-25T07:15:47.038462,-0.13534897696139592,-0.025184536155695544,-9.72571174980296,-0.1163650462685515,0.11087641345226726,-0.06114534149850174,2.038462
2025-11-25T07:15:47.048077,-0.13641827224043251,-0.018467874933555572,-9.739871278279509,-0.11764460097123115,0.10620208851787503,-0.06248358201854798,2.048077
2025-11-25T07:15:47.057692,-0.13731076500181646,-0.011899742892468944,-9.754108011859914,-0.11906704819591608,0.10165847072169769,-0.06378282479667155,2.057692
2025-11-25T07:15:47.067308,-0.13804283297484563,-0.005498924977394781,-9.768412454191823,-0.1206527038180996,0.09720314445040808,-0.06510638992836432,2.067308
2025-11-25T07:15:47.076923,-0.1386329784887845,0.0007221262967412038,-9.782773117304085,-0.12241516538264138,0.09278840219192726,-0.06651663390930816,2.076923
2025-11-25T07:15:47.086538,-0.13910115878403645,0.0067574788762903935,-9.797175969632638,-0.12436117349311071,0.08836308826375411,-0.06807289267111469,2.086538
2025-11-25T07:15:47.096154,-0.13946801262433434,0.01260781785277385,-9.811604132463456,-0.12649053046709685,0.08387451486750722,-0.06982946488311273,2.096154
2025-11-25T07:15:47.105769,-0.1397540043270352,0.018280434964848134,-9.826037824961045,-0.12879605827385682,0.07927036077710715,-0.07183369500712772,2.105769
2025-11-25T07:15:47.115385,-0.13997851826492316,0.02378907799981489,-9.840454527065994,-0.13126362435033978,0.07450046402349152,-0.07412420872543228,2.115385
2025-11-25T07:15:47.125,-0.14015895187077207,0.029153621104133037,-9.85482930718673,-0.13387227892815864,0.06951843750233914,-0.07672934905084627,2.125
2025-11-25T07:15:47.134615,-0.140309866612326,0.034399523055600637,-9.869135256943073,-0.1365945264858107,0.06428306600907444,-0.07966586103343298,2.134615
2025-11-25T07:15:47.144231,-0.14044226061099552,0.039557055124728124,-9.883343991013204,-0.1393967245658403,0.0587594714743083,-0.08293787086909538,2.144231
2025-11-25T07:15:47.153846,-0.14056301981951583,0.044660299162454294,-9.897426193070809,-0.14223959250634638,0.05292005350792172,-0.08653619578441589,2.153846
2025-11-25T07:15:47.163462,-0.14067458383425444,0.04974593643106823,-9.911352200050088,-0.14507882290583987,0.04674522093832228,-0.09043800729188799,2.163462
2025-11-25T07:15:47.173077,-0.14077483326772489,0.05485186507661548,-9.925092614770225,-0.14786580689017523,0.04022392521207833,-0.09460686333373107,2.173077
2025-11-25T07:15:47.182692,-0.1408571819458174,0.060015696329675114,-9.938618935474873,-0.15054849861718073,0.03335399748635151,-0.09899313115194987,2.182692
2025-11-25T07:15:47.192308,-0.14091084640513754,0.06527318604323774,-9.95190419489131,-0.15307244528788036,0.026142287550330993,-0.103534834787722,2.192308
2025-11-25T07:15:47.201923,-0.1409212623373837,0.07065666305818323,-9.964923599462304,-0.1553819907372194,0.0186045991196391,-0.10815896319083755,2.201923
2025-11-25T07:15:47.211538,-0.14087061642208154,0.07619352555502293,-9.977655143426535,-0.15742163158884168,0.010765406282238939,-0.11278325771800582,2.211538
2025-11-25T07:15:47.221154,-0.14073846236983723,0.08190489105726861,-9.990080148945717,-0.15913748224752267,0.002657328199865198,-0.11731846599416725,2.221154
2025-11-25T07:15:47.230769,-0.14050239412334092,0.08780449399063929,-10.002183666125102,-0.16047879587054467,-0.0056796584673990715,-0.12167101599732955,2.230769
2025-11-25T07:15:47.240385,-0.1401387570307689,0.09389791329222666,-10.013954668242025,-0.161399483279919,-0.014199282510698935,-0.1257460378397491,2.240385
2025-11-25T07:15:47.25,-0.1396233866929953,0.10018217921222125,-10.025386003239413,-0.16185956008430608,-0.022850318408230902,-0.12945063692382214,2.25
2025-11-25T07:15:47.259615,-0.1389323706857991,0.10664576470312727,-10.036474104260368,-0.1618264402454575,-0.03157817895819398,-0.13269729475535713,2.259615
2025-11-25T07:15:47.269231,-0.13804282787050526,0.11326892974032612,-10.04721850250386,-0.16127599891409528,-0.040326689811273096,-0.13540724711111227,2.269231
2025-11-25T07:15:47.278846,-0.13693369432200195,0.12002436893180334,-10.05762121316145,-0.16019335287600783,-0.04903993218483727,-0.1375136751594983,2.278846
2025-11-25T07:15:47.288462,-0.1355864960315876,0.1268781153455261,-10.067686077962726,-0.15857333562271766,-0.05766402553134189,-0.13896454894445157,2.288462
2025-11-25T07:15:47.298077,-0.13398607963189008,0.13379066642384968,-10.077418148083765,-0.15642065522872634,-0.06614874202218671,-0.13972497861355387,2.298077
2025-11-25T07:15:47.307692,-0.13212126811597788,0.14071830472393965,-10.08682318009581,-0.15374971743349639,-0.07444888327633847,-0.13977894755211404,2.307692
2025-11-25T07:15:47.317308,-0.1299854106403868,0.14761457680049622,-10.095907295094584,-0.15058409249773547,-0.08252538281133752,-0.1391303194115243,2.317308
2025-11-25T07:15:47.326923,-0.12757680025497237,0.15443187318530108,-10.104676818666636,-0.14695561561946074,-0.09034610933725008,-0.1378030320199174,2.326923
2025-11-25T07:15:47.336538,-0.12489893723449806,0.1611230353269793,-10.113138284126045,-0.14290313511862907,-0.09788634230467697,-0.1358404215721171,2.336538
2025-11-25T07:15:47.346154,-0.12196061960007445,0.16764291112700236,-10.121298554130705,-0.13847095484637498,-0.10512889712523714,-0.13330366227579776,2.346154
2025-11-25T07:15:47.355769,-0.11877584731618118,0.17394979054851936,-10.129165002758594,-0.13370705303728747,-0.11206390956308679,-0.13026935939157439,2.355769
2025-11-25T07:15:47.365385,-0.11536353047670564,0.18000667177868623,-10.136745699853082,-0.12866119251796632,-0.11868833291257633,-0.12682639674002952,2.365385
2025-11-25T07:15:47.375,-0.11174699514616011,0.18578232731311356,-10.144049545756548,-0.12338305925886413,-0.12500522850771317,-0.12307220487159395,2.375
2025-11-25T07:15:47.384615,-0.10795328882052718,0.19125214946222321,-10.151086311906258,-0.11792056850655916,-0.1310229241649785,-0.11910866472796891,2.384615
2025-11-25T07:15:47.394231,-0.1040123040417546,0.19639875390734307,-10.157866550241678,-0.1123184517172504,-0.1367540809431247,-0.11503787991712458,2.394231
2025-11-25T07:15:47.403846,-0.09995575967490977,0.20121231190999833,-10.164401346685604,-0.10661718903942972,-0.14221466454429568,-0.11095804210003385,2.403846
2025-11-25T07:15:47.413462,-0.0958160964929661,0.20569057367288088,-10.170701916355206,-0.10085230173639144,-0.14742279155347704,-0.10695959244884091,2.413462
2025-11-25T07:15:47.423077,-0.09162535022939489,0.20983854674062272,-10.176779068727358,-0.0950539820573953,-0.15239743569122036,-0.1031218571311217,2.423077
2025-11-25T07:15:47.432692,-0.08741406033362621,0.21366781279661365,-10.182642600224503,-0.08924701788800353,-0.1571570333903797,-0.09951030627758967,2.432692
2025-11-25T07:15:47.442308,-0.08321026182360311,0.21719550268427557,-10.188300690445724,-0.08345096760498107,-0.1617180934999293,-0.09617455098952168,2.442308
2025-11-25T07:15:47.451923,-0.07903859752806566,0.22044298967727927,-10.193759384054449,-0.07768055271116164,-0.16609396125959147,-0.0931471502258878,2.451923
2025-11-25T07:15:47.461538,-0.07491958073420693,0.2234343906673565,-10.199022234367655,-0.07194624091272768,-0.17029389541477016,-0.09044324798235062,2.461538
2025-11-25T07:15:47.471154,-0.07086903148221116,0.22619498110375247,-10.204090165241077,-0.06625496836256452,-0.17432258969050568,-0.08806100457421778,2.471154
2025-11-25T07:15:47.480769,-0.06689770114620142,0.22874963871468862,-10.20896157108766,-0.06061090251440545,-0.17818021767083358,-0.08598273629279048,2.480769
2025-11-25T07:15:47.490385,-0.06301109017808586,0.23112143609137265,-10.213632623988945,-0.05501611093218914,-0.1818630193905444,-0.08417664737921896,2.490385
2025-11-25T07:15:47.5,-0.059209455547767596,0.23333049573619175,-10.218097708271083,-0.04947101180878126,-0.18536438696977167,-0.08259902763666804,2.5
2025-11-25T07:15:47.509615,-0.05548799906198867,0.23539319610107634,-10.22234987772735,-0.04397454426532698,-0.18867634575372066,-0.08119678972855254,2.509615
2025-11-25T07:15:47.519231,-0.051837225719199805,0.23732177896512924,-10.226381236331678,-0.038524080180803,-0.19179127438886331,-0.07991022461881833,2.519231
2025-11-25T07:15:47.528846,-0.04824346263282961,0.23912436945985935,-10.230183168812056,-0.03311516524909761,-0.19470367883795042,-0.0786758577437841,2.528846
2025-11-25T07:15:47.538462,-0.04468953218612077,0.2408053844220494,-10.233746378924831,-0.027741208502647472,-0.19741183621611816,-0.07742929230338884,2.538462
2025-11-25T07:15:47.548077,-0.041155573982761436,0.2423662679287692,-10.237060726656148,-0.022393242606072727,-0.19991914016029547,-0.07610793399308978,2.548077
2025-11-25T07:15:47.557692,-0.03762000458878577,0.2438064541351431,-10.240114892506185,-0.01705986044805205,-0.20223500046151754,-0.07465350866926328,2.557692
2025-11-25T07:15:47.567308,-0.034060590298087744,0.24512442637576454,-10.242895934263375,-0.011727399597299243,-0.20437518544487399,-0.07301430830300075,2.567308
2025-11-25T07:15:47.576923,-0.03045559014872335,0.2463187294998487,-10.245388828651395,-0.006380398837075778,-0.20636155349556115,-0.07114711829485755,2.576923
2025-11-25T07:15:47.586538,-0.026784912562097453,0.24738880431728602,-10.247576097470946,-0.0010023018240289375,-0.20822118559568564,-0.06901877883657132,2.586538
2025-11-25T07:15:47.596154,-0.023031223586398343,0.24833554590637125,-10.249437604290506,0.004423653694884157,-0.20998498406440594,-0.06660731792946162,2.596154
2025-11-25T07:15:47.605769,-0.01918094351801048,0.24916153368898605,-10.250950576826693,0.009913440333691091,-0.21168584149167988,-0.06390258233072678,2.605769
2025-11-25T07:15:47.615385,-0.015225066152317852,0.24987093164439506,-10.252089867301105,0.015481221661707538,-0.21335651423668758,-0.06090630380504706,2.615385
2025-11-25T07:15:47.625,-0.011159732993911986,0.2504691030450627,-10.252828420942224,0.021138390363413466,-0.21502735386874788,-0.05763157606295704,2.625
2025-11-25T07:15:47.634615,-0.006986501426450657,0.25096201511710964,-10.253137897702304,0.026892747772992352,-0.216724051586294,-0.054101770622675335,2.634615
2025-11-25T07:15:47.644231,-0.002712267061888296,0.25135551655085847,-10.252989389850784,0.032747909606489385,-0.21846553994757148,-0.05034896993384438,2.644231
2025-11-25T07:15:47.653846,0.0016511656235750902,0.25165455928277647,-10.252354189985281,0.03870300587728095,-0.22026218192665473,-0.046412030004560414,2.653846
2025-11-25T07:15:47.663462,0.006087831995888192,0.2518624220821776,-10.251204578919529,0.044752702371947825,-0.22211435665721646,-0.04233439468669459,2.663462
2025-11-25T07:15:47.673077,0.010578608804201703,0.25197998873169486,-10.24951461515557,0.05088752476245599,-0.22401151671821848,-0.03816177241021851,2.673077
2025-11-25T07:15:47.682692,0.015102377035361304,0.2520051341826773,-10.247260914262291,0.057094435955181336,-0.22593174942610977,-0.03393977133231167,2.682692
2025-11-25T07:15:47.692308,0.019637241072304988,0.25193226944857944,-10.244423404253238,0.06335760505904575,-0.2278418427425143,-0.02971158984743983,2.692308
2025-11-25T07:15:47.701923,0.024161699054826322,0.2517520895531649,-10.240986033936478,0.0696593018165058,-0.22969784600476467,-0.025515875603004574,2.701923
2025-11-25T07:15:47.711538,0.028655674655865566,0.25145156031318605,-10.236937404970478,0.07598084568111144,-0.23144611829410047,-0.021384877959709454,2.711538
2025-11-25T07:15:47.721154,0.03310135007812712,0.2510141632870973,-10.232271303136228,0.08230353506186143,-0.23302485517874202,-0.01734301021828667,2.721154
2025-11-25T07:15:47.730769,0.03748377539207688,0.2504203900266578,-10.226987117115298,0.08860948768361632,-0.23436606830609366,-0.013405909228114885,2.730769
2025-11-25T07:15:47.740385,0.04179125824667835,0.24964844944317527,-10.221090142539898,0.09488234264928641,-0.2353979649384148,-0.009580038052842547,2.740385
2025-11-25T07:15:47.75,0.04601555400585289,0.24867514347798989,-10.214591766430631,0.10110780227902667,-0.2360476437869448,-0.005862828572905957,2.75
2025-11-25T07:15:47.759615,0.05015188081123479,0.24747687408646993,-10.207509513269875,0.10727401574978954,-0.23624399527411463,-0.0022433176766537863,2.759615
2025-11-25T07:15:47.769231,0.05419878195968202,0.24603074693581664,-10.199866917560911,0.11337182102411297,-0.23592067364160374,0.0012967929521991379,2.769231
2025-11-25T07:15:47.778846,0.05815785613736458,0.24431572152889222,-10.191693179866773,0.11939486701464791,-0.23501900108818982,0.004781728619600865,2.778846
2025-11-25T07:15:47.788462,0.06203337955046671,0.2423137356797615,-10.183022574590389,0.12533963896119513,-0.2334906695505474,0.008239962249212557,2.788462
2025-11-25T07:15:47.798077,0.06583184878012963,0.24001072289783107,-10.173893612202107,0.1312054115388682,-0.2313001098279537,0.01170235134212928,2.798077
2025-11-25T07:15:47.807692,0.06956146930051685,0.2373974485481324,-10.164348005422779,0.13699415376585924,-0.22842638817368058,0.015200195642012911,2.807692
2025-11-25T07:15:47.817308,0.0732316015755039,0.23447010714755395,-10.154429526637312,0.1427103982895836,-0.22486447738630239,0.018763335185569267,2.817308
2025-11-25T07:15:47.826923,0.0768521669687503,0.23123064165615964,-10.144182856734231,0.1483610633161755,-0.22062576117391253,0.022418412638772617,2.826923
2025-11-25T07:15:47.836538,0.08043301929270584,0.2276867636889318,-10.133652512510414,0.15395518988529924,-0.21573768707373595,0.02618740947952652,2.836538
2025-11-25T07:15:47.846154,0.08398330195108354,0.22385167188587743,-10.122881910501613,0.1595035435345986,-0.21024257542138292,0.030086532607907203,2.846154
2025-11-25T07:15:47.855769,0.08751082683367312,0.21974348601796795,-10.111912591780442,0.16501803226336462,-0.20419568752512257,0.03412548622102941,2.855769
2025-11-25T07:15:47.865385,0.09102152328426348,0.2153844380648061,-10.10078360292304,0.17051091379017777,-0.19766272600769264,0.03830712679450921,2.865385
2025-11-25T07:15:47.875,0.09451900882069206,0.21079988590136114,-10.089531006584686,0.17599380675315734,-0.1907169769399856,0.04262747354592672,2.875
2025-11-25T07:15:47.884615,0.09800432367602768,0.20601723099380304,-10.078187484142711,0.1814765747838695,-0.18343631594244633,0.04707603027589064,2.884615
2025-11-25T07:15:47.894231,0.1014758500237067,0.20106481878936974,-10.066781994947105,0.18696619718523413,-0.17590029386548287,0.05163636192652411,2.894231
2025-11-25T07:15:47.903846,0.10492941260748632,0.19597088168481328,-10.055339468964712,0.1924657532915058,-0.16818748437463352,0.0562868587896916,2.903846
2025-11-25T07:15:47.913462,0.10835854033105981,0.1907625635037375,-10.043880525092717,0.19797362220345277,-0.1603732119881355,0.061001615777134435,2.913462
2025-11-25T07:15:47.923077,0.11175486162054833,0.18546505043851433,-10.0324212205256,0.20348294952936216,-0.15252770280724595,0.06575135992285179,2.923077
2025-11-25T07:15:47.932692,0.11510860407586211,0.18010082487004148,-10.020972843970547,0.20898138813607187,-0.14471464021341016,0.07050438091076032,2.932692
2025-11-25T07:15:47.942308,0.1184091621538167,0.1746890544742303,-10.009541764749374,0.2144511018069821,-0.1369900769425424,0.07522745202368741,2.942308
2025-11-25T07:15:47.951923,0.12164568480415082,0.1692451325469886,-9.998129342471719,0.21986902165526215,-0.12940164464472897,0.07988675769320527,2.951923
2025-11-25T07:15:47.961538,0.1248076261690435,0.16378039401249758,-9.986731896494415,0.22520734416338867,-0.12198800283556181,0.08444885334202987,2.961538
2025-11-25T07:15:47.971154,0.1278852026485622,0.15830203596798936,-9.975340739015595,0.23043424797532536,-0.11477848267638247,0.08888166909949642,2.971154
2025-11-25T07:15:47.980769,0.13086970876197437,0.15281326409201446,-9.963942288468099,0.23551479142412973,-0.1077929090797126,0.09315554136037188,2.980769
2025-11-25T07:15:47.990385,0.13375366034467054,0.14731366541829657,-9.952518290839032,0.24041194591694204,-0.10104161788301509,0.09724423015766387,2.990385
2025-11-25T07:15:48,0.136530754417826,0.1417997800180343,-9.94104617897701,0.2450877247455652,-0.09452570730946379,0.10112586405991991,3.0
2025-11-25T07:15:48.009615,0.139195658300372,0.13626581947097585,-9.929499597585211,0.24950437389521202,-0.08823756241681273,0.10478374830253741,3.009615
2025-11-25T07:15:48.019231,0.14174366510282627,0.1307044663940663,-9.917849122886283,0.25362559161855125,-0.08216166393544351,0.10820697663016064,3.019231
2025-11-25T07:15:48.028846,0.144170275594102,0.12510768944638165,-9.90606321045672,0.2574177357872543,-0.07627564455094954,0.11139080406353322,3.028846
2025-11-25T07:15:48.038462,0.14647077998119223,0.11946752084660099,-9.894109399295392,0.2608509656681089,-0.07055150422659692,0.11433676174313656,3.038462
2025-11-25T07:15:48.048077,0.14863991147160116,0.1137767612765444,-9.881955773191804,0.2639002523691574,-0.06495687009653858,0.11705251662243032,3.048077
2025-11-25T07:15:48.057692,0.15067162930221184,0.10802958906508076,-9.869572635471147,0.26654618722359036,-0.05945620761639856,0.1195514934503417,3.057692
2025-11-25T07:15:48.067308,0.15255906869946387,0.10222205237875472,-9.856934304766009,0.2687755272249856,-0.054011950095596145,0.1218522856328134,3.067308
2025-11-25T07:15:48.076923,0.15429467021214718,0.09635242125514336,-9.844020902433876,0.27058144107466503,-0.048585577201192304,0.12397788445524587,3.076923
2025-11-25T07:15:48.086538,0.15587046997246023,0.0904213792831043,-9.830819987588368,0.271963449452888,-0.04313870398670886,0.12595475074945917,3.086538
2025-11-25T07:15:48.096154,0.15727850162732712,0.0844320456395018,-9.817327907621626,0.27292708080877565,-0.03763422747619337,0.12781174617790644,3.096154
2025-11-25T07:15:48.105769,0.15851124101560043,0.07838983511531429,-9.803550764775979,0.27348328856839355,-0.03203752591593272,0.1295789452992044,3.105769
2025-11-25T07:15:48.115385,0.15956202263670125,0.07230218264214681,-9.789504939974064,0.27364769581358744,-0.026317640754548306,0.13128636706659846,3.115385
2025-11-25T07:15:48.125,0.16042537089559525,0.06617817601731493,-9.775217151150553,0.27343974321783215,-0.02044833026614518,0.1329626854423415,3.125
2025-11-25T07:15:48.134615,0.1610972118664153,0.06002815304038933,-9.760724048923983,0.27288181408514506,-0.014408894144201535,0.13463399195152959,3.134615
2025-11-25T07:15:48.144231,0.16157495459552326,0.05386332197926792,-9.746071370774548,0.2719984005882115,-0.008184718885332622,0.13632268374216305,3.144231
2025-11-25T07:15:48.153846,0.1618574500980225,0.04769545002781695,-9.731312692522986,0.27081535744916646,-0.0017675429810151166,0.13804654300078195,3.153846
2025-11-25T07:15:48.163462,0.16194485077653673,0.04153663119470183,-9.716507835053351,0.269359263477442,0.00484453769540877,0.1398180633270078,3.163462
2025-11-25T07:15:48.173077,0.16183840275273678,0.03539910450697053,-9.701721001613164,0.2676568866561939,0.011647304065499738,0.14164406549945655,3.173077
2025-11-25T07:15:48.182692,0.16154020653796755,0.02929506718071125,-9.687018732654574,0.26573473502602196,0.018630871942061967,0.14352562528039942,3.182692
2025-11-25T07:15:48.192308,0.16105297691130793,0.023236428945034977,-9.672467771712114,0.2636186759734275,0.025780356950868822,0.14545830966404255,3.192308
2025-11-25T07:15:48.201923,0.16037982499794526,0.017234477102803535,-9.658132942127773,0.2613336174237788,0.03307671877922683,0.14743268876252455,3.201923
2025-11-25T07:15:48.211538,0.15952408079866273,0.011299451906200778,-9.644075141201478,0.2589032568985476,0.040497742019817026,0.14943506475126034,3.211538
2025-11-25T07:15:48.221154,0.1584891739342725,0.005440057676309482,-9.63034955686746,0.25634990631144366,0.04801909589975176,0.15144834587866035,3.221154
2025-11-25T07:15:48.230769,0.157278588081521,-0.00033704685199094733,-9.617004192047977,0.2536943898611661,0.0556154006453755,0.15345299508691593,3.230769
2025-11-25T07:15:48.240385,0.15589589457248704,-0.006027724579944861,-9.604078744458153,0.2509560023256035,0.0632612168019195,0.15542799139573008,3.240385
2025-11-25T07:15:48.25,0.15434485381328963,-0.011630742471463236,-9.591603850232017,0.2481525161120184,0.07093187617490761,0.1573517506377259,3.25
2025-11-25T07:15:48.259615,0.15262955725489966,-0.017148000994689272,-9.579600676642496,0.24530023069721632,0.07860409720313757,0.15920296103405168,3.259615
2025-11-25T07:15:48.269231,0.15075457649962923,-0.02258456139852182,-9.568080847162559,0.24241405338969432,0.08625636830265256,0.16096129848970367,3.269231
2025-11-25T07:15:48.278846,0.14872509230482017,-0.02794843932193272,-9.557046687375818,0.2395075866318202,0.09386912487450236,0.1626079911819248,3.278846
2025-11-25T07:15:48.288462,0.1465469895277956,-0.03325015106641432,-9.546491775364503,0.23659319202291068,0.10142477190051709,0.16412620162787905,3.288462
2025-11-25T07:15:48.298077,0.1442269170221876,-0.03850201482256383,-9.536401763395956,0.2336820139960436,0.10890760186566195,0.16550119446012154,3.298077
2025-11-25T07:15:48.307692,0.14177231842811835,-0.04371722817757104,-9.52675542045639,0.23078396231158854,0.11630363072840681,0.16672026813077215,3.307692
2025-11-25T07:15:48.317308,0.1391914380752272,-0.04890876686081605,-9.517525834548891,0.22790765647439923,0.12360034611254653,0.16777244908195652,3.317308
2025-11-25T07:15:48.326923,0.1364932985269481,-0.05408817311419655,-9.508681709364437,0.22506033293962394,0.13078635631471938,0.16864797038572976,3.326923
2025-11-25T07:15:48.336538,0.13368763900658434,-0.05926431977692507,-9.500188693081574,0.2222477201416729,0.13785094935074682,0.1693375784764489,3.336538
2025-11-25T07:15:48.346154,0.13078480127852574,-0.0644422437601197,-9.492010688936269,0.21947389256624977,0.14478360051269562,0.16983173546501415,3.346154
2025-11-25T07:15:48.355769,0.12779555160456324,-0.06962213783619706,-9.48411111315281,0.21674111150566033,0.1515734855908225,0.17011981567001233,3.355769
2025-11-25T07:15:48.365385,0.12473083332261502,-0.07479857557084187,-9.476454079038355,0.21404964729535092,0.15820905893306259,0.17018942402839346,3.365385
2025-11-25T07:15:48.375,0.12160145387915644,-0.07996002684113573,-9.469005494786678,0.2113975669286997,0.1646777459221124,0.17002596771980802,3.375
2025-11-25T07:15:48.384615,0.11841772016079646,-0.08508870379890268,-9.461734069357563,0.20878047266288338,0.17096578631289774,0.16961257518085954,3.384615
2025-11-25T07:15:48.394231,0.1151890435908259,-0.09016075865780349,-9.454612226621714,0.20619119537930716,0.17705825606170308,0.16893038911407607,3.394231
2025-11-25T07:15:48.403846,0.11192354350714431,-0.09514683538293278,-9.447616929685053,0.20361947450502407,0.18293929241070084,0.1679591914531494,3.403846
2025-11-25T07:15:48.413462,0.10862768762916535,-0.10001295997966175,-9.440730411700795,0.20105167853274347,0.18859253921915853,0.16667827457403925,3.413462
2025-11-25T07:15:48.423077,0.10530601793883651,-0.10472174030952096,-9.433940798802743,0.19847062187012318,0.1940018053517497,0.1650674631766251,3.423077
2025-11-25T07:15:48.432692,0.1019610079510021,-0.10923383334362431,-9.427242602056168,0.19585551471757764,0.19915189418277973,0.16310820744098797,3.432692
2025-11-25T07:15:48.442308,0.09859307819330969,-0.11350962176902203,-9.420637052080908,0.19318205895278676,0.2040295364919985,0.16078469357808722,3.442308
2025-11-25T07:15:48.451923,0.09520076920765495,-0.11751102551224521,-9.414132248495706,0.19042268905355875,0.20862435541299565,0.15808493724191683,3.451923
2025-11-25T07:15:48.461538,0.0917810483553017,-0.12120336311125626,-9.407743093685855,0.1875469502323442,0.21292980385910273,0.15500183214281565,3.461538
2025-11-25T07:15:48.471154,0.0883297139264179,-0.12455717156143732,-9.401490981837641,0.18452199688346846,0.2169440189410354,0.15153412333200908,3.471154
2025-11-25T07:15:48.480769,0.0848418568130529,-0.12754988416268592,-9.395403227017377,0.1813131867163793,0.22067051699394674,0.14768726628292972,3.480769
2025-11-25T07:15:48.490385,0.08131234311807614,-0.13016725529153286,-9.38951223906404,0.17788475326843528,0.22411861922262657,0.14347411908445495,3.490385
2025-11-25T07:15:48.5,0.07773628432898347,-0.1324044213621624,-9.383854486747131,0.17420056422108685,0.22730348832718297,0.13891539751899648,3.5
2025-11-25T07:15:48.509615,0.07410946046925808,-0.13426650903965429,-9.378469313044183,0.170224996430892,0.23024569536858214,0.13403981461989103,3.509615
2025-11-25T07:15:48.519231,0.07042866008716361,-0.13576874282115264,-9.373397677651516,0.16592396073612298,0.23297030991889986,0.1288838422574928,3.519231
2025-11-25T07:15:48.528846,0.06669190694132064,-0.13693605073608195,-9.368680895636508,0.16126609204988013,0.23550557841139988,0.12349106842726242,3.528846
2025-11-25T07:15:48.538462,0.06289855857225961,-0.1378022040349913,-9.364359424099936,0.15622409766538004,0.23788130081697334,0.11791116264479734,3.538462
2025-11-25T07:15:48.548077,0.05904928189312799,-0.1384085496497172,-9.360471725509754,0.15077623535936027,0.24012703584149508,0.11219849564803475,3.548077
2025-11-25T07:15:48.557692,0.055145928373143076,-0.13880241074223743,-9.357053210079494,0.1449078725177858,0.2422702709467173,0.10641049095863706,3.557692
2025-11-25T07:15:48.567308,0.051191340142279405,-0.13903524791096092,-9.354135235928252,0.1386130577298779,0.24433468795771987,0.10060580904030893,3.567308
2025-11-25T07:15:48.576923,0.047189118078011225,-0.13916068581325605,-9.35174413500206,0.1318960095679269,0.24633863501885633,0.0948424692254394,3.576923
2025-11-25T07:15:48.586538,0.043143379068054745,-0.13923250601593298,-9.349900247835876,0.12477238655587997,0.24829388586668047,0.0891760036477749,3.586538
2025-11-25T07:15:48.596154,0.039058525248629176,-0.13930268737140913,-9.348616995859757,0.11727016211192903,0.2502047391753154,0.08365772592154672,3.596154
2025-11-25T07:15:48.605769,0.03493904127954559,-0.13941955423005456,-9.347900079014018,0.10942991954514902,0.2520674919245444,0.07833319224353225,3.605769
2025-11-25T07:15:48.615385,0.030789327089819917,-0.13962608196358034,-9.34774692606494,0.10130442505955531,0.2538703102024161,0.07324092825745455,3.615385
2025-11-25T07:15:48.625,0.02661356727147051,-0.1399584071099406,-9.348146520564075,0.09295742515254837,0.25559351003819414,0.06841148215460392,3.625
2025-11-25T07:15:48.634615,0.022415635886768044,-0.14044459032628592,-9.349079678501536,0.08446172133578579,0.2572102406181188,0.06386683729880765,3.634615
2025-11-25T07:15:48.644231,0.018199035135670456,-0.14110368265536313,-9.350519790154152,0.07589666570073147,0.25868753388494214,0.0596201787231614,3.644231
2025-11-25T07:15:48.653846,0.01396686746936603,-0.1419451450830963,-9.35243398823779,0.06734527317088605,0.2599876630278598,0.055675969406215164,3.653846
2025-11-25T07:15:48.663462,0.009721841837322253,-0.14296866044909196,-9.354784678619593,0.058891159886607,0.26106975004397465,0.052030267979918145,3.663462
2025-11-25T07:15:48.673077,0.0054663120825697445,-0.14416435526956767,-9.357531357080417,0.050615505785203095,0.26189156966791094,0.04867121614425859,3.673077
2025-11-25T07:15:48.682692,0.0012023396728074248,-0.14551342304812892,-9.360632618310637,0.04259421597357878,0.2624114879098147,0.04557964159880634,3.682692
2025-11-25T07:15:48.692308,-0.003068228806663549,-0.14698911281864985,-9.36404823756391,0.034895426606914845,0.26259043629008677,0.04272975423237977,3.692308
2025-11-25T07:15:48.701923,-0.007343672463301254,-0.14855801780462088,-9.36774118374778,0.027577466406698302,0.26239377693923654,0.040089943769131275,3.701923
2025-11-25T07:15:48.711538,-0.011622290017756828,-0.15018157475311356,-9.371679417933585,0.020687337099321006,0.26179289235629344,0.037623697879219216,3.711538
2025-11-25T07:15:48.721154,-0.015902271493055724,-0.15181767168871377,-9.375837343799029,0.014259714116039294,0.26076635467229176,0.03529064625491082,3.721154
2025-11-25T07:15:48.730769,-0.020181550450278633,-0.1534222627756428,-9.38019680181535,0.008316414582674073,0.2593005861416435,0.03304771110618363,3.730769
2025-11-25T07:15:48.740385,-0.02445764774556779,-0.15495090117634347,-9.384747537740093,0.002866261243906557,0.25738999357647435,0.030850323091565532,3.740385
2025-11-25T07:15:48.75,-0.028727521844438386,-0.15636011854695503,-9.389487130408838,-0.002094707880614753,0.2550366229494927,0.02865364879988006,3.75
2025-11-25T07:15:48.759615,-0.032987441695587386,-0.1576085966594441,-9.39442042791688,-0.00658269686597902,0.2522494295446138,0.02641377275130906,3.759615
2025-11-25T07:15:48.769231,-0.03723289455743101,-0.15865809104010098,-9.399558597826122,-0.010625263169103878,0.24904329720885282,0.024088788277855232,3.769231
2025-11-25T07:15:48.778846,-0.04145853135242773,-0.15947408243357458,-9.404917926182902,-0.014260073560495736,0.24543796061334397,0.021639776237547075,3.778846
2025-11-25T07:15:48.788462,-0.04565814104526589,-0.16002615147370822,-9.41051849509706,-0.017533330988456382,0.24145697289045043,0.019031674180925495,3.788462
2025-11-25T07:15:48.798077,-0.04982464019965493,-0.16028809256397064,-9.416382841543129,-0.020497945659557038,0.2371268217766819,0.01623404780004594,3.798077
2025-11-25T07:15:48.807692,-0.053950066585341565,-0.16023780226611337,-9.422534667714068,-0.023211550829073026,0.2324762517305356,0.013221770804036142,3.807692
2025-11-25T07:15:48.817308,-0.05802557594173581,-0.1598569938675686,-9.42899764218316,-0.025734457784764943,0.22753580764705195,0.009975605928113926,3.817308
2025-11-25T07:15:48.826923,-0.06204145683619765,-0.15913079937661792,-9.43579430269149,-0.028127619608968753,0.22233757315103275,0.00648266482866069,3.826923
2025-11-25T07:15:48.836538,-0.06598719437505146,-0.15804732163660404,-9.442945051924614,-0.030450653223672606,0.21691503715678778,0.00273671402570053,3.836538
2025-11-25T07:15:48.846154,-0.06985162155994099,-0.15659719682996304,-9.450467233719518,-0.03275996960104826,0.21130300273000435,-0.0012617059390068876,3.846154
2025-11-25T07:15:48.855769,-0.07362319164312862,-0.15477322231664847,-9.458374287775056,-0.03510708495085935,0.20553745887746552,-0.005505368407092304,3.855769
2025-11-25T07:15:48.865385,-0.07729038462345701,-0.15257009121224632,-9.466674999654584,-0.03753721697944684,0.19965535860064965,-0.009980655874864361,3.865385
2025-11-25T07:15:48.875,-0.08084223038119846,-0.1499842530057781,-9.47537288224012,-0.04008828443918335,0.19369427290098618,-0.01466804459665369,3.875
2025-11-25T07:15:48.884615,-0.08426889860886562,-0.14701389731452597,-9.484465738271936,-0.04279040547589468,0.18769191564559795,-0.019542750483202313,3.884615
2025-11-25T07:15:48.894231,-0.08756228035705396,-0.14365904249045988,-9.493945456584905,-0.045665931521962584,0.1816855592628237,-0.024575505439461083,3.894231
2025-11-25T07:15:48.903846,-0.0907164745722808,-0.13992170194880055,-9.503798084219135,-0.048729979155215694,0.17571138470958944,-0.029733431046814328,3.903846
2025-11-25T07:15:48.913462,-0.09372810131014073,-0.13580609712620828,-9.51400419190146,-0.05199135885813788,0.16980382081090728,-0.03498097268568716,3.913462
2025-11-25T07:15:48.923077,-0.09659639231908797,-0.13131888702652694,-9.524539517419054,-0.05545376198630932,0.16399491690088258,-0.04028085558418643,3.923077
2025-11-25T07:15:48.932692,-0.09932305073740882,-0.12646938848940945,-9.535375843246037,-0.05911705306594435,0.1583137627664289,-0.04559502495791361,3.932692
2025-11-25T07:15:48.942308,-0.10191191130130532,-0.12126976562300784,-9.546482049642844,-0.06297851744253607,0.1527859390044616,-0.050885531415525265,3.942308
2025-11-25T07:15:48.951923,-0.10436846196572325,-0.11573517134872738,-9.557825277551945,-0.06703393659998504,0.14743296454474122,-0.05611532241867382,3.951923
2025-11-25T07:15:48.961538,-0.10669930425213148,-0.1098838288547241,-9.569372129454498,-0.07127840520854309,0.14227171310668318,-0.061248909154094984,3.961538
2025-11-25T07:15:48.971154,-0.10891163195959061,-0.10373704380067036,-9.58108983129253,-0.07570684973583855,0.13731379452580036,-0.06625289846729197,3.971154
2025-11-25T07:15:48.980769,-0.11101279733681026,-0.0973191399420404,-9.592947277784432,-0.08031424042474343,0.1325649250452741,-0.07109640516446988,3.980769
2025-11-25T07:15:48.990385,-0.11301001405497725,-0.09065731504183722,-9.604915886897816,-0.08509550485091853,0.12802432656518542,-0.07575138422066584,3.990385
2025-11-25T07:15:49,-0.1149102198020497,-0.08378142075654751,-9.616970198500521,-0.09004516235616555,0.1236842028997311,-0.08019294099468398,4.0
2025-11-25T07:15:49.009615,-0.11672009004708246,-0.0767236757825453,-9.629088173027988,-0.09515671283065874,0.11952935836648372,-0.08439968160176406,4.009615
2025-11-25T07:15:49.019231,-0.11844616498788728,-0.06951832285644925,-9.641251178800601,-0.10042183047569712,0.11553705083984306,-0.08835414514056797,4.019231
2025-11-25T07:15:49.028846,-0.12009503301777785,-0.06220123726722572,-9.653443690941925,-0.10582942561105263,0.11167718781799515,-0.09204331774129504,4.028846
2025-11-25T07:15:49.038462,-0.12167351082588854,-0.054809490069428785,-9.665652750029922,-0.11136464170767028,0.10791296179111536,-0.09545918169557671,4.038462
2025-11-25T07:15:49.048077,-0.1231887698066676,-0.047380867621579725,-9.677867244348182,-0.11700786029114273,0.10420197645353621,-0.09859921670604284,4.048077
2025-11-25T07:15:49.057692,-0.12464837349204466,-0.03995335362385646,-9.690077090499397,-0.12273380118693931,0.10049784663703307,-0.10146675237064909,4.057692
2025-11-25T07:15:49.067308,-0.12606020528615292,-0.032564587623157254,-9.702272393721445,-0.12851081818781487,0.09675217873373614,-0.10407107328046732,4.067308
2025-11-25T07:15:49.076923,-0.1274322797336118,-0.025251316438729632,-9.714442670600839,-0.13430048276541934,0.09291677472533316,-0.10642719882541535,4.076923
2025-11-25T07:15:49.086538,-0.12877244516941588,-0.01804884762968974,-9.726576216948624,-0.14005752193116744,0.08894586939441684,-0.108555296240077,4.086538
2025-11-25T07:15:49.096154,-0.13008799779582725,-0.010990503965298144,-9.738659705760153,-0.14573014637410253,0.08479821559375976,-0.11047973581780018,4.096154
2025-11-25T07:15:49.105769,-0.131385234121945,-0.0041070757688183015,-9.750678095847718,-0.1512607791484968,0.08043886969050018,-0.11222785593534486,4.105769
2025-11-25T07:15:49.115385,-0.1326689735012553,0.0025737244623849,-9.762614904577916,-0.15658717078368486,0.07584057882719572,-0.11382855482999046,4.115385
2025-11-25T07:15:49.125,-0.13394208947736144,0.009027790797517388,-9.774452843788474,-0.16164386278342543,0.07098471726184924,-0.115310843478588,4.125
2025-11-25T07:15:49.134615,-0.13520509553190938,0.015235113508499749,-9.78617475386416,-0.16636393902966662,0.06586175963946715,-0.11670247491682866,4.134615
2025-11-25T07:15:49.144231,-0.13645583067110267,0.021180200391875993,-9.797764723518743,-0.17068098366138962,0.0604713210529959,-0.11802872914511586,4.144231
2025-11-25T07:15:49.153846,-0.13768927945210405,0.026852398308145963,-9.809209265245915,-0.17453114718104693,0.05482183517803332,-0.11931140102404703,4.153846
2025-11-25T07:15:49.163462,-0.13889754341081922,0.032246090885914146,-9.820498421319964,-0.17785521394514772,0.048929968121395016,-0.12056801835393652,4.163462
2025-11-25T07:15:49.173077,-0.14006996410681732,0.037360762386838664,-9.831626690386676,-0.18060056693487006,0.04281986427602993,-0.12181130583812877,4.173077
2025-11-25T07:15:49.182692,-0.14119338680568688,0.04220092901578632,-9.84259368715768,-0.1827229630488609,0.0365222950293236,-0.12304890289583004,4.182692
2025-11-25T07:15:49.192308,-0.14225254677855614,0.0467759430780926,-9.853404476947071,-0.1841880633378794,0.030073746492219465,-0.12428333411199545,4.192308
2025-11-25T07:15:49.201923,-0.14323055319005681,0.05109967515547167,-9.864069555671898,-0.1849726969505967,0.02351545070152612,-0.12551222029822434,4.201923
2025-11-25T07:15:49.211538,-0.144109438276574,0.05519007908338072,-9.874604468589855,-0.1850658570256937,0.01689234306848902,-0.12672871265988173,4.211538
2025-11-25T07:15:49.221154,-0.14487073627136066,0.0590686458167616,-9.885029081705751,-0.184469416642015,0.010251924918943965,-0.12792213519052276,4.221154
2025-11-25T07:15:49.230769,-0.14549605874218358,0.06275975492134321,-9.895366545588422,-0.18319851850126803,0.0036430305133035245,-0.1290788212845378,4.230769
2025-11-25T07:15:49.240385,-0.145967637689401,0.06628993725911377,-9.905642019426702,-0.18128156364394596,-0.002885461541535435,-0.13018311776075875,4.240385
2025-11-25T07:15:49.25,-0.1462688150670175,0.06968707308870672,-9.915881243440268,-0.17875973268782297,-0.00928589383361243,-0.13121850386394557,4.25
2025-11-25T07:15:49.259615,-0.1463844697372066,0.07297956503832898,-9.92610905704294,-0.17568601802406425,-0.01551298606100504,-0.13216874845076326,4.259615
2025-11-25T07:15:49.269231,-0.1463013855230137,0.07619553253133739,-9.936347962179099,-0.1721238002417294,-0.021524828633630286,-0.13301902127400103,4.269231
2025-11-25T07:15:49.278846,-0.1460085675207247,0.07936206124211366,-9.946616825271288,-0.1681450414593853,-0.02728371422538527,-0.13375688850027806,4.278846
2025-11-25T07:15:49.288462,-0.1454975068358743,0.08250451507241033,-9.956929792711966,-0.1638281845695175,-0.03275684309067798,-0.134373147356685,4.288462
2025-11-25T07:15:49.298077,-0.14476238491151588,0.08564590109209173,-9.967295465947068,-0.15925584640892235,-0.03791694213502471,-0.13486247406193447,4.298077
2025-11-25T07:15:49.307692,-0.1438002045412886,0.08880628408305827,-9.977716353518241,-0.15451238757967045,-0.04274282679978193,-0.1352238659223686,4.307692
2025-11-25T07:15:49.317308,-0.14261083567142158,0.09200226964493431,-9.988188598531865,-0.14968144435811312,-0.04721992861871871,-0.1354608576741056,4.317308
2025-11-25T07:15:49.326923,-0.1411969695664489,0.09524659381717876,-9.998701970885811,-0.14484351651262115,-0.051340807073586694,-0.13558149384134596,4.326923
2025-11-25T07:15:49.336538,-0.13956398597104447,0.09854786063159789,-10.009240108469198,-0.14007370314227455,-0.05510564356340573,-0.13559804981357165,4.336538
2025-11-25T07:15:49.346154,-0.13771975219898355,0.10191046117803042,-10.019780988341315,-0.13543966032375582,-0.05852267305701157,-0.13552651317905143,4.346154
2025-11-25T07:15:49.355769,-0.13567438319656197,0.10533469749201607,-10.030297607627508,-0.13099983269740248,-0.06160846348105754,-0.1353858561492927,4.355769
2025-11-25T07:15:49.365385,-0.13343999167063586,0.10881712017698872,-10.04075885091983,-0.12680200015373902,-0.06438792719023334,-0.13519714423753337,4.365385
2025-11-25T07:15:49.375,-0.13103044849602646,0.11235106460183168,-10.051130514177366,-0.12288217962421942,-0.06689395831530345,-0.1349825359963062,4.375
2025-11-25T07:15:49.384615,-0.12846116183038428,0.11592734391129078,-10.06137644988132,-0.11926392515736114,-0.06916663940454879,-0.13476423393913547,4.384615
2025-11-25T07:15:49.394231,-0.12574887391519493,0.11953504384576198,-10.071459800211663,-0.11595807482038256,-0.07125203789964879,-0.13456344510210633,4.394231
2025-11-25T07:15:49.403846,-0.12291146872248081,0.12316236951946707,-10.081344289800397,-0.112962993558912,-0.07320068834554555,-0.1343994013767743,4.403846
2025-11-25T07:15:49.413462,-0.11996778026701334,0.12679750632915318,-10.090995545219892,-0.11026534654660668,-0.0750659037834875,-0.13428848125656812,4.413462
2025-11-25T07:15:49.423077,-0.11693739027405572,0.13042946224370278,-10.100382390423098,-0.10784140360476473,-0.07690207252760554,-0.13424347127198788,4.423077
2025-11-25T07:15:49.432692,-0.113840404113739,0.13404885397016958,-10.109478048467492,-0.10565882236984381,-0.07876308184115977,-0.13427300386678992,4.432692
2025-11-25T07:15:49.442308,-0.11069719204197241,0.13764859124596998,-10.118261176596466,-0.10367879203097216,-0.08070097739132644,-0.13438120091158884,4.442308
2025-11-25T07:15:49.451923,-0.10752807893877393,0.14122440907228578,-10.126716673137022,-0.10185836271230174,-0.08276492279151547,-0.13456753664248233,4.451923
2025-11-25T07:15:49.461538,-0.1043529673674507,0.14477520121834042,-10.134836204943474,-0.10015276560535426,-0.08500047075731323,-0.1348269178859899,4.461538
2025-11-25T07:15:49.471154,-0.10119089153864103,0.14830312031502788,-10.142618407507024,-0.09851755033656012,-0.08744910379511371,-0.13514997039618615,4.471154
2025-11-25T07:15:49.480769,-0.09805951886547311,0.15181342821792423,-10.150068718276781,-0.09691040936553005,-0.09014796349246558,-0.13552351611624638,4.480769
2025-11-25T07:15:49.490385,-0.09497463047780332,0.15531410149276753,-10.157198826415451,-0.09529260853961449,-0.09312967660556622,-0.13593122005100813,4.490385
2025-11-25T07:15:49.5,-0.09194961598880998,0.15881521598737647,-10.164025752217036,-0.09362999332167068,-0.09642219718567899,-0.13635437574126932,4.5
2025-11-25T07:15:49.509615,-0.08899501363778044,0.1623281478178984,-10.17057059698229,-0.09189358193944312,-0.10004859919037397,-0.1367727887418886,4.509615
2025-11-25T07:15:49.519231,-0.08611812136432558,0.16586463775420338,-10.176857029769788,-0.09005977845385657,-0.10402676930078354,-0.13716570782168025,4.519231
2025-11-25T07:15:49.528846,-0.08332270009155678,0.16943577727514095,-10.182909602961143,-0.08811024565630927,-0.10836897587378697,-0.13751274055041574,4.528846
2025-11-25T07:15:49.538462,-0.08060878493417958,0.1730509867448047,-10.188752007409548,-0.08603148524643463,-0.11308132998761417,-0.13779467715987065,4.538462
2025-11-25T07:15:49.548077,-0.07797261224774786,0.1767170608849124,-10.19440538387809,-0.08381418539213206,-0.11816319548393278,-0.13799414724616071,4.548077
2025-11-25T07:15:49.557692,-0.07540666589700658,0.18043734868649483,-10.19988680364304,-0.08145240530445658,-0.12360663231172847,-0.13809605833178382,4.557692
2025-11-25T07:15:49.567308,-0.07289985033243773,0.1842111184180845,-10.205208022186302,-0.07894266598935336,-0.12939596605954296,-0.1380878062377235,4.567308
2025-11-25T07:15:49.576923,-0.07043780692085655,0.1880331408370033,-10.210374593287936,-0.07628301011568435,-0.13550756821361448,-0.1379592835493277,4.576923
2025-11-25T07:15:49.586538,-0.0680033926432216,0.19189350833677166,-10.215385401499677,-0.07347209533517912,-0.1419099093112222,-0.13770272920591162,4.586538
2025-11-25T07:15:49.596154,-0.06557733089166042,0.19577769375996856,-10.220232629518474,-0.07050840040844973,-0.1485639111789364,-0.13731246201597846,4.596154
2025-11-25T07:15:49.605769,-0.06313902560167035,0.19966683757086498,-10.224902131711856,-0.0673896361221991,-0.15542357838035517,-0.13678453728772025,4.605769
2025-11-25T07:15:49.615385,-0.060667507728990405,0.2035382360765669,-10.229374149142428,-0.06411244033893358,-0.16243684842787623,-0.1361163699686017,4.615385
2025-11-25T07:15:49.625,-0.058142460491945894,0.20736599168475242,-10.233624285218376,-0.06067239879217095,-0.16954658479364346,-0.13530637989229932,4.625
2025-11-25T07:15:49.634615,-0.05554525067668347,0.21112178270753462,-10.237624663945335,-0.0570643908488416,-0.17669165059717076,-0.13435372387513186,4.634615
2025-11-25T07:15:49.644231,-0.05285988437305575,0.21477571132240686,-10.241345205289122,-0.05328322348621548,-0.18380803029627676,-0.1332581708109356,4.644231
2025-11-25T07:15:49.653846,-0.05007381245344725,0.21829718922637112,-10.244754966487207,-0.049324485184204646,-0.19082999210592158,-0.13202014354438318,4.653846
2025-11-25T07:15:49.663462,-0.04717853215650179,0.2216558212820049,-10.24782350973665,-0.04518552901012924,-0.19769128950271544,-0.1306409062070183,4.663462
2025-11-25T07:15:49.673077,-0.04416995733292747,0.22482224888415123,-10.250522258204441,-0.04086648974681317,-0.20432638251557111,-0.12912284081003417,4.673077
2025-11-25T07:15:49.682692,-0.04104855220646827,0.22776891737512645,-10.252825788629726,-0.03637124894163094,-0.2106716331136317,-0.1274697488303715,4.682692
2025-11-25T07:15:49.692308,-0.03781923786916435,0.23047073927750825,-10.254712989297245,-0.03170827090237307,-0.21666641814117937,-0.12568712716223812,4.692308
2025-11-25T07:15:49.701923,-0.03449108785252434,0.23290564069919506,-10.256168005451721,-0.02689123695129785,-0.2222541208950531,-0.12378238165048595,4.701923
2025-11-25T07:15:49.711538,-0.031076832613563258,0.23505499716106573,-10.257180908698771,-0.02193941027276655,-0.22738299701165912,-0.12176494116532352,4.711538
2025-11-25T07:15:49.721154,-0.02759219728256618,0.23690397607758676,-10.257748055686145,-0.01687767662387081,-0.2320069355295765,-0.11964622816078997,4.721154
2025-11-25T07:15:49.730769,-0.024055104955893903,0.23844180049393207,-10.25787213499223,-0.01173622700030223,-0.23608613559533947,-0.11743944544803736,4.730769
2025-11-25T07:15:49.740385,-0.02048478702359776,0.239661938797639,-10.25756193486285,-0.006549868220077149,-0.23958770132974586,-0.11515916155816634,4.740385
2025-11-25T07:15:49.75,-0.016900847838747655,0.24056221842268563,-10.256831891416034,-0.0013569605188420194,-0.24248614194787446,-0.11282071313277181,4.75
2025-11-25T07:15:49.759615,-0.013322331374492692,0.2411448616714299,-10.255701486336504,0.003802004217654099,-0.24476376145090142,-0.11043948214682445,4.759615
2025-11-25T07:15:49.769231,-0.009766834612128635,0.2414164445676189,-10.2541945508634,0.008886140289408753,-0.24641092903150455,-0.10803013832057269,4.769231
2025-11-25T07:15:49.778846,-0.006249709188011195,0.24138777975061015,-10.25233850872878,0.013856130046360219,-0.24742623288743168,-0.10560595200687385,4.778846
2025-11-25T07:15:49.788462,-0.002783389997313601,0.2410737206589106,-10.250163569237706,0.018676260923741854,-0.24781653121456634,-0.10317827244387773,4.788462
2025-11-25T07:15:49.798077,0.0006231135933286039,0.2404928792999294,-10.247701870189463,0.02331634603090915,-0.24759691341125678,-0.10075623271135582,4.798077
2025-11-25T07:15:49.807692,0.003964532709032882,0.23966724512393003,-10.244986568618552,0.027753330741984706,-0.24679056178957776,-0.09834669717104147,4.807692
2025-11-25T07:15:49.817308,0.007239437270711748,0.23862168690273342,-10.242050883965328,0.03197242725600141,-0.24542846802592502,-0.09595442093545588,4.817308
2025-11-25T07:15:49.826923,0.010450110247009049,0.2373833165606132,-10.238927109789927,0.035967691743891854,-0.2435489386254618,-0.09358235111645115,4.826923
2025-11-25T07:15:49.836538,0.013602212801721452,0.235980702863566,-10.235645618943902,0.03974203915608606,-0.24119684467357375,-0.09123197415861033,4.836538
2025-11-25T07:15:49.846154,0.01670427858553047,0.23444294691581907,-10.23223388960853,0.04330675447763478,-0.23842262767670658,-0.08890361312668178,4.846154
2025-11-25T07:15:49.855769,0.019767092367408392,0.23279866141234853,-10.228715581124966,0.04668059350020326,-0.2352811340449214,-0.08659660679132711,4.855769
2025-11-25T07:15:49.865385,0.022803015595090695,0.23107492020462247,-10.225109693197085,0.049888574552421044,-0.2318303831830199,-0.08430934611943074,4.865385
2025-11-25T07:15:49.875,0.025825318359300645,0.22929625859953642,-10.221429846414951,0.0529605565062382,-0.22813036355342445,-0.08203918379457294,4.875
2025-11-25T07:15:49.884615,0.028847563047548735,0.2274838058874847,-10.217683724652103,0.055929686125149924,-0.22424190892040044,-0.0797822594747531,4.884615
2025-11-25T07:15:49.894231,0.03188306414458584,0.22565461942884965,-10.213872725511424,0.05883078778536361,-0.22022566507769745,-0.07753329969474147,4.894231
2025-11-25T07:15:49.903846,0.03494443046730667,0.22382126663801583,-10.209991872652367,0.06169877035969341,-0.21614114160929102,-0.07528545645656176,4.903846
2025-11-25T07:15:49.913462,0.03804318632550951,0.2219916715684894,-10.206030040699252,0.0645671345385747,-0.2120458492613037,-0.07303023737999649,4.913462
2025-11-25T07:15:49.923077,0.04118946577841129,0.22016921151241972,-10.20197051915734,0.067466657654708,-0.2079945260635488,-0.07075755418533783,4.923077
2025-11-25T07:15:49.932692,0.04439177652595499,0.21835302263313872,-10.197791902822638,0.07042430408116424,-0.20403843960231172,-0.06845588863146237,4.932692
2025-11-25T07:15:49.942308,0.04765683369951261,0.21653845943938504,-10.193469258453613,0.07346237699534715,-0.20022472845165337,-0.06611256000690931,4.942308
2025-11-25T07:15:49.951923,0.05098946365413927,0.21471765435605308,-10.188975489439823,0.07659791098748031,-0.19659573340007636,-0.06371407663443672,4.951923
2025-11-25T07:15:49.961538,0.054392570538092086,0.21288013566665334,-10.184282800920696,0.07984230124931169,-0.19318827967570917,-0.06124655570635152,4.961538
2025-11-25T07:15:49.971154,0.05786714753143237,0.21101347503786402,-10.179364157573055,0.08320116205131335,-0.19003289972687995,-0.05869619704675826,4.971154
2025-11-25T07:15:49.980769,0.06141230833102699,0.20910394609856123,-10.174194631093975,0.08667440248146221,-0.18715302143058243,-0.05604980281463089,4.980769
2025-11-25T07:15:49.990385,0.06502531772558233,0.20713718605520734,-10.168752558387956,0.09025650534586155,-0.1845641801705614,-0.05329534786618893,4.990385
2025-11-25T07:15:50,0.06870161017498694,0.2050988612017057,-10.163020466446767,0.09393699643972686,-0.18227333799040998,-0.05042261331155578,5.0
2025-11-25T07:15:50.009615,0.07243479545124393,0.2029753360185305,-10.156985748270422,0.09770109101086008,-0.18027840547155904,-0.04742388588529511,5.009615
2025-11-25T07:15:50.019231,0.07621665797370877,0.20075433190359748,-10.15064108779159,0.10153049951541493,-0.17856806194131125,-0.044294697775672714,5.019231
2025-11-25T07:15:50.028846,0.08003716390918557,0.19842554479131289,-10.143984640241491,0.10540436936773644,-0.17712195504274156,-0.041034550649851564,5.028846
2025-11-25T07:15:50.038462,0.08388449806737093,0.19598118272419204,-10.137019988226363,0.10930033451031052,-0.17591132786356356,-0.03764755251015932,5.038462
2025-11-25T07:15:50.048077,0.08774515645808073,0.19341638723214055,-10.129755909669187,0.11319563467123271,-0.17490007180915745,-0.03414290248041751,5.048077
2025-11-25T07:15:50.057692,0.09160411447526468,0.1907295094972631,-10.122206000849832,0.11706824800452655,-0.1740461467821361,-0.030535176775253102,5.057692
2025-11-25T07:15:50.067308,0.09544507520018232,0.18792221984881693,-10.114388189544654,0.12089795977950436,-0.1733032633173574,-0.026844384984485093,5.067308
2025-11-25T07:15:50.076923,0.09925078498530938,0.18499944060290363,-10.10632415336668,0.12466727464200919,-0.17262269696418936,-0.023095771824332933,5.076923
2025-11-25T07:15:50.086538,0.10300339283910524,0.1819691080474305,-10.098038640848802,0.1283620794339989,-0.1719551063261535,-0.01931934044964109,5.086538
2025-11-25T07:15:50.096154,0.10668482832373265,0.1788417824431093,-10.089558692768039,0.13197198650820358,-0.17125224360891753,-0.015549083216948617,5.096154
2025-11-25T07:15:50.105769,0.11027717722879424,0.17563013163245952,-10.080912779240535,0.13549033489200143,-0.1704684658782479,-0.011821930104899625,5.105769
2025-11-25T07:15:50.115385,0.11376304247088351,0.17234831894794078,-10.072129887319715,0.13891388140102456,-0.16956197060198477,-0.008176453001625948,5.115385
2025-11-25T07:15:50.125,0.11712588614429031,0.169011332707332,-10.063238598467462,0.14224224896182835,-0.16849569448658505,-0.004651383422618098,5.125
2025-11-25T07:15:50.134615,0.12035035405184366,0.1656342977402205,-10.05426618687394,0.14547720325239513,-0.16723783437257408,-0.0012840101134539825,5.134615
2025-11-25T07:15:50.144231,0.12342258506043227,0.16223180412698654,-10.04523775890402,0.1486218180737494,-0.16576197569803305,0.0018914735972496454,5.144231
2025-11-25T07:15:50.153846,0.12633050329067402,0.15881727928889283,-10.036175446032884,0.1516795925985785,-0.16404685057013701,0.004845597879509129,5.153846
2025-11-25T07:15:50.163462,0.12906408106668446,0.1554024268175109,-10.027097659796683,0.15465360693166003,-0.16207579155504462,0.007555133981920049,5.163462
2025-11-25T07:15:50.173077,0.1316155500475071,0.151996760411704,-10.018018421849655,0.15754582389382807,-0.15983598808332058,0.010004401845057975,5.173077
2025-11-25T07:15:50.182692,0.13397953688049424,0.14860726333773722,-10.008946796610172,0.16035664005589648,-0.15731767736751298,0.01218626229718891,5.182692
2025-11-25T07:15:50.192308,0.13615311182268486,0.14523819424406242,-9.999886470894193,0.16308475624598312,-0.15451340551995946,0.014102698022129358,5.192308
2025-11-25T07:15:50.201923,0.1381357568893023,0.14189104204443354,-9.990835535321915,0.1657273896186937,-0.15141747601189853,0.01576491569935813,5.201923
2025-11-25T07:15:50.211538,0.13992927418828252,0.13856461352554217,-9.981786521040688,0.16828079306567995,-0.14802566053341315,0.017192946231263363,5.211538
2025-11-25T07:15:50.221154,0.14153766049823732,0.13525522357271355,-9.972726729517165,0.1707409863541012,-0.14433518930238218,0.018414773153790375,5.221154
2025-11-25T07:15:50.230769,0.14296697024488597,0.1319569567500941,-9.963638864685032,0.17310454976841944,-0.1403449830300796,0.019465069286922883,5.230769
2025-11-25T07:15:50.240385,0.1442251766215035,0.12866198164293008,-9.95450194551185,0.17536930873982423,-0.1360560501440493,0.02038365422149116,5.240385
2025-11-25T07:15:50.25,0.14532202406156494,0.125360911050601,-9.945292453349891,0.17753476416344696,-0.131471949547962,0.021213789895157383,5.25
2025-11-25T07:15:50.259615,0.14626885298831585,0.12204319414064095,-9.935985653527077,0.1796021922261879,-0.1265992124291738,0.022000411782323592,5.259615
2025-11-25T07:15:50.269231,0.1470783771043769,0.11869750449645414,-9.926557019775071,0.18157442166692883,-0.12144763647204257,0.022788366583100687,5.269231
2025-11-25T07:15:50.278846,0.1477644054516549,0.11531207364709448,-9.916983680680941,0.18345536109179408,-0.116030412030032,0.02362071065720752,5.278846
2025-11-25T07:15:50.288462,0.1483415185794843,0.11187492975113021,-9.907245799524258,0.1852493738321507,-0.11036409026533227,0.02453712195472952,5.288462
2025-11-25T07:15:50.298077,0.14882471838028058,0.10837403040332433,-9.897327794244696,0.18696058700217827,-0.10446843253862531,0.02557248588254507,5.298077
2025-11-25T07:15:50.307692,0.1492290683498334,0.10479731018434026,-9.887219308320258,0.18859219705164212,-0.09836618297962205,0.02675571978017503,5.307692
2025-11-25T07:15:50.317308,0.14956933105702158,0.10113268474518912,-9.876915861133092,0.19014582085427703,-0.09208279442640303,0.028108889787990643,5.317308
2025-11-25T07:15:50.326923,0.1498596031628562,0.09736805933440842,-9.866419134689801,0.19162095011392435,-0.0856461213896904,0.029646648936428485,5.326923
2025-11-25T07:15:50.336538,0.15011294934708905,0.09349138315154248,-9.855736885798892,0.19301458383292394,-0.07908607237999553,0.031376001036727205,5.336538
2025-11-25T07:15:50.346154,0.1503410406758338,0.08949077900123294,-9.844882508742115,0.19432110961288449,-0.0724341924060694,0.033296382561634225,5.346154
2025-11-25T07:15:50.355769,0.15055380711336666,0.08535476602362202,-9.833874311509307,0.19553246436212085,-0.06572314033286396,0.035400048986142026,5.355769
2025-11-25T07:15:50.365385,0.15075912169478717,0.08107258151151753,-9.822734596138826,0.19663854562053257,-0.05898604295613136,0.03767274175824025,5.365385
2025-11-25T07:15:50.375,0.15096254778585758,0.07663459439549264,-9.811488639291648,0.19762780028518706,-0.05225573483809153,0.04009459478667837,5.375
2025-11-25T07:15:50.384615,0.1511671922624772,0.07203278962541336,-9.800163657518757,0.1984879068577713,-0.045563913454657885,0.04264121989439418,5.384615
2025-11-25T07:15:50.394231,0.1513737026272836,0.06726129212436928,-9.788787825747264,0.19920648167012092,-0.03894025223691891,0.04528489240109304,5.394231
2025-11-25T07:15:50.403846,0.15158042303540395,0.06231689083058236,-9.777389403826241,0.19977176080015738,-0.0324115285557329,0.047995743789716765,5.403846
2025-11-25T07:15:50.413462,0.15178369748988116,0.057199515162272604,-9.765996011249818,0.20017322973913254,-0.026000843035871683,0.05074286597483853,5.413462
2025-11-25T07:15:50.423077,0.1519782940381732,0.05191260907442777,-9.754634068849704,0.20040219180671487,-0.019727021082722604,0.05349524779443887,5.423077
2025-11-25T07:15:50.432692,0.15215792280048626,0.04646334777990779,-9.743328401940389,0.2004522789961685,-0.013604280574916914,0.05622249588160468,5.432692
2025-11-25T07:15:50.442308,0.15231582104748762,0.04086265398649973,-9.732101985128008,0.20031990760990578,-0.007642218742982575,0.058895329091188005,5.442308
2025-11-25T07:15:50.451923,0.15244536935925201,0.035124991405744765,-9.720975810857283,0.20000466508192175,-0.001846133093789126,0.06148586690234166,5.451923
2025-11-25T07:15:50.461538,0.15254068503316823,0.029267936322601672,-9.709968872159594,0.19950959197611243,0.0037823426793737146,0.06396774628878937,5.461538
2025-11-25T07:15:50.471154,0.15259712473301193,0.023311550693032056,-9.69909825143808,0.19884130559521146,0.009244341529296983,0.06631609766496403,5.471154
2025-11-25T07:15:50.480769,0.15261163210212694,0.017277604469384422,-9.688379296676633,0.1980099084277116,0.01454269347424617,0.06850740673467431,5.480769
2025-11-25T07:15:50.490385,0.1525828915341876,0.011188718331641045,-9.677825849547583,0.19702863911122095,0.01968079192294544,0.0705193018854652,5.490385
2025-11-25T07:15:50.5,0.15251128472584496,0.005067512943676056,-9.66745047731556,0.19591325347244515,0.0246614964779651,0.07233032774496405,5.5
2025-11-25T07:15:50.509615,0.15239867391431378,-0.0010641486066429028,-9.657264660127302,0.194681165131747,0.02948614633766971,0.073919772985466,5.509615
2025-11-25T07:15:50.519231,0.15224804671284245,-0.007185752957213148,-9.647278897070079,0.19335042049421997,0.03415373174828087,0.07526760576236402,5.519231
2025-11-25T07:15:50.528846,0.15206305821865673,-0.013278516608227863,-9.637502714439636,0.19193861531653095,0.0386602556535064,0.07635454275338657,5.528846
2025-11-25T07:15:50.538462,0.15184750568906674,-0.019325536053275257,-9.627944583949862,0.19046186810178542,0.042998312351014305,0.07716225327025227,5.538462
2025-11-25T07:15:50.548077,0.1516047724567765,-0.025311713243636468,-9.618611778053088,0.18893395101855912,0.04715690573912366,0.07767368787691481,5.548077
2025-11-25T07:15:50.557692,0.1513372783122147,-0.03122348006010629,-9.609510192452252,0.1873656485223615,0.051121521873111045,0.07787351979579439,5.557692
2025-11-25T07:15:50.567308,0.15104596962421946,-0.03704836549950516,-9.600644152622847,0.18576437469147417,0.05487446036712562,0.07774868963501678,5.567308
2025-11-25T07:15:50.576923,0.15072987316444447,-0.04277447064388807,-9.592016207226251,0.1841340437815363,0.05839541451896702,0.07728904248599881,5.576923
2025-11-25T07:15:50.586538,0.15038572770914965,-0.04838992885338955,-9.58362691045314,0.18247516718882076,0.06166226923888701,0.07648803458355476,5.586538
2025-11-25T07:15:50.596154,0.15000770418268747,-0.05388242455349456,-9.57547460548454,0.180785148653048,0.06465206920617157,0.07534346331008625,5.596154
2025-11-25T07:15:50.605769,0.14958723016234676,-0.059238827964096415,-9.567555230063393,0.17905875966551715,0.0673421068760378,0.07385815201628586,5.605769
2025-11-25T07:15:50.615385,0.14911294204299186,-0.06444498636412187,-9.559862166571316,0.17728878252105806,0.06971108385306206,0.07204051750869388,5.615385
2025-11-25T07:15:50.625,0.1485707898843853,-0.06948570058395846,-9.552386158904177,0.1754667976233606,0.07174029838721166,0.06990496557234487,5.625
2025-11-25T07:15:50.634615,0.14794431214828416,-0.07434490392207597,-9.545115322665035,0.17358406512099547,0.07341480853869277,0.06747208442316363,5.634615
2025-11-25T07:15:50.644231,0.14721508314772971,-0.079006044828744,-9.538035279985255,0.17163242207491805,0.07472452475254131,0.06476862407757164,5.644231
2025-11-25T07:15:50.653846,0.14636332083953627,-0.08345265664894963,-9.53112944888623,0.16960510225812134,0.07566519768292347,0.061827259143193446,5.653846
2025-11-25T07:15:50.663462,0.14536862966908898,-0.08766908059644335,-9.524379506681093,0.167497392623411,0.07623927460312006,0.058686138803035554,5.663462
2025-11-25T07:15:50.673077,0.14421084292571296,-0.09164129220536425,-9.517766026899782,0.1653070633961342,0.07645659201979897,0.05538823497428031,5.673077
2025-11-25T07:15:50.682692,0.1428709223921036,-0.09535777041099522,-9.511269263396883,0.16303454353902727,0.07633486221972749,0.051980505721354583,5.682692
2025-11-25T07:15:50.692308,0.14133187144959253,-0.09881034954211824,-9.5048700342773,0.16068285592113868,0.07589991029362521,0.04851289169546555,5.692308
2025-11-25T07:15:50.701923,0.13957962006455343,-0.10199500633489511,-9.498550648891733,0.1582573616994532,0.07518562341584589,0.045037160513023596,5.701923
2025-11-25T07:15:50.711538,0.13760384178983476,-0.10491254178368814,-9.492295818615345,0.15576537129151904,0.07423357626805875,0.041605615628570417,5.711538
2025-11-25T07:15:50.721154,0.13539866179688792,-0.10756911176210225,-9.486093489608555,0.15321565811600943,0.07309229801753406,0.03826969947939938,5.721154
2025-11-25T07:15:50.730769,0.1329632149017299,-0.10997655162394383,-9.479935532514402,0.15061788429839715,0.0718161603063448,0.03507854580724866,5.730769
2025-11-25T07:15:50.740385,0.1303020186581682,-0.11215244479593993,-9.473818222812827,0.14798194225835862,0.07046389777627357,0.032077563155637874,5.740385
2025-11-25T07:15:50.75,0.12742513791742194,-0.11411990557018277,-9.467742452484286,0.14531724091673975,0.06909681526515174,0.029307143879600067,5.75
2025-11-25T07:15:50.759615,0.12434812769172025,-0.11590707243955002,-9.461713636122743,0.1426320051330736,0.06777678006080226,0.026801580561322546,5.759615
2025-11-25T07:15:50.769231,0.12109174777719861,-0.11754633281868368,-9.45574131118198,0.1399326844892893,0.06656413589166155,0.02458823947372781,5.769231
2025-11-25T07:15:50.778846,0.11768144993821618,-0.11907332037252366,-9.449838470835145,0.1372235612706944,0.06551569351089567,0.022687001161916798,5.778846
2025-11-25T07:15:50.788462,0.11414665148918685,-0.12052574129342777,-9.444020697387472,0.13450660743446224,0.06468293688071364,0.021109942021404583,5.788462
2025-11-25T07:15:50.798077,0.11051982566813644,-0.12194209414545461,-9.438305178603713,0.13178158565555467,0.06411053769969109,0.019861208430530145,5.798077
2025-11-25T07:15:50.807692,0.10683545461687721,-0.12336035082250248,-9.43270968828529,0.12904634251463826,0.0638352158441086,0.01893703753114447,5.807692
2025-11-25T07:15:50.817308,0.10312890485592097,-0.12481666943775642,-9.427251601609075,0.12629721768566438,0.06388494114871013,0.018325905990958284,5.817308
2025-11-25T07:15:50.826923,0.09943529732355928,-0.12634421247874092,-9.421947003920067,0.12352949705340661,0.06427844967660122,0.018008821183820967,5.826923
2025-11-25T07:15:50.836538,0.09578844609746807,-0.1279721317271609,-9.416809943185521,0.12073786268732727,0.06502503683102989,0.017959785570173588,5.836538
2025-11-25T07:15:50.846154,0.09221992253473724,-0.12972474830788888,-9.411851869334143,0.11791682100569803,0.06612458225961088,0.018146459566839707,5.846154
2025-11-25T07:15:50.855769,0.08875826879315094,-0.1316209180875244,-9.407081294447776,0.1150611065630415,0.06756776221547611,0.018531031999192978,5.855769
2025-11-25T07:15:50.865385,0.0854283542439209,-0.13367355240717385,-9.402503692582023,0.112166059621547,0.06933642207515449,0.019071287335421298,5.865385
2025-11-25T07:15:50.875,0.0822508548178926,-0.13588926721863595,-9.39812163536868,0.1092279710661837,0.0714041105213147,0.01972183186002526,5.875
2025-11-25T07:15:50.884615,0.07924183872539882,-0.13826815066913897,-9.393935134522986,0.10624438906652743,0.07373680252684517,0.020435410152782916,5.884615
2025-11-25T07:15:50.894231,0.07641245328236478,-0.14080366111089973,-9.38994214577538,0.10321438791384184,0.07629384763191567,0.02116422686489165,5.894231
2025-11-25T07:15:50.903846,0.0737687187733781,-0.14348268768683917,-9.38613918818819,0.10013880361962768,0.07902916617756132,0.021861199174866147,5.903846
2025-11-25T07:15:50.913462,0.07131144078330348,-0.1462858147688272,-9.382522043595682,0.09702043965416823,0.08189268312911317,0.022481091145865485,5.913462
2025-11-25T07:15:50.923077,0.06903624951986483,-0.14918782236345185,-9.379086508192982,0.0938642412911198,0.0848319556372443,0.022981501989334383,5.923077
2025-11-25T07:15:50.932692,0.06693376751372432,-0.15215842931700654,-9.375829161822136,0.09067742980211305,0.08779393305890418,0.023323691437958968,5.932692
2025-11-25T07:15:50.942308,0.06498990363854809,-0.1551632557512093,-9.37274810517333,0.08746957482934867,0.0907267801097057,0.023473237269330465,5.942308
2025-11-25T07:15:50.951923,0.06318627313045028,-0.1581649596345391,-9.369843603226673,0.08425256243326594,0.09358167668323328,0.023400537290399967,5.951923
2025-11-25T07:15:50.961538,0.0615007435327244,-0.1611244981331027,-9.367118570624742,0.08104039935677258,0.09631448000368588,0.023081184397408958,5.961538
2025-11-25T07:15:50.971154,0.059908098961323764,-0.16400247262319673,-9.36457883992866,0.07784880199758913,0.09888711517517208,0.0224962502469843,5.971154
2025-11-25T07:15:50.980769,0.058380800921919745,-0.16676052316044407,-9.362233166603007,0.07469455664158539,0.10126856748895355,0.021632504872349204,5.980769
2025-11-25T07:15:50.990385,0.056889811547320035,-0.16936273495920265,-9.360092948973291,0.0715946867288055,0.10343538783931368,0.020482575594385186,5.990385
2025-11-25T07:15:51,0.05540544228382293,-0.17177700874965027,-9.358171678751038,0.06856550175460151,0.10537168410207685,0.019045018231473188,6.0
2025-11-25T07:15:51.009615,0.05389819555783673,-0.1739763361355044,-9.356484177853144,0.06562162260752503,0.10706864471632767,0.017324254139331818,6.009615
2025-11-25T07:15:51.019231,0.052339570313053425,-0.1759399153407538,-9.355045702317936,0.0627750793810353,0.10852370927213173,0.015330331110561224,6.019231
2025-11-25T07:15:51.028846,0.05070280193241904,-0.17765404570361537,-9.353870996102811,0.060034563711362274,0.10973954470465731,0.013078493009072396,6.028846
2025-11-25T07:15:51.038462,0.04896350760850794,-0.17911275384403502,-9.352973364916416,0.05740489730675194,0.11072299056625276,0.010588577068528886,6.038462
2025-11-25T07:15:51.048077,0.04710021285763737,-0.18031812711776116,-9.35236382614584,0.054886757401134974,0.11148410303731782,0.00788428263799687,6.048077
2025-11-25T07:15:51.057692,0.045094741987850004,-0.18128034921032626,-9.352050381755433,0.05247667533443232,0.1120353720241508,0.004992363942360021,6.057692
2025-11-25T07:15:51.067308,0.042932462478392906,-0.1820174393694151,-9.352037454884421,0.05016729333705927,0.11239113371135083,0.0019417956465776994,6.067308
2025-11-25T07:15:51.076923,0.04060238068851611,-0.18255469494537196,-9.352325522611723,0.047947832891067944,0.11256716628804617,-0.001237047745128725,6.076923
2025-11-25T07:15:51.086538,0.03809709634480734,-0.18292383918537755,-9.352910965420222,0.04580470702352712,0.11258043603605722,-0.004513161847826517,6.086538
2025-11-25T07:15:51.096154,0.03541263590450458,-0.18316188926274213,-9.353786141261088,0.04372220664751545,0.1124489470038333,-0.007855594959208316,6.096154
2025-11-25T07:15:51.105769,0.03254819654889856,-0.1833097793932378,-9.354939680483472,0.04168320647452392,0.11219163937305716,-0.011234010740897627,6.105769
2025-11-25T07:15:51.115385,0.029505838974575767,-0.18341079351680226,-9.35635698443816,0.039669857532355905,0.111828283283349,-0.014619116799771707,6.115385
2025-11-25T07:15:51.125,0.026290166137713154,-0.18350887639424696,-9.358020892392963,0.037664248338962585,0.11137932707442022,-0.017982974747254372,6.125
2025-11-25T07:15:51.134615,0.02290801804128487,-0.18364689778850765,-9.359912462460509,0.035649024267244804,0.1108656761579592,-0.021299231401454115,6.134615
2025-11-25T07:15:51.144231,0.019368203357471785,-0.18386494129329445,-9.362011801472013,0.03360796196058702,0.11030839681976912,-0.024543313942043867,6.144231
2025-11-25T07:15:51.153846,0.01568127906564296,-0.18419868057137664,-9.364298879035037,0.03152650343029577,0.10972836002083913,-0.02769261721403014,6.153846
2025-11-25T07:15:51.163462,0.011859379022908744,-0.18467789623619033,-9.366754267525915,0.029392253086787667,0.10914585956295192,-0.030726694579415504,6.163462
2025-11-25T07:15:51.173077,0.007916082580394314,-0.18532518224655128,-9.369359760139748,0.027195424202942943,0.10858024113692644,-0.03362745552683341,6.173077
2025-11-25T07:15:51.182692,0.0038663070438637224,-0.1861548935586967,-9.372098834370398,0.024929198128447155,0.10804955736665711,-0.03637937461342059,6.182692
2025-11-25T07:15:51.192308,-0.0002737964262679886,-0.18717238787755847,-9.374956945332563,0.022589948370880512,0.10757023624003778,-0.0389697213737781,6.192308
2025-11-25T07:15:51.201923,-0.004486964610102274,-0.18837360080768295,-9.377921648299248,0.020177293015732952,0.10715673891630292,-0.041388818807191884,6.201923
2025-11-25T07:15:51.211538,-0.008754979431156861,-0.18974496689498058,-9.380982564106155,0.017693965674615352,0.10682119315351195,-0.04363032146406658,6.211538
2025-11-25T07:15:51.221154,-0.013058870977394953,-0.1912636760997916,-9.38413121557363,0.015145518604342321,0.10657300962125792,-0.04569147852005171,6.221154
2025-11-25T07:15:51.230769,-0.017379166541902722,-0.1928982496780865,-9.387360773605263,0.012539877226535412,0.10641850747951122,-0.047573327180855815,6.230769
2025-11-25T07:15:51.240385,-0.021696174601959675,-0.1946094265984625,-9.390665755417254,0.009886755394756017,0.10636058801981738,-0.049280759162557086,6.240385
2025-11-25T07:15:51.25,-0.025990284153690188,-0.19635135477368318,-9.394041716996155,0.007196934431975636,0.10639850187522698,-0.05082241933149117,6.25
2025-11-25T07:15:51.259615,-0.030242257861234835,-0.19807306791065388,-9.397484979555923,0.004481422031696815,0.10652775169843229,-0.05221042145264976,6.259615
2025-11-25T07:15:51.269231,-0.03443350258932732,-0.1997201996620714,-9.400992424984432,0.0017505328867736454,0.1067401470655968,-0.05345989019382557,6.269231
2025-11-25T07:15:51.278846,-0.03854631112289516,-0.20123685563374819,-9.404561389754958,-0.000987046650901273,0.10702398405696145,-0.05458835860893301,6.278846
2025-11-25T07:15:51.288462,-0.042564080521040264,-0.2025675473997842,-9.408189684079021,-0.0037251366863599957,0.10736428603603342,-0.05561506833687169,6.288462
2025-11-25T07:15:51.298077,-0.04647151913289816,-0.20365909703089133,-9.411875760239337,-0.006460801334595033,0.10774304435081442,-0.05656023214295103,6.298077
2025-11-25T07:15:51.307692,-0.0502548513265426,-0.2044624366280758,-9.415619040600452,-0.009194851740505114,0.10813943806508267,-0.057444319990872836,6.307692
2025-11-25T07:15:51.317308,-0.05390202083141779,-0.20493424212937864,-9.41942038666334,-0.011932025013325591,0.10853006027946199,-0.058287422373299556,6.317308
2025-11-25T07:15:51.326923,-0.05740288924647468,-0.2050383500332029,-9.423282653929881,-0.014680788742181384,0.10888920520585632,-0.05910873257907066,6.326923
2025-11-25T07:15:51.336538,-0.06074942819736513,-0.20474691341830265,-9.427211246320473,-0.01745279423386986,0.10918926795522302,-0.05992617270552816,6.336538
2025-11-25T07:15:51.346154,-0.06393590590565272,-0.20404126280146817,-9.431214569330857,-0.020262078703037853,0.10940128733881462,-0.060756165730584975,6.346154
2025-11-25T07:15:51.355769,-0.06695906521979954,-0.20291244631513203,-9.435304291590432,-0.023124158700533654,0.10949563213768153,-0.061613532670827136,6.355769
2025-11-25T07:15:51.365385,-0.06981828059533234,-0.20136143052956573,-9.43949535819772,-0.026055147722374866,0.10944280341239121,-0.06251147713785894,6.365385
2025-11-25T07:15:51.375,-0.07251567215771468,-0.1993989502584779,-9.443805739410227,-0.02907098390802555,0.10921430573675803,-0.06346161316883284,6.375
2025-11-25T07:15:51.384615,-0.0750561517646266,-0.19704500601573707,-9.448255927538531,-0.032186798387343556,0.10878352646917919,-0.06447399555809612,6.384615
2025-11-25T07:15:51.394231,-0.0774473804272401,-0.19432802167471758,-9.452868210161132,-0.0354164148536105,0.10812655041189163,-0.06555712367811366,6.394231
2025-11-25T07:15:51.403846,-0.0796996264669444,-0.19128369226853958,-9.457665759279015,-0.03877195140858274,0.1072228326110677,-0.06671790883133877,6.403846
2025-11-25T07:15:51.413462,-0.08182552549342553,-0.1879535726936156,-9.462671594204371,-0.04226348947345376,0.10605566676833438,-0.06796161742531169,6.413462
2025-11-25T07:15:51.423077,-0.08383975233392528,-0.18438347706887512,-9.467907498254934,-0.04589877586471156,0.10461242820865226,-0.0692918182077463,6.423077
2025-11-25T07:15:51.432692,-0.08575861906725064,-0.18062176822616394,-9.47339298277408,-0.04968292962459132,0.10288463078621767,-0.07071036235849572,6.432692
2025-11-25T07:15:51.442308,-0.08759961320825811,-0.17671761897940869,-9.47914438854382,-0.05361812950815202,0.1008678908408072,-0.07221741169766052,6.442308
2025-11-25T07:15:51.451923,-0.08938088829143397,-0.17271933089247707,-9.485174196971169,-0.05770325870480276,0.09856190681736095,-0.07381151378267779,6.451923
2025-11-25T07:15:51.461538,-0.09112071792404924,-0.16867280357489214,-9.491490598583209,-0.06193348527728401,0.09597052787746578,-0.07548971177360518,6.461538
2025-11-25T07:15:51.471154,-0.09283692623176976,-0.1646202464338342,-9.49809733980902,-0.06629976853927032,0.0931019211153492,-0.07724767173753194,6.471154
2025-11-25T07:15:51.480769,-0.09454631472341095,-0.16059920489996368,-9.504993842001545,-0.07078830991988896,0.0899687947261026,-0.07907981001046593,6.480769
2025-11-25T07:15:51.490385,-0.09626411681801235,-0.1566419368048656,-9.512175557541054,-0.0753800095103913,0.08658861282445834,-0.08097941077584093,6.490385
2025-11-25T07:15:51.5,-0.09800352008505524,-0.15277513225029418,-9.519634498733101,-0.08005003206395854,0.08298373337845323,-0.08293873761999793,6.5
2025-11-25T07:15:51.509615,-0.09977529456720703,-0.14901993178404482,-9.527359855093163,-0.08476761133173097,0.07918139970252192,-0.08494915535117724,6.509615
2025-11-25T07:15:51.519231,-0.1015875504115261,-0.14539217125159737,-9.535338612184225,-0.08949621760651645,0.0752135288230738,-0.08700128375613753,6.519231
2025-11-25T07:15:51.528846,-0.10344562471615971,-0.14190277393818002,-9.54355610037492,-0.09419417408635954,0.07111627936036007,-0.0890852013296376,6.528846
2025-11-25T07:15:51.538462,-0.10535207564850096,-0.13855822171463997,-9.551996426826637,-0.09881573752492168,0.06692942785852994,-0.09119070546614402,6.538462
2025-11-25T07:15:51.548077,-0.10730674817215823,-0.13536105901283615,-9.560642769233002,-0.10331257918909159,0.06269560169187004,-0.0933076203010053,6.548077
2025-11-25T07:15:51.557692,-0.1093068718741863,-0.13231040556076762,-9.56947752913399,-0.1076355400863403,0.05845940440453077,-0.09542613030638449,6.557692
2025-11-25T07:15:51.567308,-0.11134715730135396,-0.12940246746834297,-9.578482355003645,-0.11173650268435177,0.054266449893833384,-0.09753711080875695,6.567308
2025-11-25T07:15:51.576923,-0.1134198709310255,-0.12663103939683634,-9.587638053167453,-0.11557021894170416,0.05016231202388136,-0.09963242591737187,6.576923
2025-11-25T07:15:51.586538,-0.11551488543356356,-0.1239879872284975,-9.596924410553166,-0.11909595651444979,0.046191396436366515,-0.10170516839249583,6.586538
2025-11-25T07:15:51.596154,-0.11761971692533103,-0.12146369675345185,-9.606319959619178,-0.12227886466106909,0.042395750317036816,-0.10374982413955645,6.596154
2025-11-25T07:15:51.605769,-0.11971957436676874,-0.11904747294887774,-9.615801724482255,-0.1250910070639106,0.03881384086643575,-0.10576235613862262,6.605769
2025-11-25T07:15:51.615385,-0.1217974592055939,-0.11672787615805828,-9.625344997018384,-0.12751204764028898,0.035479345840027814,-0.1077402156741236,6.615385
2025-11-25T07:15:51.625,-0.12383436301542576,-0.1144929831562488,-9.634923197872524,-0.1295296012970009,0.03242000547386764,-0.10968229643134325,6.625
2025-11-25T07:15:51.634615,-0.1258096111761779,-0.11233056058887637,-9.64450787747774,-0.131139275968842,0.029656585952742752,-0.11158884457419857,6.634615
2025-11-25T07:15:51.644231,-0.12770138793507735,-0.110228136215495,-9.65406890771683,-0.13234443859919437,0.0272019986970924,-0.11346132607828655,6.644231
2025-11-25T07:15:51.653846,-0.1294874547186512,-0.10817295439448557,-9.66357490350426,-0.1331557400001903,0.025060606879528255,-0.11530223935753799,6.653846
2025-11-25T07:15:51.663462,-0.1311460449922599,-0.10615181257416023,-9.672993887983283,-0.133590438021118,0.02322774066114106,-0.11711485952677696,6.663462
2025-11-25T07:15:51.673077,-0.13265689059199454,-0.10415079435052188,-9.682294174756155,-0.13367157167737959,0.021689445855513412,-0.11890291690375351,6.673077
2025-11-25T07:15:51.682692,-0.13400231079524674,-0.10215493112852364,-9.691445399149776,-0.13342706060670043,0.020422502297473107,-0.12067023791823583,6.682692
2025-11-25T07:15:51.692308,-0.1351682802935734,-0.10014783178011907,-9.700419605437105,-0.13288882003305696,0.019394751160217806,-0.12242039724457812,6.692308
2025-11-25T07:15:51.701923,-0.13614538759503714,-0.09811132555006417,-9.709192294679053,-0.13209197101511835,0.01856575483833889,-0.12415643785993581,6.701923
2025-11-25T07:15:51.711538,-0.13692960179140692,-0.09602517691149279,-9.71774335009224,-0.1310741858715941,0.017887789190975462,-0.12588070702060236,6.711538
2025-11-25T07:15:51.721154,-0.13752278355483294,-0.09386694579908504,-9.726057771448227,-0.12987515831456264,0.017307153897928546,-0.12759482736918829,6.721154
2025-11-25T07:15:51.730769,-0.13793290350029586,-0.09161206659049852,-9.7341261651319,-0.12853614629013665,0.0167657822200023,-0.12929977776916435,6.730769
2025-11-25T07:15:51.740385,-0.1381739600550823,-0.08923419682439253,-9.741944959291894,-0.12709950832651665,0.016203117751319444,-0.13099601816633868,6.740385
2025-11-25T07:15:51.75,-0.1382656100739685,-0.0867058490867403,-9.749516345459687,-0.12560814408876816,0.015558193513860471,-0.13268358312134612,6.75
2025-11-25T07:15:51.759615,-0.13823253447328693,-0.08399928087644541,-9.756847978677655,-0.12410476678482753,0.014771813442353897,-0.13436209562168153,6.759615
2025-11-25T07:15:51.769231,-0.13810356336828666,-0.08108758892809233,-9.76395248609138,-0.12263098542528823,0.013788718806269246,-0.13603069351547653,6.769231
2025-11-25T07:15:51.778846,-0.1379105906790044,-0.07794593883345141,-9.770846838698052,-0.1212262449809685,0.012559624812813825,-0.13768789000428736,6.778846
2025-11-25T07:15:51.788462,-0.13768732166219183,-0.0745528528064227,-9.777551639928404,-0.11992672964859258,0.01104302377628809,-0.139331401361897,6.788462
2025-11-25T07:15:51.798077,-0.13746791261304747,-0.07089147460374343,-9.784090380911653,-0.11876435175746396,0.009206665088847635,-0.1409579742568471,6.798077
2025-11-25T07:15:51.807692,-0.13728557142632633,-0.0669507319263437,-9.79048870178722,-0.11776592828962423,0.007028643423854438,-0.14256323399194631,6.807692
2025-11-25T07:15:51.817308,-0.13717118957240973,-0.0627263214060378,-9.796773680479214,-0.11695261065016894,0.004498056037335201,-0.1441415577179852,6.817308
2025-11-25T07:15:51.826923,-0.13715207489978584,-0.05822144554366216,-9.802973153440783,-0.11633959554120787,0.0016152164059538073,-0.14568596537396689,6.826923
2025-11-25T07:15:51.836538,-0.13725085248904909,-0.05344723703441478,-9.809115068762212,-0.1159361064569529,-0.0016085773895287594,-0.14718802794134606,6.836538
2025-11-25T07:15:51.846154,-0.13748459496446497,-0.04842281999996572,-9.815226883083959,-0.11574560095505768,-0.005151721149096752,-0.14863781488076727,6.846154
2025-11-25T07:15:51.855769,-0.13786423049696214,-0.04317498071059068,-9.821335027393234,-0.11576614236624051,-0.008983423151025644,-0.15002392100899947,6.855769
2025-11-25T07:15:51.865385,-0.13839425476594833,-0.03773745017370409,-9.827464466021038,-0.11599088379819598,-0.013065224686368445,-0.1513336094199549,6.865385
2025-11-25T07:15:51.875,-0.13907274622933416,-0.03214983501201121,-9.83363835249139,-0.11640863436212186,-0.017352838174045777,-0.1525530829757082,6.875
2025-11-25T07:15:51.884615,-0.13989166033469896,-0.02645626180270276,-9.83987775625367,-0.11700448791135937,-0.021798182205477988,-0.15366787207038096,6.884615
2025-11-25T07:15:51.894231,-0.140837363425445,-0.020703810970017732,-9.846201416351125,-0.1177604834996039,-0.02635148240726728,-0.15466331681679782,6.894231
2025-11-25T07:15:51.903846,-0.14189135928136742,-0.014940811912140087,-9.85262548749067,-0.11865625109320224,-0.03096331616843173,-0.15552512273858188,6.903846
2025-11-25T07:15:51.913462,-0.14303115508031353,-0.009215068440109477,-9.859163277353304,-0.11966959830914485,-0.0355864922436877,-0.15623996590096156,6.913462
2025-11-25T07:15:51.923077,-0.1442312077769263,-0.0035720943074611777,-9.865825011230054,-0.12077701475379798,-0.040177665711293366,-0.15679611460438656,6.923077
2025-11-25T07:15:51.932692,-0.14546389136822627,0.0019465416823301923,-9.872617681610633,-0.12195409168895613,-0.04469859883646848,-0.15718403122926675,6.932692
2025-11-25T07:15:51.942308,-0.14670043508678143,0.00730464804349603,-9.879545037904965,-0.12317586547080837,-0.049116999013858034,-0.15739692372112005,6.942308
2025-11-25T07:15:51.951923,-0.14791179973716467,0.012472516456742458,-9.886607748159015,-0.12441709810542832,-0.05340690460184396,-0.15743122218481023,6.951923
2025-11-25T07:15:51.961538,-0.14906947555743694,0.017427632949595307,-9.893803732827289,-0.12565251197108085,-0.057548642017020174,-0.15728695166489212,6.961538
2025-11-25T07:15:51.971154,-0.15014619396002424,0.02215497670128647,-9.901128645717186,-0.12685699768258515,-0.06152841929423986,-0.15696795876033828,6.971154
2025-11-25T07:15:51.980769,-0.15111654833627752,0.026646934565243658,-9.908576465696859,-0.12800581408069742,-0.06533763497041936,-0.15648194087352182,6.980769
2025-11-25T07:15:51.990385,-0.15195751996951862,0.03090288882231369,-9.916140158596361,-0.12907479612316383,-0.06897197750957439,-0.1558402386350123,6.990385
2025-11-25T07:15:52,-0.1526489056235547,0.034928548843444714,-9.923812363326125,-0.13004058058166115,-0.07243039304075112,-0.1550573886190947,7.0
2025-11-25T07:15:52.009615,-0.15317364346378382,0.03873509803568109,-9.931586047139717,-0.13088085941640654,-0.075714011352774,-0.15415048001380838,7.009615
2025-11-25T07:15:52.019231,-0.15351803578573442,0.04233821633040465,-9.939455064471035,-0.13157467919224447,-0.07882512457578932,-0.15313839247816513,7.019231
2025-11-25T07:15:52.028846,-0.1536718733454757,0.04575701820441195,-9.947414547134755,-0.13210280607752053,-0.08176629910848085,-0.15204100068696258,7.028846
2025-11-25T07:15:52.038462,-0.15362847492155451,0.049012927675518264,-9.955461059113892,-0.1324481550820435,-0.0845396758337643,-0.15087841764658208,7.038462
2025-11-25T07:15:52.048077,-0.1533846608517118,0.052128509150190364,-9.963592472991948,-0.1325962478519544,-0.08714648706691161,-0.14967032580078993,7.048077
2025-11-25T07:15:52.057692,-0.15294067653128013,0.05512629236394301,-9.971807566062406,-0.132535637532869,-0.08958679553358521,-0.14843542353385164,7.057692
2025-11-25T07:15:52.067308,-0.15230007331047807,0.058027661015546426,-9.980105383190336,-0.13225823727697464,-0.0918594427291772,-0.1471909982072536,7.067308
2025-11-25T07:15:52.076923,-0.15146954610712351,0.060851897275414714,-9.988484455787987,-0.1317595137980098,-0.09396218450723895,-0.14595262173939996,7.076923
2025-11-25T07:15:52.086538,-0.15045872323965628,0.06361547152034719,-9.99694198592358,-0.1310385484326015,-0.09589199192174923,-0.14473395094533106,7.086538
2025-11-25T07:15:52.096154,-0.14927990308451372,0.06633163630335748,-10.005473095052242,-0.1300980049481553,-0.0976454984952281,-0.14354660857804927,7.096154
2025-11-25T07:15:52.105769,-0.1479477328461219,0.06901033566156342,-10.014070207033313,-0.12894405849990834,-0.09921957095854961,-0.1424001250594957,7.105769
2025-11-25T07:15:52.115385,-0.14647882875263776,0.07165839013158118,-10.022722602485763,-0.1275863282251575,-0.10061196737666489,-0.1413019313958842,7.115385
2025-11-25T07:15:52.125,-0.14489134385024424,0.07427987995998839,-10.031416160526152,-0.12603782419885964,-0.10182203245518026,-0.14025740508819493,7.125
2025-11-25T07:15:52.134615,-0.1432044953245396,0.07687663636535792,-10.040133297959136,-0.12431488700098663,-0.10285136986925347,-0.13926997620711504,7.134615
2025-11-25T07:15:52.144231,-0.14143806631599018,0.07944876513377114,-10.04885311612835,-0.12243708425600715,-0.10370442250544724,-0.1383412934482959,7.144231
2025-11-25T07:15:52.153846,-0.13961189909312588,0.081995157539825,-10.057551758097318,-0.12042703335759736,-0.10438888547608935,-0.1374714307638375,7.153846
2025-11-25T07:15:52.163462,-0.13774539812023387,0.0845139740029226,-10.066202957042496,-0.11831012534718421,-0.10491588917860777,-0.1366590968221795,7.163462
2025-11-25T07:15:52.173077,-0.1358570617865434,0.0870031017770587,-10.074778727905437,-0.11611412216283477,-0.10529993085914795,-0.13590180895274834,7.173077
2025-11-25T07:15:52.182692,-0.1339640579786865,0.08946058423694245,-10.083250134409612,-0.11386860168498329,-0.10555858915479278,-0.13519601584100352,7.182692
2025-11-25T07:15:52.192308,-0.1320818508155279,0.09188500436226717,-10.091588063293422,-0.1116042457242188,-0.10571210242026309,-0.13453718618916416,7.192308
2025-11-25T07:15:52.201923,-0.13022387790472154,0.0942757952725693,-10.099763953284535,-0.10935199402648474,-0.10578291510608298,-0.1339199049804618,7.201923
2025-11-25T07:15:52.211538,-0.1284012750301535,0.09663345746795055,-10.107750445630986,-0.10714210102475909,-0.10579529261532461,-0.13333802533123093,7.211538
2025-11-25T07:15:52.221154,-0.1266226489686273,0.09895968373653632,-10.115521937971195,-0.10500312919694009,-0.105775071058898,-0.13278491162222733,7.221154
2025-11-25T07:15:52.230769,-0.12489390454026247,0.10125741417821657,-10.123055035011838,-0.10296090873509711,-0.10574955159179708,-0.13225378266765847,7.230769
2025-11-25T07:15:52.240385,-0.1232181345538682,0.10353084953014564,-10.130328902637691,-0.1010374967009002,-0.10574749199935238,-0.13173813405098134,7.240385
2025-11-25T07:15:52.25,-0.12159558018462865,0.10578543916386603,-10.137325546541646,-0.09925017612162433,-0.105799115505106,-0.13123220106039463,7.25
2025-11-25T07:15:52.259615,-0.12002366545362232,0.10802784375428462,-10.144030042628216,-0.09761054477635363,-0.10593605906671705,-0.1307314183822854,7.259615
2025-11-25T07:15:52.269231,-0.11849710351774327,0.11026586129905744,-10.15043073365088,-0.09612375969495297,-0.10619120975270491,-0.13023282704903877,7.269231
2025-11-25T07:15:52.278846,-0.11700806648235773,0.11250829911080318,-10.156519379030188,-0.09478802347815404,-0.10659840081253318,-0.12973536912789838,7.278846
2025-11-25T07:15:52.288462,-0.1155464086224912,0.1147647762192727,-10.162291222128408,-0.09359440418890771,-0.10719193781107957,-0.12924000895470053,7.288462
2025-11-25T07:15:52.298077,-0.11409993709208427,0.11704545328727331,-10.167744936543212,-0.09252705567183128,-0.10800590700779193,-0.12874963753146726,7.298077
2025-11-25T07:15:52.307692,-0.11265473055187054,0.11936070201565663,-10.17288242776489,-0.09156385477315333,-0.10907321018589639,-0.12826874818875347,7.307692
2025-11-25T07:15:52.317308,-0.11119550905226656,0.12172073033059747,-10.17770848801357,-0.09067741676909231,-0.11042429121853116,-0.12780290078471626,7.317308
2025-11-25T07:15:52.326923,-0.10970605530679205,0.12413517289977062,-10.182230324181266,-0.08983640693081006,-0.11208556828618686,-0.12735801076661613,7.326923
2025-11-25T07:15:52.336538,-0.1081696780931037,0.12661264957536655,-10.186456999545111,-0.08900704059122931,-0.11407764829976663,-0.12693951523942845,7.336538
