Timestamp,Acceleration_X,Acceleration_Y,Acceleration_Z,Gyro_X,Gyro_Y,Gyro_Z,time_s
2025-11-23T06:30:30,-0.14292942152281596,0.18631673882921176,-10.261373113849892,-0.1981793846692401,-0.12870216818928026,-0.14469908085498376,0.0
2025-11-23T06:30:30.009615,-0.13583264758595864,0.1920153436188569,-10.264666310954272,-0.19015985234321836,-0.14442007427550502,-0.14158712097812917,0.009615
2025-11-23T06:30:30.019231,-0.1285591348816781,0.19782108352129132,-10.268147631225451,-0.18170173166045456,-0.16022014999513373,-0.13821108747440883,0.019231
2025-11-23T06:30:30.028846,-0.12116456759799409,0.2036673565554606,-10.271776313484084,-0.17288093208317673,-0.17591589670299534,-0.13458597129260033,0.028846
2025-11-23T06:30:30.038462,-0.11370156174705853,0.209489165702798,-10.275505060499862,-0.16377157154678795,-0.19133086456647921,-0.13072434139624695,0.038462
2025-11-23T06:30:30.048077,-0.10621850677576465,0.21522462028305486,-10.279280061090114,-0.15444462938716755,-0.20630352791638862,-0.12663594403246212,0.048077
2025-11-23T06:30:30.057692,-0.0987586175368786,0.22081622849304747,-10.283041284974216,-0.1449665811738291,-0.22069115222893199,-0.12232751672005931,0.057692
2025-11-23T06:30:30.067308,-0.09135921615753001,0.22621192636865134,-10.28672306665077,-0.13539805465986482,-0.23437249977834734,-0.11780282418856831,0.067308
2025-11-23T06:30:30.076923,-0.08405125871558818,0.23136581382525145,-10.290254964352386,-0.12579257917621264,-0.2472493026596576,-0.11306291212489902,0.076923
2025-11-23T06:30:30.086538,-0.07685911814058266,0.23623860232569527,-10.293562859040811,-0.11619550544531229,-0.25924650744943545,-0.10810656286330649,0.086538
2025-11-23T06:30:30.096154,-0.06980062948877967,0.24079780602337889,-10.296570246511836,-0.10664315999470222,-0.2703113762121402,-0.10293092719090725,0.096154
2025-11-23T06:30:30.105769,-0.06288739103061404,0.24501771916733414,-10.299199672048141,-0.09716228061445466,-0.28041161661088876,-0.09753229749928985,0.105769
2025-11-23T06:30:30.115385,-0.05612529264009074,0.2488792194592659,-10.301374260326224,-0.08776976395731231,-0.28953279031627727,-0.0919069755497682,0.115385
2025-11-23T06:30:30.125,-0.049515218545478856,0.2523694290194854,-10.30301929765095,-0.07847274651606594,-0.2976752899140924,-0.08605217211595495,0.125
2025-11-23T06:30:30.134615,-0.04305385467346941,0.2554812579695129,-10.304063822388919,-0.0692690327835629,-0.304851171430538,-0.07996686372111105,0.134615
2025-11-23T06:30:30.144231,-0.03673452698241822,0.2582128512741492,-10.304442173217215,-0.06014787110921046,-0.3110810887964382,-0.07365253342362037,0.144231
2025-11-23T06:30:30.153846,-0.03054800527563772,0.2605669562582075,-10.304095440003737,-0.051091054497649335,-0.31639151453674164,-0.0671137379597801,0.153846
2025-11-23T06:30:30.163462,-0.0244832233711589,0.26255022463686295,-10.302972762722721,-0.0420742985683303,-0.3208123662073537,-0.06035846484042831,0.163462
2025-11-23T06:30:30.173077,-0.018527887209811633,0.2641724585645627,-10.301032429497884,-0.03306883433882802,-0.3243750984943282,-0.05339826514726039,0.173077
2025-11-23T06:30:30.182692,-0.012668962348973628,0.26544580939383555,-10.298242735396762,-0.02404314900626766,-0.32711126756860337,-0.04624816933055649,0.182692
2025-11-23T06:30:30.192308,-0.006893047176163739,0.26638394649657154,-10.294582577754802,-0.01496480189904815,-0.3290515356798466,-0.03892641333132076,0.192308
2025-11-23T06:30:30.201923,-0.0011866488884719462,0.2670012284587128,-10.290041777688861,-0.005802229327212581,-0.3302250693838311,-0.03145402110430688,0.201923
2025-11-23T06:30:30.211538,0.004463610330515041,0.26731191716730385,-10.284621128899753,0.0034735617740248243,-0.3306592889335274,-0.0238543058498835,0.211538
2025-11-23T06:30:30.221154,0.010070818384355865,0.26732946820864795,-10.278332185228216,0.012887512704902017,-0.33037993567030377,-0.01615235839884499,0.221154
2025-11-23T06:30:30.230769,0.015647583243600573,0.26706591328904383,-10.271196808417237,0.02245932858281578,-0.32941143124225314,-0.008374579187778888,0.230769
2025-11-23T06:30:30.240385,0.02120578290036485,0.2665313337557107,-10.263246504891155,0.032202647281835924,-0.3277775011115044,-0.0005482832241512342,0.240385
2025-11-23T06:30:30.25,0.026756223887338667,0.2657334191476907,-10.254521579965596,0.04212458944487547,-0.32550201494185244,0.007298621087322909,0.25
2025-11-23T06:30:30.259615,0.032308201057237175,0.2646771152951889,-10.245070125086537,0.05222568746642404,-0.32260995920245583,0.015137897564601172,0.259615
2025-11-23T06:30:30.269231,0.03786898065032524,0.26336438556538805,-10.234946834843882,0.0625001598886825,-0.31912842209629194,0.02294122035244904,0.269231
2025-11-23T06:30:30.278846,0.04344325411962639,0.2617941199255283,-10.224211645373185,0.07293646816453475,-0.3150874528736036,0.030680418441256865,0.278846
2025-11-23T06:30:30.288462,0.04903262197003379,0.2599622189855724,-10.21292820757542,0.08351806915163072,-0.3105206551417039,0.03832776558035331,0.288462
2025-11-23T06:30:30.298077,0.05463516177396619,0.2578618599560195,-10.201162246125143,0.09422426335617173,-0.3054653880123767,0.045856356821962985,0.298077
2025-11-23T06:30:30.307692,0.060245119025277134,0.2554839313816012,-10.18897988264871,0.10503104129939185,-0.2999624926636951,0.0532406074332265,0.307692
2025-11-23T06:30:30.317308,0.06585274381144038,0.2528176083963609,-10.176446001859215,0.11591185008912637,-0.2940555371943683,0.060456892564314614,0.317308
2025-11-23T06:30:30.326923,0.0714442862538838,0.2498510272650119,-10.163622718049101,0.12683823524447227,-0.2877896547391634,0.06748431816922029,0.326923
2025-11-23T06:30:30.336538,0.07700215866328583,0.24657200770707355,-10.150567977753177,0.13778034902394795,-0.2812101052001136,0.07430558150494249,0.336538
2025-11-23T06:30:30.346154,0.08250526872470276,0.24296876959077152,-10.137334329008599,0.14870733888168566,-0.2743607062741735,0.0809078505691165,0.346154
2025-11-23T06:30:30.355769,0.08792952240266072,0.23903059889603162,-10.123967892250926,0.1595876273556952,-0.26728226565075774,0.08728357461338454,0.355769
2025-11-23T06:30:30.365385,0.09324848545828245,0.23474843175291613,-10.110507562482086,0.17038908247609505,-0.2600111195819957,0.09343113893145465,0.365385
2025-11-23T06:30:30.375,0.0984341787687214,0.2301153395457708,-10.096984447565,0.18107908311627896,-0.2525778527853167,0.09935529282195463,0.375
2025-11-23T06:30:30.384615,0.10345796954616734,0.22512690893331447,-10.083421515696799,0.19162451030957098,-0.2450062475070256,0.10506729962494721,0.384615
2025-11-23T06:30:30.394231,0.10829151352138866,0.21978151605749727,-10.069833409636628,0.20199171962391488,-0.23731249313291924,0.110584778444018,0.394231
2025-11-23T06:30:30.403846,0.11290770262594378,0.21408049632694182,-10.056226399757435,0.21214655156711829,-0.22950468333458993,0.1159312306200918,0.403846
2025-11-23T06:30:30.413462,0.11728157569862206,0.2080282151264036,-10.042598482569339,0.22205441867649098,-0.22158262551197822,0.12113526694678406,0.413462
2025-11-23T06:30:30.423077,0.1213911544638194,0.20163205216892927,-10.028939659193494,0.23168048453212908,-0.21353797565158256,0.1262295694229788,0.423077
2025-11-23T06:30:30.432692,0.12521817064768295,0.19490231956613427,-10.015232427709147,0.240989937607937,-0.20535469128273276,0.13124963664859626,0.432692
2025-11-23T06:30:30.442308,0.12874864928608556,0.18785213763952638,-10.00145249486255,0.24994836654620992,-0.1970097764732252,0.13623237664817275,0.442308
2025-11-23T06:30:30.451923,0.1319733124741361,0.1804972920959668,-9.987569677168105,0.2585222478441241,-0.18847428110626155,0.14121461833691126,0.451923
2025-11-23T06:30:30.461538,0.1348877770759783,0.17285609085107045,-9.973548942993594,0.26667954125805055,-0.17971450971337766,0.14623160908270968,0.461538
2025-11-23T06:30:30.471154,0.13749254068892353,0.16494922689741712,-9.959351555024396,0.2743903528619639,-0.170693393463317,0.15131555927138324,0.471154
2025-11-23T06:30:30.480769,0.13979277252195974,0.1567996364412773,-9.944936296578868,0.28162759265377274,-0.16137198401452446,0.15649429427459055,0.480769
2025-11-23T06:30:30.490385,0.14179794051386044,0.1484323264375686,-9.930260787018435,0.2883675413649438,-0.15171103152791232,0.16179007433157555,0.490385
2025-11-23T06:30:30.5,0.14352131063927717,0.1398741401408505,-9.915282896470224,0.29459025116118126,-0.1416726015696457,0.16721863156035502,0.5
2025-11-23T06:30:30.509615,0.144979350060943,0.13115343479060543,-9.899962253958371,0.3002797304660156,-0.1312216737048206,0.1727884503869932,0.509615
2025-11-23T06:30:30.519231,0.14619105585552136,0.12229966080599644,-9.88426181410196,0.3054238968069641,-0.12032766513139039,0.17850029576020973,0.519231
2025-11-23T06:30:30.528846,0.14717722254016005,0.11334285426280181,-9.868149423578904,0.3100143124951247,-0.10896583882567146,0.18434698210482778,0.528846
2025-11-23T06:30:30.538462,0.14795966129094493,0.104313075267787,-9.85159932354718,0.31404573597139845,-0.09711857064181159,0.19031337262579937,0.538462
2025-11-23T06:30:30.548077,0.14856039077274497,0.09523983422785627,-9.834593535581524,0.3175155303500366,-0.08477644780346485,0.19637659682710296,0.548077
2025-11-23T06:30:30.557692,0.14900082719796492,0.08615154556834075,-9.81712309149701,0.3204229838433801,-0.07193915757925178,0.202506471952336,0.557692
2025-11-23T06:30:30.567308,0.14930100471382268,0.0770750403221553,-9.799189071933064,0.3227686170353093,-0.058616117648289924,0.20866611031018997,0.567308
2025-11-23T06:30:30.576923,0.14947885464105795,0.06803515739867409,-9.780803419205693,0.32455356356495957,-0.044826805616249105,0.2148126860901057,0.576923
2025-11-23T06:30:30.586538,0.14954956296694819,0.05905441796268461,-9.761989494614097,0.32577909818004724,-0.030600758311202892,0.2208983259015588,0.586538
2025-11-23T06:30:30.596154,0.14952501391304338,0.05015277319005318,-9.742782357690906,0.32644635376595144,-0.01597722931050516,0.22687108767091776,0.596154
2025-11-23T06:30:30.605769,0.14941332157549814,0.04134741125398886,-9.723228749011279,0.32655623419264773,-0.0010045179328742986,0.23267600623233642,0.605769
2025-11-23T06:30:30.615385,0.1492184551510932,0.03265261789290032,-9.703386760913014,0.32610949968780345,0.014260988579007634,0.23825620212301443,0.615385
2025-11-23T06:30:30.625,0.14893997101385026,0.02407969978227525,-9.683325188482245,0.3251069721731005,0.02975599447227596,0.24355406197525334,0.625
2025-11-23T06:30:30.634615,0.14857287035621752,0.015636990114148715,-9.663122564920274,0.3235497864370859,0.04541162072508804,0.2485124995515497,0.634615
2025-11-23T06:30:30.644231,0.14810760248873417,0.007329955419380338,-9.642865891455719,0.3214396157588941,0.06115480700217319,0.2530762964649394,0.644231
2025-11-23T06:30:30.653846,0.1475302315423039,-0.0008385855950390961,-9.62264907097728,0.3187788286247602,0.07690974335693004,0.25719350360423815,0.653846
2025-11-23T06:30:30.663462,0.14682277750718759,-0.008868131546070798,-9.602571059371373,0.31557056664391475,0.09259931423989289,0.2608168607270664,0.663462
2025-11-23T06:30:30.673077,0.1459637313269907,-0.016760067824034264,-9.582733771056423,0.31181875493925004,0.10814656344992869,0.2639051673647948,0.673077
2025-11-23T06:30:30.682692,0.14492873065894823,-0.024517156434219218,-9.563239812326676,0.30752806467313976,0.12347620152252324,0.2664245212061874,0.682692
2025-11-23T06:30:30.692308,0.14369137163666273,-0.032142970408165904,-9.54419015252863,0.3027038512343321,0.13851616917039875,0.26834933621545287,0.692308
2025-11-23T06:30:30.701923,0.1422241251824512,-0.03964129716789919,-9.525681862795297,0.29735209496163506,0.15319923898291224,0.2696630619072035,0.701923
2025-11-23T06:30:30.711538,0.14049932325462833,-0.047015536784104604,-9.507806049127373,0.2914793733310161,0.16746459389997626,0.27035854610129334,0.711538
2025-11-23T06:30:30.721154,0.1384901768117847,-0.054268125249396705,-9.490646087652488,0.28509289494378853,0.18125929108813704,0.27043801522050936,0.721154
2025-11-23T06:30:30.730769,0.1361717814717295,-0.06140001628878029,-9.474276244417672,0.2782006267168066,0.19453952002194183,0.26991268269132507,0.730769
2025-11-23T06:30:30.740385,0.13352206299268227,-0.06841025482332143,-9.458760733595556,0.27081153861420865,0.2072715816324498,0.2688020248963106,0.740385
2025-11-23T06:30:30.75,0.13052261735264642,-0.07529566938444215,-9.444153236174646,0.2629359651265933,0.2194325306807244,0.26713277732635654,0.75
2025-11-23T06:30:30.759615,0.12715940810742873,-0.08205069784314471,-9.430496864213568,0.2545860453897609,0.23101043271971577,0.26493770555282825,0.759615
2025-11-23T06:30:30.769231,0.12342329333601597,-0.08866734186083837,-9.417824510397175,0.24577617500946558,0.2420041997939187,0.2622542070300663,0.769231
2025-11-23T06:30:30.778846,0.11931036597525793,-0.09513522792665373,-9.406159473835098,0.2365233941232846,0.2524229925821663,0.25912280694088385,0.778846
2025-11-23T06:30:30.788462,0.1148221062225951,-0.101441745896393,-9.39551622101818,0.2268476418062049,0.26228521164547325,0.255585623600996,0.788462
2025-11-23T06:30:30.798077,0.10996535991383079,-0.10757224000005053,-9.385901145597261,0.21677181739673482,0.27161714128116204,0.25168488918792226,0.798077
2025-11-23T06:30:30.807692,0.10475216644269218,-0.11351023306053482,-9.377313229692925,0.20632160463627341,0.2804513446153741,0.2474616089629684,0.807692
2025-11-23T06:30:30.817308,0.09919946296661973,-0.1192376664817161,-9.369744561639713,0.19552504277881086,0.2888249263016648,0.24295442103144205,0.817308
2025-11-23T06:30:30.826923,0.09332869300791678,-0.12473514220878547,-9.363180714888191,0.18441187537870535,0.29677777510659936,0.23819868592579552,0.826923
2025-11-23T06:30:30.836538,0.08716534873536384,-0.1299821651940297,-9.357601039404003,0.17301275982589837,0.30435087449912085,0.23322580661582581,0.836538
2025-11-23T06:30:30.846154,0.08073847341227826,-0.13495740158846978,-9.352978957851406,0.16135845147301608,0.31158472930624254,0.22806276707862735,0.846154
2025-11-23T06:30:30.855769,0.07408014197133925,-0.1396389762408978,-9.349282377931548,0.1494790701296565,0.3185179104019181,0.22273187963591976,0.855769
2025-11-23T06:30:30.865385,0.06722492689485443,-0.14400482338748993,-9.346474314379469,0.1374035264085128,0.3251856853499407,0.21725073369056022,0.865385
2025-11-23T06:30:30.875,0.06020934765448309,-0.14803307891696135,-9.344513766320533,0.12515915268773228,0.33161869782895204,0.21163232884423838,0.875
2025-11-23T06:30:30.884615,0.05307129591960793,-0.151702478543891,-9.343356842347886,0.11277155688910392,0.3378416825631839,0.2058853583773502,0.884615
2025-11-23T06:30:30.894231,0.045849423812414754,-0.15499272466967573,-9.342958085821694,0.10026469623946542,0.34387223406181244,0.20001460089371895,0.894231
2025-11-23T06:30:30.903846,0.03858247803186682,-0.15788480860417636,-9.343271929458508,0.08766115267275497,0.34971966224059764,0.19402138206216343,0.903846
2025-11-23T06:30:30.913462,0.03130856347943837,-0.16036130399005052,-9.344254194548448,0.07498257727624459,0.35538396492381674,0.18790407264243753,0.913462
2025-11-23T06:30:30.923077,0.024064332632852996,-0.16240666050169544,-9.345863539562538,0.06225024940822748,0.36085494805976476,0.1816585911069813,0.923077
2025-11-23T06:30:30.932692,0.016884120168506385,-0.16400752099616195,-9.348062756208224,0.04948566833286576,0.3661115416493047,0.1752788918835894,0.932692
2025-11-23T06:30:30.942308,0.00979906673553338,-0.1651530688008898,-9.350819815833342,0.036711080064290844,0.37112137793206157,0.16875744454664077,0.942308
2025-11-23T06:30:30.951923,0.002836292408070317,-0.16583539073299067,-9.3541085917839,0.023949857645590867,0.3758406972941765,0.16208572701177973,0.951923
2025-11-23T06:30:30.961538,-0.003981815034105879,-0.16604981879345002,-9.357909222891095,0.01122669245427967,0.38021462775510684,0.15525475465305816,0.961538
2025-11-23T06:30:30.971154,-0.010638140596559344,-0.16579519556570685,-9.3622081314879,-0.0014324112662075382,0.3841778665349082,0.1482556546439556,0.971154
2025-11-23T06:30:30.980769,-0.01712117354547288,-0.16507400259783533,-9.36699775272994,-0.014000335060210211,0.38765579149536744,0.14108028371825837,0.980769
2025-11-23T06:30:30.990385,-0.02342511074962603,-0.16389230063280621,-9.372276057702406,-0.026449236552124437,0.3905660396159031,0.1337218810699342,0.990385
2025-11-23T06:30:31,-0.029549724032188904,-0.1622594550740953,-9.378045956508194,-0.038751123110428665,0.3928205908739502,0.1261757400132958,1.0
2025-11-23T06:30:31.009615,-0.035499990496544565,-0.16018765586004424,-9.384314652922061,-0.05087857181146797,0.3943283735334075,0.11843986674301493,1.009615
2025-11-23T06:30:31.019231,-0.041285494817012054,-0.1576912783810391,-9.391092995173151,-0.06280551324968689,0.39499835565374863,0.11051557439504707,1.019231
2025-11-23T06:30:31.028846,-0.04691962796676836,-0.15478615946768015,-9.398394835740847,-0.07450796157703574,0.3947430151460757,0.10240794532595875,1.028846
2025-11-23T06:30:31.038462,-0.052418624281748635,-0.1514888731987833,-9.406236387068969,-0.08596457796939035,0.39348200565192326,0.09412609572982211,1.038462
2025-11-23T06:30:31.048077,-0.05780049404974658,-0.14781608427843584,-9.414635547439218,-0.09715700171542996,0.39114578130718336,0.08568319931810389,1.048077
2025-11-23T06:30:31.057692,-0.0630839186299445,-0.1437840339339106,-9.423611172386202,-0.10806994643470128,0.3876789269867506,0.07709626276192816,1.057692
2025-11-23T06:30:31.067308,-0.0682871754563722,-0.1394081811528662,-9.433182278095785,-0.11869111116626016,0.3830429621738655,0.06838567954696219,1.067308
2025-11-23T06:30:31.076923,-0.07342714804613597,-0.13470299279290887,-9.443367180397772,-0.12901098193061122,0.37721843252487364,0.05957460980311825,1.076923
2025-11-23T06:30:31.086538,-0.07851845379232869,-0.12968186127947015,-9.454182593935599,-0.13902259511670156,0.3702061599971572,0.05068823992610412,1.086538
2025-11-23T06:30:31.096154,-0.08357269970054047,-0.12435712983830385,-9.465642738031677,-0.1487213088687574,0.36202758564128273,0.041752974762570456,1.096154
2025-11-23T06:30:31.105769,-0.0885978638895776,-0.1187402137768851,-9.477758510585822,-0.1581046010237467,0.3527242085484476,0.032795617616125664,1.105769
2025-11-23T06:30:31.115385,-0.09359780071729178,-0.11284181308992337,-9.490536787322979,-0.16717189669914923,0.3423561919806544,0.02384260076707752,1.115385
2025-11-23T06:30:31.125,-0.09857187376469873,-0.10667221304022081,-9.50397987906907,-0.17592442581924891,0.33100025733067967,0.014919330114620702,1.125
2025-11-23T06:30:31.134615,-0.10351472792545614,-0.1002416640267332,-9.51808514998614,-0.18436511223578028,0.31874701137407097,0.006049692780318822,1.134615
2025-11-23T06:30:31.144231,-0.10841621797228206,-0.09356081866246009,-9.532844782929335,-0.19249849705732672,0.30569786258037,-0.00274425018522844,1.144231
2025-11-23T06:30:31.153846,-0.11326151518442366,-0.08664118527185519,-9.54824567692055,-0.20033069668111472,0.29196168746006157,-0.011442392462119666,1.153846
2025-11-23T06:30:31.163462,-0.11803141242403685,-0.07949554182202939,-9.564269465637768,-0.20786938041590278,0.27765140324530213,-0.020026560533656455,1.163462
2025-11-23T06:30:31.173077,-0.12270283716173497,-0.07213825252928625,-9.580892646368829,-0.2151237176551089,0.2628805850243422,-0.02848037807507665,1.173077
2025-11-23T06:30:31.182692,-0.1272495611769928,-0.06458544468441528,-9.598086806444218,-0.2221042112256179,0.2477602442909902,-0.036789052073550564,1.182692
2025-11-23T06:30:31.192308,-0.13164307258740118,-0.0568550286145078,-9.615818932963245,-0.22882233675148897,0.23239587093839567,-0.04493911357110705,1.192308
2025-11-23T06:30:31.201923,-0.1358535613011598,-0.048966565234086414,-9.634051794906126,-0.23528995430313274,0.21688482782847082,-0.05291814546926381,1.201923
2025-11-23T06:30:31.211538,-0.13985096641356787,-0.04094099530791729,-9.652744394170043,-0.24151851518770162,0.20131417393318726,-0.060714523108999725,1.211538
2025-11-23T06:30:31.221154,-0.1436060369285718,-0.032800248052861525,-9.671852486543356,-0.24751811896937256,0.18575898753586043,-0.06831717416533355,1.221154
2025-11-23T06:30:31.230769,-0.1470913578362866,-0.02456675519652215,-9.691329166002603,-0.2532964812975983,0.1702812655783938,-0.0757153410398034,1.230769
2025-11-23T06:30:31.240385,-0.1502822916452437,-0.016262913199783433,-9.711125488388168,-0.25885787045490566,0.15492946771552182,-0.082898318106317,1.240385
2025-11-23T06:30:31.25,-0.1531577860745658,-0.007910552058212419,-9.731191099015522,-0.2642020709074405,0.13973873271457773,-0.08985514589895935,1.25
2025-11-23T06:30:31.259615,-0.155701004172099,0.0004695304492493618,-9.751474835377415,-0.26932343381151674,0.12473172720888148,-0.0965742651936709,1.259615
2025-11-23T06:30:31.269231,-0.1578997406026861,0.00885793216556622,-9.771925297123088,-0.27421007481454335,0.10992002199836609,-0.10304315159933684,1.269231
2025-11-23T06:30:31.278846,-0.15974659571499117,0.017236905836719663,-9.792491394169312,-0.27884327728566544,0.09530585174991464,-0.10924796510858555,1.278846
2025-11-23T06:30:31.288462,-0.1612388920044114,0.025590540900020813,-9.813122882921915,-0.2831971486252492,0.08088410128961569,-0.11517326821257706,1.288462
2025-11-23T06:30:31.298077,-0.16237834007020246,0.033904902830674204,-9.833770879399829,-0.28723855469139303,0.06664436779212342,-0.1208018884728031,1.298077
2025-11-23T06:30:31.307692,-0.16317048850266494,0.04216815506412106,-9.854388315710247,-0.29092733078079414,0.05257296609038898,-0.12611500851218585,1.307692
2025-11-23T06:30:31.317308,-0.16362401359879925,0.05037066889355663,-9.874930300367708,-0.2942167516701155,0.038654763045341295,-0.13109254336301668,1.317308
2025-11-23T06:30:31.326923,-0.16374991366784378,0.05850510667701587,-9.895354351659835,-0.29705424561152477,0.024874737957566607,-0.1357138170869807,1.326923
2025-11-23T06:30:31.336538,-0.16356066972646288,0.06656645287992263,-9.915620487155781,-0.2993823529930148,0.01121918009729499,-0.13995849643406935,1.336538
2025-11-23T06:30:31.346154,-0.16306942412018907,0.07455197160637775,-9.93569116897672,-0.3011399450535649,-0.002323529367332673,-0.14380769587510933,1.346154
2025-11-23T06:30:31.355769,-0.1622892178652262,0.08246108226543192,-9.955531121838641,-0.30226371602580315,-0.015762547307388297,-0.14724514351511514,1.355769
2025-11-23T06:30:31.365385,-0.16123232330274295,0.09029515462802443,-9.975107051873872,-0.30268993889685597,-0.02910455458721573,-0.15025829207803634,1.365385
2025-11-23T06:30:31.375,-0.15990971060510623,0.09805722573615988,-9.994387294881662,-0.3023564428550959,-0.04235401567964499,-0.1528392703135623,1.375
2025-11-23T06:30:31.384615,-0.1583306846997832,0.10575163883044181,-10.013341418193798,-0.3012047486364764,-0.0555136263701241,-0.15498559182902188,1.384615
2025-11-23T06:30:31.394231,-0.15650271320562664,0.11338360643081291,-10.031939798079005,-0.29918229170494537,-0.06858486289023948,-0.15670056286528491,1.394231
2025-11-23T06:30:31.403846,-0.15443143661702347,0.12095870911727384,-10.050153196333556,-0.29624465631292374,-0.08156853405584374,-0.15799335241600496,1.403846
2025-11-23T06:30:31.413462,-0.15212082034879756,0.12848235313634493,-10.067952362437593,-0.29235772283690337,-0.09446522887313501,-0.15887870702475415,1.413462
2025-11-23T06:30:31.423077,-0.14957338693861447,0.1359592148962174,-10.085307688017892,-0.28749961016705494,-0.10727556536527007,-0.15937631297848814,1.423077
2025-11-23T06:30:31.432692,-0.1467904635264044,0.14339269623279732,-10.102188936413615,-0.28166229646078467,-0.12000018129534856,-0.1595098347672322,1.432692
2025-11-23T06:30:31.442308,-0.14377239645602097,0.15078440680097507,-10.11856506163624,-0.2748528231876117,-0.13263944750424125,-0.15930568762217892,1.442308
2025-11-23T06:30:31.451923,-0.14051871370009358,0.1581336866122918,-10.134404119144941,-0.2670940079041869,-0.14519291817322838,-0.15879162444210806,1.451923
2025-11-23T06:30:31.461538,-0.13702824102368968,0.16543718534480623,-10.149673257770548,-0.25842459973472975,-0.157658560289974,-0.15799522888097392,1.461538
2025-11-23T06:30:31.471154,-0.13329918949033548,0.17268852082226208,-10.16433877343785,-0.24889881729154942,-0.17003183125454976,-0.1569424099896717,1.471154
2025-11-23T06:30:31.480769,-0.12932923434917815,0.1798780390136751,-10.178366210418448,-0.23858522557249598,-0.18230469421855294,-0.15565599251830387,1.480769
2025-11-23T06:30:31.490385,-0.12511560563369117,0.18699269018884035,-10.191720517215874,-0.2275649409999658,-0.1944646644677573,-0.15415449036436632,1.490385
2025-11-23T06:30:31.5,-0.12065520744485247,0.19401602753699143,-10.20436628790213,-0.21592919892847048,-0.2064939667116457,-0.15245113837175792,1.5
2025-11-23T06:30:31.509615,-0.11594477340066338,0.2009283321205163,-10.216268125137793,-0.20377636827340626,-0.2183688659558539,-0.1505532399208964,1.509615
2025-11-23T06:30:31.519231,-0.11098105690980535,0.20770686811468958,-10.227391142760409,-0.1912085441742062,-0.23005922362282116,-0.14846186495327446,1.519231
2025-11-23T06:30:31.528846,-0.10576105432482454,0.21432626692719225,-10.237701599567421,-0.17832788651175652,-0.2415283227196711,-0.14617190975243077,1.528846
2025-11-23T06:30:31.538462,-0.10028226245364522,0.2207590277175674,-10.24716763878475,-0.16523290033962978,-0.25273299323506065,-0.14367251354336236,1.538462
2025-11-23T06:30:31.548077,-0.09454296988316575,0.2269761126234823,-10.255760098995413,-0.1520148720378103,-0.26362404749003837,-0.14094781764151063,1.548077
2025-11-23T06:30:31.557692,-0.08854257340271546,0.23294761230149486,-10.263453352208936,-0.13875467187092289,-0.2741470073535542,-0.13797803847669937,1.557692
2025-11-23T06:30:31.567308,-0.0822819045489497,0.2386434574878582,-10.270226113440586,-0.12552010033059835,-0.28424308039184115,-0.13474079680456189,1.567308
2025-11-23T06:30:31.576923,-0.0757635529957282,0.24403414861825148,-10.27606216322306,-0.11236389980802242,-0.2938503297753136,-0.13121260891559355,1.576923
2025-11-23T06:30:31.586538,-0.0689921814338008,0.24909146665179885,-10.280950933864768,-0.09932249826468198,-0.30290498423561385,-0.12737041916699124,1.586538
2025-11-23T06:30:31.596154,-0.061974834236195125,0.25378911855765707,-10.284887925344593,-0.08641551472540139,-0.31134284476065,-0.12319304751672461,1.596154
2025-11-23T06:30:31.605769,-0.05472124350360476,0.25810326684731183,-10.287874929109234,-0.07364603138857669,-0.31910075769593166,-0.11866243856274339,1.605769
2025-11-23T06:30:31.615385,-0.04724412857913487,0.262012900957939,-10.289920043755965,-0.061001605399338216,-0.3261181274900466,-0.11376462231238177,1.615385
2025-11-23T06:30:31.625,-0.03955947226725269,0.26550003215149437,-10.291037464317654,-0.04845594961917161,-0.33233842722799684,-0.10849032803646963,1.625
2025-11-23T06:30:31.634615,-0.03168674655679247,0.26854972427591917,-10.291247020640514,-0.03597117299924319,-0.3377106420477656,-0.10283523148028201,1.634615
2025-11-23T06:30:31.644231,-0.023649057840711033,0.2711499956797588,-10.290573443975251,-0.02350045825877628,-0.3421905685987114,-0.09679986083063301,1.644231
2025-11-23T06:30:31.653846,-0.01547318502441274,0.27329163634755144,-10.289045366214776,-0.01099106820905021,-0.3457418956187074,-0.09038923250483083,1.653846
2025-11-23T06:30:31.663462,-0.007189490012794495,0.27496798044866033,-10.286694094788103,0.0016124095460315353,-0.3483370022358749,-0.08361232499613583,1.663462
2025-11-23T06:30:31.673077,0.001168311129807761,0.27617466090790016,-10.283552234525551,0.014364669516759899,-0.34995743941018037,-0.07648151537599132,1.673077
2025-11-23T06:30:31.682692,0.009563515858495896,0.2769093572167587,-10.279652233250404,0.027316257798260035,-0.35059410690707105,-0.06901208943300796,1.682692
2025-11-23T06:30:31.692308,0.017956929896156878,0.27717154171095315,-10.275024922383095,0.040510243955888633,-0.3502471770080909,-0.061221897381279186,1.692308
2025-11-23T06:30:31.701923,0.026307472770872434,0.2769622326877443,-10.269698128107999,0.05397915991753451,-0.3489258213677206,-0.05313117821076852,1.701923
2025-11-23T06:30:31.711538,0.03457287957488659,0.2762837614187448,-10.263695445323359,0.06774238433839898,-0.3466477778325851,-0.04476253035748149,1.711538
2025-11-23T06:30:31.721154,0.04271048620962686,0.2751395481943566,-10.257035275725675,0.0818041454752178,-0.3434387742729393,-0.036140971472597434,1.721154
2025-11-23T06:30:31.730769,0.05067808331990711,0.27353387337881147,-10.24973021578044,0.09615228531296557,-0.3393318146205662,-0.027294010457982153,1.730769
2025-11-23T06:30:31.740385,0.058434818835970084,0.27147163848134187,-10.241786847377227,0.11075787767225348,-0.3343663267387816,-0.018251652334353496,1.740385
2025-11-23T06:30:31.75,0.06594212172796123,0.26895813561994575,-10.2332059527404,0.12557573120800386,-0.32858717680843785,-0.009046268004975887,1.75
2025-11-23T06:30:31.759615,0.07316461041838576,0.26599886255095706,-10.223983150620215,0.1405457370795984,-0.3220435680482452,0.00028771730140496213,1.759615
2025-11-23T06:30:31.769231,0.08007094139145504,0.2625994212492957,-10.214109924396013,0.1555949487532872,-0.3147878465085263,0.009714333905553832,1.769231
2025-11-23T06:30:31.778846,0.08663455226505509,0.2587655234944516,-10.203574981811238,0.1706402315857816,-0.3068742280531395,0.01919676119410894,1.778846
2025-11-23T06:30:31.788462,0.09283426005361721,0.25450310832036843,-10.192365858139961,0.1855913113861794,-0.29835745623903465,0.028698164260482877,1.788462
2025-11-23T06:30:31.798077,0.09865468565248098,0.24981856108805828,-10.180470656502045,0.20035406873302578,-0.2892914159254483,0.03818261805077833,1.798077
2025-11-23T06:30:31.807692,0.10408648627798275,0.24471901253633332,-10.167879811748037,0.21483393051879257,-0.2797277542785435,0.04761605627375839,1.807692
2025-11-23T06:30:31.817308,0.10912638806464879,0.2392126854024807,-10.154587764375485,0.22893918391975449,-0.2697145814980811,0.056967179923021395,1.817308
2025-11-23T06:30:31.826923,0.11377702223067816,0.23330924453307134,-10.14059443230892,0.2425840045693765,-0.25929533271415584,0.066208266198224,1.826923
2025-11-23T06:30:31.836538,0.11804658082377725,0.22702009701196907,-10.125906368704694,0.25569098943198815,-0.24850787921297854,0.07531583675567803,1.836538
2025-11-23T06:30:31.846154,0.12194832011013508,0.2203585881917765,-10.110537501348487,0.26819303148913665,-0.237383982606934,0.0842711678109421,1.846154
2025-11-23T06:30:31.855769,0.12549994715348847,0.21334005096328737,-10.094509376688002,0.2800344506015816,-0.22594916706749965,0.09306063961264222,1.855769
2025-11-23T06:30:31.865385,0.1287229253246261,0.20598168745102585,-10.077850882239087,0.29117137392176284,-0.21422302188201967,0.10167592180087083,1.865385
2025-11-23T06:30:31.875,0.13164172752367342,0.198302291325865,-10.060597483434595,0.3015714235844914,-0.20221986075396237,0.11011398051624216,1.875
2025-11-23T06:30:31.884615,0.13428305481685826,0.1903218488976968,-10.0427900684894,0.3112128211992384,-0.1899496053379651,0.1183768854484254,1.884615
2025-11-23T06:30:31.894231,0.13667502905716203,0.1820610773956353,-10.024473535693607,0.32008306433367506,-0.1774187525307805,0.12647139708102642,1.894231
2025-11-23T06:30:31.903846,0.13884636639088502,0.17354096186716123,-10.005695274331371,0.32817736333599834,-0.16463131099864703,0.13440832541353825,1.903846
2025-11-23T06:30:31.913462,0.14082554392949945,0.16478234076018605,-9.98650368018898,0.33549703372246475,-0.15158963030251082,0.14220166895237027,1.913462
2025-11-23T06:30:31.923077,0.14263997949065238,0.15580557419111776,-9.966946816782963,0.3420480193002956,-0.13829508800611343,0.1498675635646064,1.923077
2025-11-23T06:30:31.932692,0.1443152503730109,0.14663031708465846,-9.947071299986135,0.3478396858325977,-0.1247486374659017,0.1574230883303393,1.932692
2025-11-23T06:30:31.942308,0.14587437892814617,0.1372754143150201,-9.926921456799295,0.3528839774262003,-0.1109512392029051,0.16488498270297156,1.942308
2025-11-23T06:30:31.951923,0.1473372075803703,0.12775893117553025,-9.906538786238649,0.3571949625663117,-0.09690420252290019,0.17226832596363933,1.951923
2025-11-23T06:30:31.961538,0.14871987451400118,0.11809832168707847,-9.885961727694053,0.3607887222635695,-0.08260946543652026,0.17958522464848614,1.961538
2025-11-23T06:30:31.971154,0.15003438905379174,0.10831071707854575,-9.865225723086677,0.3636834736712466,-0.06806984806831566,0.1868435536414545,1.971154
2025-11-23T06:30:31.980769,0.15128829921759512,0.0984132944338108,-9.844363546605253,0.3658997956633516,-0.05328931961371008,0.1940457993539725,1.980769
2025-11-23T06:30:31.990385,0.15248444468099873,0.0884236727347224,-9.823405862001403,0.3674608235071114,-0.038273310720039505,0.20118805258694092,1.990385
2025-11-23T06:30:32,0.1536207931248307,0.07836028763892011,-9.80238194331782,0.368392295408071,-0.023029085247990265,0.2082591951813824,2.0
2025-11-23T06:30:32.009615,0.1546903638743025,0.06824271445655765,-9.781320468897889,0.3687223622864051,-0.007566169847098354,0.21524032403124452,2.009615
2025-11-23T06:30:32.019231,0.15568125060326474,0.05809192942623678,-9.760250292710431,0.36848111772424186,0.008103169621190709,0.2221044587003591,2.019231
2025-11-23T06:30:32.028846,0.1565767643579093,0.04793051146091722,-9.739201120994803,0.367699863181137,0.023963425729876843,0.22881657917312925,2.028846
2025-11-23T06:30:32.038462,0.1573557235501377,0.03778278728817961,-9.71820406223457,0.36641017940236426,0.03999535542151748,0.23533403413890558,2.038462
2025-11-23T06:30:32.048077,0.15799291210015914,0.02767491458749611,-9.697292055109983,0.36464290952689177,0.056175536470416475,0.24160734561993008,2.048077
2025-11-23T06:30:32.057692,0.15845971149088386,0.01763488228392938,-9.676500203402597,0.3624271602608709,0.07247601288963985,0.24758140848349056,2.057692
2025-11-23T06:30:32.067308,0.15872489611874424,0.007692390665540343,-9.655866056973974,0.35978940145696364,0.08886406188311317,0.2531970423420397,2.067308
2025-11-23T06:30:32.076923,0.15875557138228202,-0.0021214308955869437,-9.635429872518673,0.35675271219227944,0.10530211993993235,0.2583928091817465,2.076923
2025-11-23T06:30:32.086538,0.15851822958199338,-0.011774495054015044,-9.615234868805523,0.3533361936283237,0.1217479143735181,0.26310697922110055,2.086538
2025-11-23T06:30:32.096154,0.15797989306296342,-0.02123441108783294,-9.59532746583979,0.34955454138173814,0.13815483825373676,0.26727951738854827,2.096154
2025-11-23T06:30:32.105769,0.15710930132445355,-0.030469285046711928,-9.575757472000317,0.34541774419929905,0.15447257395123282,0.27085396803732376,2.105769
2025-11-23T06:30:32.115385,0.1558780820462026,-0.03944860821650292,-9.55657816210043,0.34093086581087595,0.17064793022889377,0.27377912874962373,2.115385
2025-11-23T06:30:32.125,0.154261836092921,-0.04814417417288669,-9.537846181349767,0.3360938827149725,0.18662583330013316,0.27601042688336586,2.125
2025-11-23T06:30:32.134615,0.15224107061909722,-0.0565309694614331,-9.519621222632788,0.33090158220805943,0.2023504096849036,0.2775109509943002,2.134615
2025-11-23T06:30:32.144231,0.14980192962907596,-0.06458798162188291,-9.501965451197437,0.3253435510272802,0.21776610581059128,0.2782521394516544,2.144231
2025-11-23T06:30:32.153846,0.1469366917776272,-0.07229886012812563,-9.484942679725382,0.31940429778307594,0.2328187940581925,0.27821417409941407,2.153846
2025-11-23T06:30:32.163462,0.14364402600371912,-0.07965236445638153,-9.46861732496094,0.3130635623830671,0.2474568163299361,0.27738615186204046,2.163462
2025-11-23T06:30:32.173077,0.13992901084864273,-0.08664254907028285,-9.453053205303746,0.3062968747113344,0.2616319199072836,0.2757661054174979,2.173077
2025-11-23T06:30:32.182692,0.13580292823447437,-0.09326866381640543,-9.438312256668095,0.29907641366931353,0.27530005091797394,0.2733609210095094,2.182692
2025-11-23T06:30:32.192308,0.13128284069854299,-0.09953478041889484,-9.424453237174504,0.2913721749167503,0.28842198487993426,0.27018617531269123,2.192308
2025-11-23T06:30:32.201923,0.12639096352957419,-0.1054491831636331,-9.41153046403406,0.28315339934590633,0.30096378049388195,0.2662659016492021,2.201923
2025-11-23T06:30:32.211538,0.12115385516982555,-0.11102357749213591,-9.399592602436233,0.2743901707213059,0.31289703614213704,0.26163229423737266,2.211538
2025-11-23T06:30:32.221154,0.11560146302672586,-0.11627217213428756,-9.388681525705392,0.2650550694575248,0.3241989187165701,0.256325346273615,2.221154
2025-11-23T06:30:32.230769,0.10976606810670718,-0.12121068523842149,-9.378831285472996,0.2551247680845649,0.33485193999623336,0.2503923887417562,2.230769
2025-11-23T06:30:32.240385,0.10368117213374595,-0.12585532134183497,-9.37006725134536,0.2445814703237443,0.34484348562349926,0.2438874741465231,2.240385
2025-11-23T06:30:32.25,0.09738037269346288,-0.13022176568434377,-9.362405483621897,0.23341412417732627,0.3541651450293228,0.23687055309904947,2.25
2025-11-23T06:30:32.259615,0.09089627739287189,-0.13432424128616846,-9.35585238511756,0.22161936840521684,0.36281192316940536,0.22940641737485903,2.259615
2025-11-23T06:30:32.269231,0.08425951258477855,-0.13817466991257182,-9.350404649361051,0.20920219103458745,0.3707814184260818,0.2215634142014481,2.269231
2025-11-23T06:30:32.278846,0.07749788191403109,-0.14178197173822174,-9.346049499131245,0.19617628642093038,0.3780730279882576,0.2134119643340374,2.278846
2025-11-23T06:30:32.288462,0.07063572322179651,-0.145151531512365,-9.3427652005341,0.18256410177878177,0.3846872108653377,0.20502293831156382,2.288462
2025-11-23T06:30:32.298077,0.06369349825240964,-0.1482848512738152,-9.340521838807035,0.16839657597349575,0.3906248193987604,0.19646595547119272,2.298077
2025-11-23T06:30:32.307692,0.056687629374742116,-0.15117940266137075,-9.339282341244495,0.1537125943096893,0.3958865109598174,0.18780766495591125,2.307692
2025-11-23T06:30:32.317308,0.04963057636546648,-0.1538286874752764,-9.33900372160394,0.13855820294489885,0.40047226231552285,0.17911005511563569,2.317308
2025-11-23T06:30:32.326923,0.042531130612404086,-0.1562225084701229,-9.339638500056742,0.12298563733194352,0.40438101032661267,0.17042883369643833,2.326923
2025-11-23T06:30:32.336538,0.0353948969408177,-0.15834743396443576,-9.341136236393272,0.10705222285508492,0.4076104245187774,0.16181193363936955,2.336538
2025-11-23T06:30:32.346154,0.028224932573759232,-0.160187411368089,-9.343445116745682,0.09081920557346693,0.41015679156935664,0.1532982161909956,2.346154
2025-11-23T06:30:32.355769,0.02102251347382057,-0.16172446385345052,-9.34651355368792,0.07435056324528752,0.4120149831418517,0.14491644653064836,2.355769
2025-11-23T06:30:32.365385,0.013787996289918914,-0.16293940675422938,-9.35029177648709,0.05771182775747213,0.41317849570691656,0.1366846069957094,2.365385
2025-11-23T06:30:32.375,0.006521737543514488,-0.16381254205700432,-9.354733385214756,0.040968923881024875,0.4136395736330899,0.12860960359103363,2.375
2025-11-23T06:30:32.384615,-0.0007749793781095297,-0.16432431400902467,-9.359796821618648,0.02418700954155107,0.41338942949375646,0.1206874175953908,2.384615
2025-11-23T06:30:32.394231,-0.008099071721357563,-0.16445592467201728,-9.365446688109621,0.007429305060240267,0.4124185586616931,0.11290374450542756,2.394231
2025-11-23T06:30:32.403846,-0.015444909967753587,-0.16418991176096875,-9.371654836221065,-0.009244075256165978,0.41071712990331694,0.10523513518733849,2.403846
2025-11-23T06:30:32.413462,-0.02280376182729092,-0.16351068204098915,-9.378401147465134,-0.02577724428273045,0.40827543255267196,0.09765060728532368,2.413462
2025-11-23T06:30:32.423077,-0.030163473279072688,-0.16240497810691237,-9.385673941161016,-0.04211955151454235,0.40508436721046004,0.09011363820833547,2.423077
2025-11-23T06:30:32.432692,-0.037508400931422804,-0.16086224838903251,-9.393469966830263,-0.05822640592949307,0.40113596964288273,0.08258440177317315,2.432692
2025-11-23T06:30:32.442308,-0.04481957893100932,-0.15887489810245398,-9.401793970140996,-0.07405982676216463,0.39642395534522945,0.07502208651396954,2.442308
2025-11-23T06:30:32.451923,-0.05207508192287456,-0.15643841592905325,-9.410657854153303,-0.089588631509441,0.39094426941124055,0.0673871414348375,2.451923
2025-11-23T06:30:32.461538,-0.05925053763057617,-0.15355138499549814,-9.420079485925603,-0.10478818738005896,0.3846956234413418,0.05964332419874892,2.461538
2025-11-23T06:30:32.471154,-0.0663197471724734,-0.15021539208573473,-9.430081217486352,-0.11963969804602347,0.3776799971479442,0.05175945933603081,2.471154
2025-11-23T06:30:32.480769,-0.0732553793189533,-0.14643484840536788,-9.44068819728535,-0.13412905775972853,0.36990308035606134,0.043710841801404283,2.480769
2025-11-23T06:30:32.490385,-0.08002970750096236,-0.14221673216854774,-9.451926549013463,-0.14824535412629056,0.36137463488956134,0.03548024908504651,2.490385
2025-11-23T06:30:32.5,-0.08661535712644149,-0.13757026203160203,-9.463821499912722,-0.16197912632636108,0.3521087631465435,0.027058556483650704,2.5
2025-11-23T06:30:32.509615,-0.09298603345059,-0.13250651559456136,-9.476395552737026,-0.17532049851795622,0.34212407861959854,0.01844497775628039,2.509615
2025-11-23T06:30:32.519231,-0.09911720720804836,-0.12703801760969208,-9.48966680278287,-0.18825732606874895,0.331443787207054,0.009646967948289847,2.519231
2025-11-23T06:30:32.528846,-0.10498673846120475,-0.12117833078241526,-9.503647491765545,-0.20077351601565463,0.320095705254763,0.0006798257623239809,2.528846
2025-11-23T06:30:32.538462,-0.11057541422626349,-0.11494168455034341,-9.518342864716764,-0.21284769349192512,0.3081122434163696,-0.008433973174338397,2.538462
2025-11-23T06:30:32.548077,-0.11586736741976324,-0.10834267715724799,-9.533750367556673,-0.22445236069447028,0.2955303613960031,-0.017665683178580097,2.548077
2025-11-23T06:30:32.557692,-0.12085034223922249,-0.10139608515357508,-9.549859205354606,-0.23555363193250453,0.2823914609517202,-0.02698139875664019,2.557692
2025-11-23T06:30:32.567308,-0.12551578005544348,-0.09411680810405838,-9.566650275013911,-0.24611155166546764,0.2687411622416189,-0.03634331659195275,2.567308
2025-11-23T06:30:32.576923,-0.12985872029255904,-0.08651996119458097,-9.584096475154528,-0.25608094438051154,0.25462891800799425,-0.045711085736973925,2.576923
2025-11-23T06:30:32.586538,-0.1338775352714164,-0.07862110795889768,-9.60216336473769,-0.2654127188592448,0.2401074517609768,-0.0550431795126333,2.586538
2025-11-23T06:30:32.596154,-0.13757353563637578,-0.07043660772657398,-9.620810094882687,-0.27405554026909296,0.22523203623040686,-0.06429822412979516,2.596154
2025-11-23T06:30:32.605769,-0.14095048851423567,-0.06198404045413984,-9.639990497554294,-0.28195776811731366,0.21005964173905964,-0.07343621730036617,2.605769
2025-11-23T06:30:32.615385,-0.14401408677044414,-0.05328265959428625,-9.65965420012884,-0.28906953328931273,0.19464798369366199,-0.0824195668531802,2.615385
2025-11-23T06:30:32.625,-0.14677139856336516,-0.04435380903279314,-9.67974765017431,-0.2953448140299914,0.17905449294363898,-0.09121388586529798,2.625
2025-11-23T06:30:32.634615,-0.14923031437295012,-0.035221231712061395,-9.70021497263855,-0.30074338315919735,0.16333522554850086,-0.09978850188060372,2.634615
2025-11-23T06:30:32.644231,-0.15139899859291148,-0.025911206563581122,-9.720998633567826,-0.305232524136974,0.14754372143838634,-0.10811666449770137,2.644231
2025-11-23T06:30:32.653846,-0.15328534976357866,-0.01645247696777554,-9.742039941225817,-0.3087884319876683,0.13172982284487705,-0.11617546058555155,2.653846
2025-11-23T06:30:32.663462,-0.1548964774584846,-0.0068759659191622744,-9.763279458926695,-0.3113972278743644,0.11593848400242592,-0.12394547348293813,2.663462
2025-11-23T06:30:32.673077,-0.15623821047925174,0.0027857026741648825,-9.78465741244295,-0.31305553973933664,0.10020864247070131,-0.13141025263587822,2.673077
2025-11-23T06:30:32.682692,-0.15731465574997067,0.012498842846592575,-9.806114146754092,-0.31377064019073636,0.0845722579874556,-0.1385556811288473,2.682692
2025-11-23T06:30:32.692308,-0.15812782676340062,0.02222946027615788,-9.827590647391252,-0.3135601724173231,0.0690536299903581,-0.145369327578813,2.692308
2025-11-23T06:30:32.701923,-0.15867735677446776,0.03194406173070475,-9.849029116023386,-0.31245152219320566,0.053669074391375124,-0.1518398457477752,2.701923
2025-11-23T06:30:32.711538,-0.15896031291955082,0.041610451172176745,-9.8703735787559,-0.3104809073816546,0.038426994001479746,-0.15795645190444219,2.711538
2025-11-23T06:30:32.721154,-0.1589711351346404,0.05119844819074506,-9.891570494638998,-0.30769225613757895,0.02332833863326315,-0.16370848194575863,2.721154
2025-11-23T06:30:32.730769,-0.15870172887161232,0.06068048524231672,-9.912569316122527,-0.3041359315119068,0.008367428598492136,-0.16908501902222353,2.730769
2025-11-23T06:30:32.740385,-0.15814173349323762,0.0700320651909726,-9.933322940334284,-0.29986734175566715,-0.006466897016080071,-0.17407459003706433,2.740385
2025-11-23T06:30:32.75,-0.1572789693434189,0.07923207782383884,-9.953787988761096,-0.2949454641363948,-0.021189855768654252,-0.1786649461396848,2.75
2025-11-23T06:30:32.759615,-0.15610004419187243,0.08826298071412342,-9.97392486769611,-0.289431309106536,-0.03581907655314625,-0.18284295195719008,2.759615
2025-11-23T06:30:32.769231,-0.15459108193338925,0.09711084989523179,-9.993697592169585,-0.28338635722437805,-0.050372791533824804,-0.18659460128375882,2.769231
2025-11-23T06:30:32.778846,-0.15273852483987568,0.10576530439000778,-10.0130733943009,-0.2768710073452531,-0.06486792727376418,-0.18990515732423494,2.778846
2025-11-23T06:30:32.788462,-0.15052995347211373,0.11421930929036868,-10.032022171385691,-0.26994307474746376,-0.0793181712398031,-0.19275939556828686,2.788462
2025-11-23T06:30:32.798077,-0.14795486760723026,0.12246886400991233,-10.050515849396264,-0.26265636981518553,-0.09373211234835492,-0.19514191847279622,2.798077
2025-11-23T06:30:32.807692,-0.14500538164183996,0.13051258233791996,-10.068527738008553,-0.25505937913044174,-0.10811157334167537,-0.19703751579687018,2.807692
2025-11-23T06:30:32.817308,-0.1416768050149453,0.1383511701883635,-10.086031935976388,-0.24719407359307524,-0.12245025860621633,-0.19843155241400934,2.817308
2025-11-23T06:30:32.826923,-0.13796809036452629,0.1459868114481154,-10.103002821337572,-0.23909488762130307,-0.1367328293012135,-0.19931036485527565,2.826923
2025-11-23T06:30:32.836538,-0.1338821348982072,0.15342248424334537,-10.119414639244159,-0.2307879378934188,-0.1509344882483109,-0.1996616418426629,2.836538
2025-11-23T06:30:32.846154,-0.12942592351241422,0.1606612434610509,-10.135241182496415,-0.22229055372764137,-0.16502111528526422,-0.1994747670973051,2.846154
2025-11-23T06:30:32.855769,-0.124610514805163,0.1677055133934252,-10.15045554492615,-0.213611158328124,-0.17894994732019354,-0.19874111810897094,2.855769
2025-11-23T06:30:32.865385,-0.1194508877823185,0.17455643409387486,-10.165029919764617,-0.2047494896658357,-0.19267074771553738,-0.19745432766831728,2.865385
2025-11-23T06:30:32.875,-0.11396567514702903,0.18121329694068197,-10.178935419677662,-0.19569711978278148,-0.20612735633755394,-0.19561051337894395,2.875
2025-11-23T06:30:32.884615,-0.10817680555482342,0.18767309223276124,-10.192141910628406,-0.1864382348534887,-0.21925946630612364,-0.1932084701532452,2.884615
2025-11-23T06:30:32.894231,-0.10210906996200132,0.19393017963691025,-10.20461786982898,-0.1769506535672938,-0.23200445866043484,-0.1902498165743095,2.894231
2025-11-23T06:30:32.903846,-0.09578962384003228,0.19997608530976854,-10.216330292447472,-0.16720706704129928,-0.24429915271636848,-0.1867390932508542,2.903846
2025-11-23T06:30:32.913462,-0.08924743888365673,0.2057994293479645,-10.227244682434856,-0.15717648034393744,-0.2560813827520095,-0.18268382250215212,2.913462
2025-11-23T06:30:32.923077,-0.0825127215431408,0.21138599140156936,-10.237325170538645,-0.14682582889989174,-0.2672913643622473,-0.17809454446899423,2.923077
2025-11-23T06:30:32.932692,-0.07561631749368343,0.21671892341170218,-10.246534802531741,-0.13612172697077923,-0.27787285080223056,-0.17298484296796574,2.932692
2025-11-23T06:30:32.942308,-0.06858912055589356,0.2217791110721151,-10.254836027713969,-0.12503227755669888,-0.2877740960530974,-0.1673713687343678,2.942308
2025-11-23T06:30:32.951923,-0.06146150392978709,0.2265456734395425,-10.262191395076497,-0.1135288473082816,-0.2969486341204746,-0.1612738607766533,2.951923
2025-11-23T06:30:32.961538,-0.0542627926278436,0.2309965802479507,-10.268564440779928,-0.10158770441846099,-0.30535586005605597,-0.15471515845093164,2.961538
2025-11-23T06:30:32.971154,-0.04702079828711529,0.23510935925615278,-10.273920729887877,-0.08919143415742493,-0.3129613810959587,-0.14772118744338056,2.971154
2025-11-23T06:30:32.980769,-0.03976143861295417,0.23886185721623876,-10.278228996444527,-0.07633007345787651,-0.3197371185936921,-0.14032089384911725,2.980769
2025-11-23T06:30:32.990385,-0.032508460487742995,0.24223300821687407,-10.28146230904443,-0.0630019367327003,-0.3256611817847487,-0.13254609732068168,2.990385
2025-11-23T06:30:33,-0.025283277994882378,0.24520355708582567,-10.283599176482719,-0.0492141432881247,-0.330717578639688,-0.12443124336823093,3.0
2025-11-23T06:30:33.009615,-0.018104927016726842,0.24775668619291197,-10.284624502486743,-0.03498289209765193,-0.3348958505634479,-0.1160130568128016,3.009615
2025-11-23T06:30:33.019231,-0.010990127844221194,0.24987850089333286,-10.2845303057721,-0.020333536656433084,-0.3381907087268451,-0.10733012516953669,3.019231
2025-11-23T06:30:33.028846,-0.0039534340431683695,0.2515583406962217,-10.283316150814295,-0.0053004842463427035,-0.34060172481504863,-0.0984224597186353,3.028846
2025-11-23T06:30:33.038462,0.002992570485977826,0.25278890010115246,-10.28098928469207,0.0100730905276405,-0.3421331053197389,-0.08933108080580388,3.038462
2025-11-23T06:30:33.048077,0.009837076133823869,0.2535661656938956,-10.277564525305502,0.025735733333434246,-0.3427935587569122,-0.08009764952665771,3.048077
2025-11-23T06:30:33.057692,0.016570901004683194,0.2538892010676167,-10.273063969402223,0.04162838777224866,-0.34259624530050137,-0.07076413364495732,3.057692
2025-11-23T06:30:33.067308,0.023186421157647838,0.25375982786474,-10.26751657588096,0.05768522360869684,-0.3415587835027037,-0.06137247189932335,3.067308
2025-11-23T06:30:33.076923,0.029677578799192063,0.2531822506398582,-10.260957645528917,0.07383457403340984,-0.33970328676661926,-0.051964200840887806,3.076923
2025-11-23T06:30:33.086538,0.03603994555932595,0.252162659024885,-10.253428187513633,0.08999996761447429,-0.33705640772385315,-0.04258003167311205,3.086538
2025-11-23T06:30:33.096154,0.04227080269307352,0.2507088259005459,-10.244974152778642,0.10610127931419865,-0.33364936874779355,-0.033259395544787095,3.096154
2025-11-23T06:30:33.105769,0.04836919496432141,0.24882971389604433,-10.235645525982013,0.12205605230993898,-0.3295179464630906,-0.024039988645693112,3.105769
2025-11-23T06:30:33.115385,0.05433592130019745,0.24653510365918302,-10.225495288946902,0.1377810384273558,-0.3247023606646841,-0.014957328710615633,3.115385
2025-11-23T06:30:33.125,0.06017344331122572,0.24383526067059838,-10.214578287169612,0.1531939607682806,-0.3192469996471655,-0.006044295790561082,3.125
2025-11-23T06:30:33.134615,0.06588571622385342,0.2407406600743675,-10.202950043229414,0.16821543307318443,-0.31319990519243707,0.0026693967095802002,3.134615
2025-11-23T06:30:33.144231,0.07147796250316453,0.23726179094700364,-10.190665569910037,0.1827709131176475,-0.3066119535930276,0.011157847934358818,3.144231
2025-11-23T06:30:33.153846,0.07695640642614289,0.23340906022085417,-10.177778242046495,0.19679254908555455,-0.29953570577587935,0.019399741118872615,3.153846
2025-11-23T06:30:33.163462,0.08232797178364187,0.22919280576776122,-10.164338787223663,0.21022079369934685,-0.29202394858854935,0.027379199387164627,3.163462
2025-11-23T06:30:33.173077,0.08759992902767409,0.224623404474068,-10.15039445158766,0.22300568808112872,-0.28412799815607265,0.03508664528483063,3.173077
2025-11-23T06:30:33.182692,0.09277947405042224,0.21971143199563425,-10.135988388316301,0.23510774130672957,-0.275895877337295,0.0425195667852386,3.182692
2025-11-23T06:30:33.192308,0.0978732300785846,0.21446781240680998,-10.121159298253499,0.2464983535681226,-0.2673705046434052,0.0496830946486168,3.192308
2025-11-23T06:30:33.201923,0.10288668152927544,0.20890390059457345,-10.105941322498298,0.25715975727270785,-0.2585880329907641,0.056590305176223044,3.201923
2025-11-23T06:30:33.211538,0.10782356710428705,0.20303146661907603,-10.090364153333704,0.2670844845770145,-0.24957645363929093,0.06326217112588428,3.211538
2025-11-23T06:30:33.221154,0.11268527568416786,0.19686258482493613,-10.074453306262118,0.2762744104793163,-0.2403545439005446,0.06972709634968706,3.221154
2025-11-23T06:30:33.230769,0.11747030262861774,0.19040945353322505,-10.058230490750008,0.28473945962549474,-0.2309311979577774,0.07601999731054525,3.230769
2025-11-23T06:30:33.240385,0.12217383111729702,0.18368417454951053,-10.041714030722083,0.29249608877025257,-0.22130514772530374,0.08218093974503318,3.240385
2025-11-23T06:30:33.25,0.12678749428830344,0.17669851046856921,-10.024919310980781,0.29956565803119717,-0.21146506389738176,0.08825338986649643,3.25
2025-11-23T06:30:33.259615,0.13129934803394733,0.16946362718566266,-10.007859251112972,0.305972791203789,-0.20139003069758638,0.09428218209009849,3.259615
2025-11-23T06:30:33.269231,0.13569405261286344,0.1619898327648843,-9.990544823487916,0.31174381457621775,-0.19105040688876987,0.10031133358312856,3.269231
2025-11-23T06:30:33.278846,0.13995323732383771,0.15428634057363985,-9.972985632132614,0.3169053609617773,-0.18040910398131815,0.10638184879453692,3.278846
2025-11-23T06:30:33.288462,0.14405601057502468,0.1463610992165684,-9.955190554863318,0.3214832221104403,-0.16942330685206206,0.11252965099911051,3.288462
2025-11-23T06:30:33.298077,0.14797957281292376,0.13822073144881356,-9.93716842594359,0.3255015185889196,-0.15804662232409383,0.11878375245841052,3.298077
2025-11-23T06:30:33.307692,0.15169988817171196,0.1298706092934246,-9.918928712513429,0.32898223301179896,-0.14623158431923247,0.12516473860506774,3.307692
2025-11-23T06:30:33.317308,0.15519237418595208,0.12131507307438733,-9.900482131624234,0.3319451235519324,-0.1339323988310946,0.13168360653800157,3.317308
2025-11-23T06:30:33.326923,0.15843257821039106,0.11255778807031881,-9.881841172617394,0.3344079964787266,-0.12110779951631159,0.13834097060677805,3.326923
2025-11-23T06:30:33.336538,0.16139681933596106,0.1036022260897135,-9.863020521422342,0.33638726995102375,-0.10772390576476433,0.1451266292988373,3.336538
2025-11-23T06:30:33.346154,0.16406277971342897,0.09445225537278433,-9.844037411101407,0.33789871944049477,-0.09375700226391452,0.15201948048099856,3.346154
2025-11-23T06:30:33.355769,0.16641002950620093,0.08511281692613566,-9.824911934393588,0.3389582715082181,-0.07919615567897462,0.15898777889267074,3.355769
2025-11-23T06:30:33.365385,0.16842047127302184,0.07559065822518951,-9.805667348411744,0.3395827122512195,-0.06404554104055188,0.16598974398329316,3.365385
2025-11-23T06:30:33.375,0.1700786966768342,0.06589508524573401,-9.786330385634312,0.3397901992778808,-0.048326295964388026,0.1729745325580108,3.375
2025-11-23T06:30:33.384615,0.1713722578437779,0.056038682912438555,-9.766931563125095,0.3396005068987447,-0.03207769461409576,0.1798835803673105,3.384615
2025-11-23T06:30:33.394231,0.1722918602872588,0.046037951042197336,-9.747505452983962,0.33903498224879614,-0.015357457842768641,0.1866522934586891,3.394231
2025-11-23T06:30:33.403846,0.1728314812046811,0.035913813502709536,-9.728090845896643,0.3381162323376983,0.0017589133234311059,0.1932120410394854,3.403846
2025-11-23T06:30:33.413462,0.1729884109716068,0.02569197476274258,-9.708730721773696,0.336867590941672,0.019179800206814257,0.1994923713497717,3.413462
2025-11-23T06:30:33.423077,0.17276321334350728,0.015403107024773198,-9.689471951193717,0.3353124261740501,0.03680005451018127,0.20542334501625592,3.423077
2025-11-23T06:30:33.432692,0.1721596030054623,0.005082849788731246,-9.670364685776757,0.3334733404586046,0.05450437268460916,0.21093786228332265,3.432692
2025-11-23T06:30:33.442308,0.1711842464649237,-0.005228399493933369,-9.651461437863167,0.3313712887937318,0.0721712768573274,0.21597385542542233,3.442308
2025-11-23T06:30:33.451923,0.16984650260134146,-0.015485921212102457,-9.63281588798991,0.32902462189880083,0.08967750749063698,0.22047622486670537,3.451923
2025-11-23T06:30:33.461538,0.16815812875581315,-0.02564134039192081,-9.614481493728718,0.3264480741017341,0.10690262936209291,0.2243984144280815,3.461538
2025-11-23T06:30:33.471154,0.16613298026368895,-0.03564351034266856,-9.596510008744858,0.3236517616544539,0.12373364244923934,0.22770354794137784,3.471154
2025-11-23T06:30:33.480769,0.16378672123596422,-0.04543957987028122,-9.578950050286807,0.32064030901210355,0.1400693695895933,0.23036508650150442,3.480769
2025-11-23T06:30:33.490385,0.16113654506495864,-0.05497619595154596,-9.561845863029136,0.3174122484752757,0.15582437665391885,0.23236700819085163,3.490385
2025-11-23T06:30:33.5,0.15820088504291113,-0.06420078719155053,-9.54523640625411,0.3139598244464622,0.17093218239097294,0.2337035532725615,3.5
2025-11-23T06:30:33.509615,0.15499909041988888,-0.07306287672600843,-9.529154841448277,0.31026927795733145,0.18534754164536094,0.23437861022883388,3.509615
2025-11-23T06:30:33.519231,0.15155105327260632,-0.08151538221233666,-9.513628436020666,0.30632161036872263,0.19904763910959322,0.2344048321892135,3.519231
2025-11-23T06:30:33.528846,0.1478767852178076,-0.08951586765352343,-9.498678848579496,0.30209375270254757,0.21203210428949273,0.23380256498382823,3.528846
2025-11-23T06:30:33.538462,0.143995948337166,-0.0970277136475901,-9.484322732889868,0.2975600121759619,0.22432183926647192,0.23259864691990786,3.538462
2025-11-23T06:30:33.548077,0.13992734368964932,-0.1040211701316128,-9.470572586690475,0.2926936335877299,0.2359567291941525,0.23082512254883555,3.548077
2025-11-23T06:30:33.557692,0.13568836448256427,-0.11047424948969532,-9.457437768440919,0.28746830462944284,0.2469923755145048,0.22851790495029578,3.557692
2025-11-23T06:30:33.567308,0.13129443465034565,-0.1163734104479201,-9.444925604323684,0.28185945266411316,0.25749604837371354,0.22571541895046776,3.567308
2025-11-23T06:30:33.576923,0.12675847255137074,-0.12171398133841906,-9.433042506873441,0.27584521813825963,0.26754209266677675,0.22245725888120343,3.576923
2025-11-23T06:30:33.586538,0.12209043547952791,-0.12650028065470326,-9.42179502227688,0.26940703944376554,0.2772070384369338,0.21878290294391484,3.586538
2025-11-23T06:30:33.596154,0.11729700794377274,-0.1307454126915552,-9.4111907170815,0.2625298492379683,0.2865646623543428,0.21473053783629503,3.596154
2025-11-23T06:30:33.605769,0.1123814914255755,-0.13447074361128092,-9.401238818475445,0.25520196134159673,0.2956812316793639,0.21033604571477219,3.605769
2025-11-23T06:30:33.615385,0.10734393183484138,-0.13770509418568988,-9.391950547534355,0.24741479495311997,0.3046111476257516,0.20563218272187,3.615385
2025-11-23T06:30:33.625,0.1021814849531665,-0.14048370836463783,-9.383339129725544,0.23916260428555214,0.31339319688088424,0.20064794704228156,3.625
2025-11-23T06:30:33.634615,0.09688898303992985,-0.1428470601157318,-9.37541951702716,0.23044234582100945,0.32204761397218545,0.1954081139528251,3.634615
2025-11-23T06:30:33.644231,0.09145964370404787,-0.1448395482182042,-9.368207895896681,0.22125374465681677,0.3305741403340881,0.1899329135049231,3.644231
2025-11-23T06:30:33.653846,0.08588585892292774,-0.14650811499700944,-9.361721074110159,0.2115995501700745,0.33895122197060196,0.18423783849613787,3.653846
2025-11-23T06:30:33.663462,0.08016000823914285,-0.14790081876460343,-9.355975832760869,0.2014859187486912,0.34713641367110704,0.17833358535878366,3.663462
2025-11-23T06:30:33.673077,0.07427524693123407,-0.1490653889282947,-9.350988303566501,0.19092282542722594,0.3550679733199064,0.17222613819735888,3.673077
2025-11-23T06:30:33.682692,0.06822622767626957,-0.15004779518112402,-9.346773403052925,0.17992438277317246,0.3626675549743529,0.16591700296039666,3.682692
2025-11-23T06:30:33.692308,0.062009725113958206,-0.1508908680070698,-9.343344341205874,0.168508947723059,0.36984384320623753,0.15940358917687997,3.692308
2025-11-23T06:30:33.701923,0.05562514229518615,-0.15163301245638638,-9.34071222556179,0.15669894209530402,0.3764969079409707,0.15267972730853263,3.701923
2025-11-23T06:30:33.711538,0.04907488044081305,-0.1523070539402317,-9.338885790829714,0.14452038870505562,0.382523011516504,0.14573630406812865,3.711538
2025-11-23T06:30:33.721154,0.042364552184200814,-0.1529392457143495,-9.337871285161144,0.13200223411311254,0.38781958545275336,0.13856199647473322,3.721154
2025-11-23T06:30:33.730769,0.03550302347188709,-0.153548462732917,-9.337672528291131,0.1191755655913782,0.3922901082307284,0.1311440854368619,3.730769
2025-11-23T06:30:33.740385,0.028502284162562355,-0.1541456078438923,-9.338291124550535,0.10607284369530791,0.39584863580112856,0.12346932809416589,3.740385
2025-11-23T06:30:33.75,0.02137716524361666,-0.15473325512514072,-9.339726780401229,0.09272727967733571,0.3984237544739364,0.11552486670005996,3.75
2025-11-23T06:30:33.759615,0.01414493322564434,-0.15530554780256997,-9.341977662126506,0.07917247899320581,0.3999617527947936,0.10729915565824358,3.759615
2025-11-23T06:30:33.769231,0.006824797836111184,-0.15584836210815864,-9.345040739789901,0.06544242783429446,0.40042885933308014,0.09878289703085355,3.769231
2025-11-23T06:30:33.778846,-0.0005626306657227788,-0.15633974783431925,-9.348912084758846,0.05157182416277476,0.39981246456770303,0.0899699800384312,3.778846
2025-11-23T06:30:33.788462,-0.007995902533565673,-0.1567506528474619,-9.35358710475469,0.03759667774727088,0.3981213182533238,0.08085841367518781,3.788462
2025-11-23T06:30:33.798077,-0.015453282627213818,-0.15704592266317127,-9.359060709635397,0.023555050898895254,0.3953847517093337,0.07145122255357891,3.798077
2025-11-23T06:30:33.807692,-0.0229132766592499,-0.15718553913900166,-9.365327407565225,0.009487791173869648,0.39165101436526834,0.06175724916024609,3.807692
2025-11-23T06:30:33.817308,-0.03035510769832097,-0.15712603460914268,-9.372381336000153,-0.004560885319743804,0.3869848407941862,0.05179177955078895,3.817308
2025-11-23T06:30:33.826923,-0.03775911626898074,-0.15682199924689302,-9.380216231692073,-0.01854307623350181,0.3814643841652489,0.04157689794512858,3.826923
2025-11-23T06:30:33.836538,-0.045107054175659626,-0.15622759741265219,-9.388825337734879,-0.032407224839447225,0.3751776701037925,0.031141490871280732,3.836538
2025-11-23T06:30:33.846154,-0.052382246020921994,-0.1552980249466338,-9.398201238326902,-0.04609855271881409,0.36821874336433386,0.020520861770985485,3.846154
2025-11-23T06:30:33.855769,-0.05956960464088392,-0.15399086587318647,-9.408335610540568,-0.059559910856608646,0.36068369193999705,0.009755967426510683,3.855769
2025-11-23T06:30:33.865385,-0.06665550313226191,-0.15226733169139992,-9.419218890530802,-0.07273302661607485,0.3526667304826366,-0.0011076672147044347,3.865385
2025-11-23T06:30:33.875,-0.0736275215216993,-0.15009338116840987,-9.430839865860909,-0.08556007719974384,0.34425651029219523,-0.01202126622990299,3.875
2025-11-23T06:30:33.884615,-0.08047409867869056,-0.1474407198146531,-9.443185217668656,-0.09798547549363386,0.33553281061765305,-0.022934240643927024,3.884615
2025-11-23T06:30:33.894231,-0.08718413019384087,-0.14428766835897952,-9.45623904052619,-0.10995772355747752,0.32656376181569824,-0.03379562531415791,3.894231
2025-11-23T06:30:33.903846,-0.09374655939432831,-0.14061987906363985,-9.469982366570504,-0.12143118111571825,0.31740374317772657,-0.04455540037749392,3.903846
2025-11-23T06:30:33.913462,-0.10015000768674738,-0.1364308777250082,-9.484392720648321,-0.13236761490816504,0.3080920683889917,-0.05516561175372741,3.913462
2025-11-23T06:30:33.923077,-0.1063824791614902,-0.1317224157256905,-9.499443738687443,-0.14273743431692162,0.2986525136460736,-0.06558124550671231,3.923077
2025-11-23T06:30:33.932692,-0.11243115652476582,-0.1265046204740023,-9.515104890889754,-0.1525205611827346,0.28909367151778964,-0.07576084785781965,3.932692
2025-11-23T06:30:33.942308,-0.11828229079253909,-0.12079592948355844,-9.53134135877775,-0.1617069063779324,0.27941004870997765,-0.08566691103646458,3.942308
2025-11-23T06:30:33.951923,-0.12392118214443493,-0.11462278791225713,-9.548114112380564,-0.17029642867552605,0.26958377685800977,-0.0952660669627405,3.951923
2025-11-23T06:30:33.961538,-0.12933224979335273,-0.10801908892457424,-9.565380216465357,-0.17829875020110544,0.25958677117700246,-0.10452914537444831,3.961538
2025-11-23T06:30:33.971154,-0.13449918694323076,-0.101025346104188,-9.583093367573122,-0.18573231761671724,0.24938315777520795,-0.11343115448750055,3.971154
2025-11-23T06:30:33.980769,-0.13940519236894888,-0.09368760826787013,-9.601204636166967,-0.19262313364789801,0.23893180447881093,-0.12195122552372656,3.980769
2025-11-23T06:30:33.990385,-0.14403326831206523,-0.08605615320113337,-9.619663365226476,-0.19900312799493944,0.22818882380162825,-0.13007253115607992,3.990385
2025-11-23T06:30:34,-0.14836657712423043,-0.07818401863423928,-9.638418159545171,-0.20490827402080614,0.21710995178063455,-0.1377821555154425,4.0
2025-11-23T06:30:34.009615,-0.15238885200169122,-0.07012544180964689,-9.657417892793541,-0.21037657635798704,0.20565273314646443,-0.1450708751069888,4.009615
2025-11-23T06:30:34.019231,-0.15608485500263464,-0.06193428401796877,-9.676612665180789,-0.2154460524541359,0.19377846062413093,-0.1519328137989607,4.019231
2025-11-23T06:30:34.028846,-0.15944086672026545,-0.05366251449843753,-9.695954660570905,-0.22015281747933377,0.18145382658338305,-0.15836495996961922,4.028846
2025-11-23T06:30:34.038462,-0.16244517893214314,-0.04535882009100535,-9.715398871861359,-0.22452936938293974,0.16865225851082888,-0.1643665731005989,4.038462
2025-11-23T06:30:34.048077,-0.16508854969019449,-0.03706739519872554,-9.734903679842631,-0.22860315881842339,0.1553549345572932,-0.16993854791281557,4.048077
2025-11-23T06:30:34.057692,-0.16736457578109296,-0.02882695351559978,-9.754431277120132,-0.23239550610139992,0.1415515056718736,-0.17508283026688512,4.057692
2025-11-23T06:30:34.067308,-0.1692699427531098,-0.020669990763504103,-9.773947924567757,-0.23592089312904077,0.12724057389998397,-0.17980198247451679,4.067308
2025-11-23T06:30:34.076923,-0.1708045242571774,-0.012622316892816862,-9.793424020289674,-0.23918662434972077,0.11242998876152187,-0.1840989825691297,4.076923
2025-11-23T06:30:34.086538,-0.17197131463396834,-0.004702864106422009,-9.812833959495503,-0.24219282467672046,0.09713702786743686,-0.1879773200479212,4.086538
2025-11-23T06:30:34.096154,-0.1727761895881532,0.0030762404269041995,-9.832155774553355,-0.2449327228735782,0.08138852173036497,-0.1914414166639258,4.096154
2025-11-23T06:30:34.105769,-0.17322750152274063,0.010709371211882254,-9.851370569933504,-0.24739316035092046,0.0652209579371088,-0.1944973488954002,4.105769
2025-11-23T06:30:34.115385,-0.17333552975502858,0.0181969253908758,-9.870461801522847,-0.24955527263423422,0.04868055332263733,-0.19715378366944067,4.115385
2025-11-23T06:30:34.125,-0.17311181901583703,0.025544731834140095,-9.889414478216615,-0.2513953071281757,0.031823228681251745,-0.19942298066579367,4.125
2025-11-23T06:30:34.134615,-0.1725684501161124,0.03276340500200846,-9.908214368715054,-0.2528855523284463,0.01471438517716954,-0.2013216891726744,4.134615
2025-11-23T06:30:34.144231,-0.17171729546166353,0.039867680480332165,-9.926847275894792,-0.25399535296223397,-0.002571620581895606,-0.20287178895029048,4.144231
2025-11-23T06:30:34.153846,-0.1705693194508128,0.0468757416023571,-9.94529840927988,-0.2546921756627112,-0.01995238228751401,-0.20410058041434667,4.153846
2025-11-23T06:30:34.163462,-0.16913398452988004,0.05380851841106982,-9.963551861400726,-0.25494268275866666,-0.03733877245752118,-0.205040689587048,4.163462
2025-11-23T06:30:34.173077,-0.1674188122020841,0.060688924104603754,-9.981590188213897,-0.25471378107803794,-0.054636689362700074,-0.20572959462965912,4.173077
2025-11-23T06:30:34.182692,-0.1654291274727932,0.06754100062233297,-9.999394104213158,-0.253973636665022,-0.07174917039683296,-0.20620879990900667,4.182692
2025-11-23T06:30:34.192308,-0.1631679949750931,0.07438897127037873,-10.016942311877155,-0.25269266485022857,-0.08857878145535436,-0.2065226896094001,4.192308
2025-11-23T06:30:34.201923,-0.1606363421225994,0.08125622948284789,-10.034211480860348,-0.2508445013482416,-0.10503016406724683,-0.2067170975938586,4.201923
2025-11-23T06:30:34.211538,-0.15783325798244638,0.08816431561872386,-10.05117638137572,-0.2484069396909753,-0.12101260106696071,-0.2068376434858878,4.211538
2025-11-23T06:30:34.221154,-0.15475645103664856,0.09513194580203375,-10.06781016712176,-0.24536280194592341,-0.13644245043846503,-0.20692791029691765,4.221154
2025-11-23T06:30:34.230769,-0.15140284059961592,0.1021741614026709,-10.084084792762159,-0.2417007027007685,-0.1512453038731666,-0.20702756786158558,4.230769
2025-11-23T06:30:34.240385,-0.14776924536922983,0.10930166222068684,-10.09997153505096,-0.23741566912912077,-0.1653577560580268,-0.20717056269196266,4.240385
2025-11-23T06:30:34.25,-0.14385312236888903,0.11652036513864314,-10.115441568375202,-0.23250959270449614,-0.17872871919684494,-0.2073834887847983,4.25
2025-11-23T06:30:34.259615,-0.1396533050701514,0.1238311960433377,-10.130466530557731,-0.22699150923299224,-0.19132027152871955,-0.2076842291725516,4.259615
2025-11-23T06:30:34.269231,-0.13517069297616988,0.13123008825854718,-10.145019010169797,-0.22087771850955856,-0.20310806827271574,-0.20808092670081008,4.269231
2025-11-23T06:30:34.278846,-0.1304088553174316,0.1387081369456943,-10.15907289970034,-0.2141917468934427,-0.21408135346550122,-0.20857131604012555,4.278846
2025-11-23T06:30:34.288462,-0.1253745249562143,0.1462518510361226,-10.172603587749155,-0.2069641316673008,-0.22424259639294578,-0.2091424320017646,4.288462
2025-11-23T06:30:34.298077,-0.1200779703240365,0.15384345045500672,-10.185587993730353,-0.19923199130446897,-0.23360675994759209,-0.20977069950724478,4.298077
2025-11-23T06:30:34.307692,-0.11453323904929635,0.16146116987625694,-10.198004467752751,-0.19103835931424876,-0.24220020974129855,-0.21042240222652836,4.307692
2025-11-23T06:30:34.317308,-0.10875826447727835,0.1690795448875266,-10.209832586675192,-0.18243129334760597,-0.25005929024110346,-0.2110545149034719,4.317308
2025-11-23T06:30:34.326923,-0.10277481867642752,0.17666967061033542,-10.221052881864637,-0.17346279888316563,-0.25722861451483026,-0.21161586914180386,4.326923
2025-11-23T06:30:34.336538,-0.09660829229330281,0.18419943662370472,-10.231646536656774,-0.16418760760474224,-0.26375913042376165,-0.2120486093848969,4.336538
2025-11-23T06:30:34.346154,-0.09028728932300163,0.19163375401957447,-10.241595088289449,-0.1546618296890702,-0.269706035471997,-0.21228988780442878,4.346154
2025-11-23T06:30:34.355769,-0.08384303919062323,0.19893479875259776,-10.250880161312166,-0.1449414810864055,-0.2751266130727496,-0.21227374085748865,4.355769
2025-11-23T06:30:34.365385,-0.07730864169270339,0.20606230017592175,-10.25948325502921,-0.1350808914674253,-0.2800780612184319,-0.21193308352797818,4.365385
2025-11-23T06:30:34.375,-0.07071817183799317,0.21297390519201567,-10.267385610186317,-0.12513102414457017,-0.2846153906413039,-0.21120175102508293,4.375
2025-11-23T06:30:34.384615,-0.06410568466327696,0.2196256448555196,-10.27456818449703,-0.11513776693925629,-0.28878948179850306,-0.21001651550158232,4.384615
2025-11-23T06:30:34.394231,-0.0575041719345595,0.225972520077518,-10.281011765201454,-0.10514026978617128,-0.2926453958475339,-0.20831900961534905,4.394231
2025-11-23T06:30:34.403846,-0.050944527719525866,0.23196921042109706,-10.286697234866143,-0.09516941938674846,-0.2962210257346482,-0.20605749883559585,4.403846
2025-11-23T06:30:34.413462,-0.044454579347859804,0.23757090105198508,-10.291605983000077,-0.08524656336505838,-0.299546151263816,-0.20318845788630666,4.413462
2025-11-23T06:30:34.423077,-0.03805823902519711,0.2427342177164616,-10.295720428446568,-0.07538261091308428,-0.3026419310205545,-0.19967792088672331,4.423077
2025-11-23T06:30:34.432692,-0.031774828003757624,0.24741825261914857,-10.299024601840356,-0.06557762066934329,-0.30552082561178373,-0.19550258484394442,4.432692
2025-11-23T06:30:34.442308,-0.02561861497581747,0.25158565181683706,-10.301504743254,-0.055820943799456624,-0.3081869069402918,-0.19065064871278398,4.442308
2025-11-23T06:30:34.451923,-0.019598593304314207,0.2552037186387394,-10.30314988982451,-0.04609194468110576,-0.3106364842553629,-0.18512236967898849,4.451923
2025-11-23T06:30:34.461538,-0.01371850196804839,0.25824547090579913,-10.303952446160528,-0.03636128344767158,-0.3128589804274686,-0.17893032080693963,4.461538
2025-11-23T06:30:34.471154,-0.007977077008514983,0.26069057648057914,-10.303908738415481,-0.02659270862633021,-0.3148380088591969,-0.17209933756282292,4.471154
2025-11-23T06:30:34.480769,-0.002368506917346601,0.2625260896601133,-10.303019550354911,-0.016745272072510455,-0.3165526121166761,-0.16466614038076535,4.480769
2025-11-23T06:30:34.490385,0.003116944166879329,0.2637469276291973,-10.301290625669951,-0.006775845867674881,-0.31797862138940575,-0.15667861826570711,4.490385
2025-11-23T06:30:34.5,0.008492191144444022,0.26435605737778056,-10.29873309535525,0.003358204204684093,-0.31909008510463055,-0.14819476058803027,4.5
2025-11-23T06:30:34.509615,0.013772514441474051,0.26436439347197815,-10.29536376051474,0.013696346156199518,-0.31986069966810754,-0.13928123790543187,4.509615
2025-11-23T06:30:34.519231,0.018974731573491006,0.26379042569371675,-10.291205145323612,0.024272362669715573,-0.32026516290608886,-0.13001166183652235,4.519231
2025-11-23T06:30:34.528846,0.024116394031209985,0.26265960555692325,-10.286285246421,0.03511211627011352,-0.3202803700126524,-0.12046459115285423,4.528846
2025-11-23T06:30:34.538462,0.02921503137633068,0.2610035261860113,-10.28063694687997,0.046231697916145245,-0.3198863848108636,-0.11072138011170077,4.538462
2025-11-23T06:30:34.548077,0.0342874520585829,0.2588589302913688,-10.274297120392248,0.05763602529306049,-0.319067142311123,-0.10086397615053858,4.548077
2025-11-23T06:30:34.557692,0.03934910932005848,0.25626657784292145,-10.267305497377944,0.06931793085733254,-0.31781086428950744,-0.09097277058014035,4.557692
2025-11-23T06:30:34.567308,0.044413546260110986,0.2532700053738431,-10.259703382249866,0.0812577604019843,-0.3161101882096806,-0.08112459464966507,4.567308
2025-11-23T06:30:34.576923,0.049491938004491955,0.24991421695449254,-10.251532307613905,0.09342348521674085,-0.3139620197612691,-0.07139093745327278,4.576923
2025-11-23T06:30:34.586538,0.05459274680028108,0.24624435936907782,-10.24283270402461,0.10577131176081662,-0.31136713059390947,-0.061836441556247575,4.586538
2025-11-23T06:30:34.596154,0.05972149970248357,0.2423044421475647,-10.233642657338711,0.11824675664762505,-0.3083295416822453,-0.05251770618176742,4.596154
2025-11-23T06:30:34.605769,0.06488068937019867,0.23813616082925268,-10.223996813185918,0.13078614791825582,-0.3048557499433693,-0.04348239914151899,4.605769
2025-11-23T06:30:34.615385,0.07006978525429297,0.23377787269257091,-10.21392546883166,0.14331851336546328,-0.30095386011468117,-0.034768656942383784,4.615385
2025-11-23T06:30:34.625,0.07528532958144671,0.22926376548829006,-10.203453873723454,0.15576781362179629,-0.29663268153818373,-0.02640474668752911,4.625
2025-11-23T06:30:34.634615,0.08052108950464304,0.22462325145089512,-10.192601746110489,0.16805546626886042,-0.2919008545924201,-0.018408971142803567,4.634615
2025-11-23T06:30:34.644231,0.0857682460532019,0.21988060576548552,-10.181383006117553,0.18010308652543766,-0.2867660817668994,-0.01078980964004291,4.644231
2025-11-23T06:30:34.653846,0.09101561301943976,0.21505484927643465,-10.169805728431323,0.19183534114849793,-0.2812345359521369,-0.0035462978551380735,4.653846
2025-11-23T06:30:34.663462,0.09624988507262938,0.2101598526579812,-10.157872328490788,0.2031827813324164,-0.27531049387086415,0.003331340974869974,4.663462
2025-11-23T06:30:34.673077,0.10145591411334347,0.20520461860968212,-10.145580003765067,0.21408449863703938,-0.26899620461201307,0.009860798937585452,4.673077
2025-11-23T06:30:34.682692,0.10661701174234285,0.20019368652789896,-10.132921446381962,0.22449044256802808,-0.2622919688402291,0.016066521895961368,4.682692
2025-11-23T06:30:34.692308,0.11171527733039337,0.19512760507466143,-10.119885824683827,0.23436324907433428,-0.2551963865234803,0.02197831671010715,4.692308
2025-11-23T06:30:34.701923,0.11673195661115114,0.19000342935952794,-10.106460003207745,0.24367945355763082,-0.24770673395422488,0.027629793008354813,4.701923
2025-11-23T06:30:34.711538,0.12164784229382102,0.18481521318116023,-10.092629938180108,0.2524300014391748,-0.23981944883439768,0.03305672590542766,4.711538
2025-11-23T06:30:34.721154,0.1264437263780504,0.1795544791496728,-10.078382159214119,0.26062002559119796,-0.2315307249273311,0.03829543137025781,4.721154
2025-11-23T06:30:34.730769,0.13110089547147552,0.17421066455489206,-10.063705238899564,0.2682679227448804,-0.2228372359261837,0.04338123652595379,4.730769
2025-11-23T06:30:34.740385,0.13560163225514035,0.1687715614463802,-10.048591162019003,0.27540380622969485,-0.21373701425422345,0.04834710622181381,4.740385
2025-11-23T06:30:34.75,0.13992966682574898,0.16322378734812518,-10.033036526234822,0.2820674237989394,-0.20423049879944763,0.05322246356229631,4.75
2025-11-23T06:30:34.759615,0.14407052247528743,0.1575533237696455,-10.017043525098156,0.28830561990360876,-0.19432173675451478,0.05803222507943689,4.759615
2025-11-23T06:30:34.769231,0.14801171655090345,0.15174613865882614,-10.000620676813755,0.2941694234728483,-0.18401968897792848,0.06279606250220184,4.769231
2025-11-23T06:30:34.778846,0.1517427966318564,0.1457888779955251,-9.983783273107122,0.2997108723430735,-0.17333955602800866,0.06752789686231823,4.778846
2025-11-23T06:30:34.788462,0.15525521033835651,0.13966958508346863,-9.966553540809166,0.3049797301876701,-0.16230401233785924,0.07223562181942912,4.788462
2025-11-23T06:30:34.798077,0.1585420263259021,0.13337838819560835,-9.948960532925538,0.3100202836604988,-0.15094420634696573,0.07692104322102745,4.798077
2025-11-23T06:30:34.807692,0.1615975456785216,0.12690808847344975,-9.931039781548977,0.31486841184263936,-0.1393003677517867,0.08158001709762538,4.807692
2025-11-23T06:30:34.817308,0.16441686117862359,0.1202545833013519,-9.9128327426438,0.3195491026172769,-0.12742187847327802,0.08620277128933182,4.817308
2025-11-23T06:30:34.826923,0.1669954285203581,0.1134170772477951,-9.89438605099726,0.3240745643893079,-0.11536671282131881,0.09077440267170019,4.826923
2025-11-23T06:30:34.836538,0.16932870540492645,0.10639805981892755,-9.875750598287228,0.3284430526120448,-0.10320021723332165,0.09527554452729045,4.836538
2025-11-23T06:30:34.846154,0.17141189542736793,0.09920306014407454,-9.85698045526404,0.3326384958109918,-0.09099326493330022,0.09968319160412589,4.846154
2025-11-23T06:30:34.855769,0.1732398113502056,0.09184021543768468,-9.838131677612914,0.33663095930924436,-0.07881988273901665,0.10397165736498121,4.855769
2025-11-23T06:30:34.865385,0.17480685489449915,0.08431970671193974,-9.819261057694826,0.34037792414401913,-0.06675450656643031,0.10811362805637184,4.865385
2025-11-23T06:30:34.875,0.17610710193982543,0.07665312077858871,-9.800424901770814,0.34382629043160773,-0.05486906949960368,0.1120812750712031,4.875
2025-11-23T06:30:34.884615,0.17713447982430927,0.06885279499682757,-9.781677913822557,0.346914954895977,-0.043230142336786556,0.11584738655132877,4.884615
2025-11-23T06:30:34.894231,0.17788301902612946,0.060931193835057275,-9.763072247719554,0.3495777768864952,-0.03189631940672207,0.11938647878205001,4.894231
2025-11-23T06:30:34.903846,0.1783471506597665,0.05290035673790763,-9.744656754776528,0.351746739207934,-0.02091598484534861,0.12267585002409433,4.903846
2025-11-23T06:30:34.913462,0.17852201031592002,0.04477144893582321,-9.72647641907515,0.3533551183251717,-0.01032553692640336,0.12569654268615998,4.913462
2025-11-23T06:30:34.923077,0.17840370928330085,0.03655444516426351,-9.70857195591643,0.3543404891463833,-0.00014811290431588267,0.12843417515499644,4.923077
2025-11-23T06:30:34.932692,0.17798954934205471,0.028257978857400036,-9.690979553474492,0.35464740585556837,0.00960715632171902,0.13087958806815878,4.932692
2025-11-23T06:30:34.942308,0.1772781773765286,0.01988938643001225,-9.673730748683772,0.35422964243082583,0.01894533880814481,0.13302923419877116,4.942308
2025-11-23T06:30:34.951923,0.17626968727685483,0.011454961558740637,-9.656852428626236,0.35305194959052194,0.027885330454685605,0.13488524596651627,4.951923
2025-11-23T06:30:34.961538,0.1749656727236715,0.0029604125691024825,-9.640366937399525,0.3510913573506714,0.03645892734969734,0.13645514493122507,4.961538
2025-11-23T06:30:34.971154,0.17336922155854312,-0.005588506189193366,-9.624292255518062,0.34833808462787985,0.04470936912543043,0.13775119934511026,4.971154
2025-11-23T06:30:34.980769,0.17148483432979694,-0.014185239721098152,-9.608642212153189,0.3447961041599525,0.05268940336965411,0.13878947200591055,4.980769
2025-11-23T06:30:34.990385,0.16931825613573273,-0.02282162504548429,-9.593426692843074,0.34048337739931844,0.06045894704504721,0.13958862749686174,4.990385
2025-11-23T06:30:35,0.1668762303330996,-0.03148711229362036,-9.578651816910204,0.3354317395742851,0.06808244813535058,0.14016859138064944,5.0
2025-11-23T06:30:35.009615,0.16416620553874475,-0.040168090064917,-9.564320079651347,0.32968638598116223,0.075626073971592,0.14054917409905254,5.009615
2025-11-23T06:30:35.019231,0.16119604488187633,-0.048847372569775754,-9.550430482803325,0.3233048960971523,0.08315486344325014,0.1407487774838341,5.019231
2025-11-23T06:30:35.028846,0.15797379339739326,-0.05750388598531915,-9.536978704359429,0.316355742579567,0.09072997059450912,0.14078328038541596,5.028846
2025-11-23T06:30:35.038462,0.1545075515879809,-0.06611257853445174,-9.523957371679511,0.30891626519801624,0.09840610081282263,0.14066515681972164,5.038462
2025-11-23T06:30:35.048077,0.15080547979286438,-0.07464457278679197,-9.511356492378598,0.30107013654918496,0.10622921709551321,0.14040283612638585,5.048077
2025-11-23T06:30:35.057692,0.1468759283891355,-0.08306757135676159,-9.499164072708561,0.2929044050141637,0.11423458763150131,0.14000028976023368,5.057692
2025-11-23T06:30:35.067308,0.14272766767242978,-0.0913465106842644,-9.487366928288964,0.28450626672181706,0.12244524926839828,0.1394568289499895,5.067308
2025-11-23T06:30:35.076923,0.1383701835494772,-0.09944443278554542,-9.475951674162289,0.2759597714010805,0.1308709567557596,0.13876711212159723,5.076923
2025-11-23T06:30:35.086538,0.1338140044103049,-0.10732352050601184,-9.464905862852625,0.26734268177419285,0.1395076709030961,0.13792137270344912,5.086538
2025-11-23T06:30:35.096154,0.12907102551461724,-0.11494622470758846,-9.45421921224267,0.25872368107492066,0.14833761704062065,0.13690587266664245,5.096154
2025-11-23T06:30:35.105769,0.12415479964995907,-0.12227640199576999,-9.44388483532936,0.25016008138377477,0.15732992095627604,0.13570356720486074,5.105769
2025-11-23T06:30:35.115385,0.11908076467735479,-0.1292803794365539,-9.433900365733692,0.24169614578764642,0.16644179735576747,0.1342949450724413,5.115385
2025-11-23T06:30:35.125,0.11386637781219526,-0.13592787316374863,-9.424268874638589,0.23336210071172195,0.17562022051360998,0.13265899459116848,5.125
2025-11-23T06:30:35.134615,0.10853112664553502,-0.14219271183743498,-9.414999494092141,0.22517387710241676,0.18480395497303753,0.1307742343011385,5.134615
2025-11-23T06:30:35.144231,0.10309639256865832,-0.14805334578219495,-9.406107690036965,0.21713357969396965,0.19392578755848544,0.12861974076723992,5.144231
2025-11-23T06:30:35.153846,0.09758515363670384,-0.15349314895334157,-9.397615158706795,0.20923064007410372,0.20291479911883165,0.12617611354778566,5.153846
2025-11-23T06:30:35.163462,0.09202153040489608,-0.15850053894055638,-9.389549350334464,0.20144356186298604,0.21169854267418486,0.12342634069121565,5.163462
2025-11-23T06:30:35.173077,0.08643019895296933,-0.16306895000123892,-9.381942655471157,0.1937421240766605,0.22020503532967864,0.12035655289199963,5.173077
2025-11-23T06:30:35.182692,0.08083571357233102,-0.16719669794251502,-9.374831318437293,0.1860898820018132,0.2283645068010694,0.11695666466286578,5.182692
2025-11-23T06:30:35.192308,0.0752617890168441,-0.17088677392570728,-9.368254162239937,0.1784467953665073,0.236110871595926,0.11322089677198147,5.192308
2025-11-23T06:30:35.201923,0.06973058837713515,-0.17414659516366957,-9.362251215308158,0.1707718161533609,0.24338291032534132,0.10914816882959319,5.201923
2025-11-23T06:30:35.211538,0.06426205391530326,-0.1769877245944211,-9.356862323207709,0.16302528030421035,0.25012516515534183,0.10474235235739342,5.211538
2025-11-23T06:30:35.221154,0.058873309767203445,-0.17942555140230773,-9.352125810203177,0.15517097146892275,0.2562885742810341,0.10001237796773531,5.221154
2025-11-23T06:30:35.230769,0.05357815938247847,-0.1814789028805629,-9.348077230061445,0.1471777610051067,0.2618308868740142,0.09497218869335619,5.230769
2025-11-23T06:30:35.240385,0.04838669685737313,-0.1831695446978601,-9.344748222897367,0.13902077068445373,0.2667169122322612,0.08964052838142143,5.240385
2025-11-23T06:30:35.25,0.04330504688182984,-0.18452153375689603,-9.342165487813931,0.13068205028175206,0.2709186610150082,0.08404055856395307,5.25
2025-11-23T06:30:35.259615,0.038335240379798956,-0.18556041714271598,-9.340349891889769,0.12215081226865458,0.27441542583077133,0.07819931384349149,5.259615
2025-11-23T06:30:35.269231,0.033475225131171855,-0.18631230871281457,-9.339315752151053,0.11342330857550804,0.2771938248679671,0.0721470293684241,5.269231
2025-11-23T06:30:35.278846,0.028719007700419755,-0.1868029062299943,-9.339070332983441,0.10450244692862883,0.27924780680905437,0.0659163902273753,5.278846
2025-11-23T06:30:35.288462,0.0240569248015787,-0.18705652829578612,-9.339613590556482,0.09539722243893328,0.2805785973278351,0.05954174911591775,5.288462
2025-11-23T06:30:35.298077,0.01947604440925809,-0.18709524820726045,-9.340938171763824,0.08612201192807876,0.28119456182886393,0.05305833896120036,5.298077
2025-11-23T06:30:35.307692,0.014960695457790928,-0.1869381823499918,-9.343029647333262,0.07669577274408211,0.2811109677181909,0.046501487339187575,5.307692
2025-11-23T06:30:35.317308,0.010493118011597283,-0.1866009629175427,-9.345866937627752,0.06714120032671166,0.2803496464538418,0.03990583046290946,5.317308
2025-11-23T06:30:35.326923,0.006054213419442522,-0.1860954014526378,-9.34942288034264,0.05748390381910885,0.278938566533009,0.033304526136001544,5.326923
2025-11-23T06:30:35.336538,0.0016243582075933973,-0.18542933902508732,-9.353664889850924,0.04775164489050593,0.27691132201777063,0.026728472302451345,5.336538
2025-11-23T06:30:35.346154,-0.0028157680714002036,-0.18460667976212589,-9.358555665755969,0.037973661436004856,0.2743065213725902,0.020205545181291116,5.346154
2025-11-23T06:30:35.355769,-0.007284393565623738,-0.1836276073436287,-9.364053923355357,0.028180075839922485,0.27116704956889737,0.013759876835966403,5.355769
2025-11-23T06:30:35.365385,-0.01179794458646447,-0.1824889791492117,-9.370115138873036,0.01840137257965743,0.267539191634173,0.00741120187166058,5.365385
2025-11-23T06:30:35.375,-0.016370439586366303,-0.18118488059354337,-9.37669232104902,0.00866793216678144,0.2634716395927093,0.0011743210503902361,5.375
2025-11-23T06:30:35.384615,-0.02101299839642279,-0.17970731045318789,-9.383736833188381,-0.0009903676377969687,0.2590144284371581,-0.0049412530236830335,5.384615
2025-11-23T06:30:35.394231,-0.02573347376909725,-0.1780469594356148,-9.391199294505878,-0.010544448484672647,0.2542178472730492,-0.010931403887956423,5.394231
2025-11-23T06:30:35.403846,-0.030536208365610475,-0.17619403719600532,-9.399030584669852,-0.019966200336163132,0.2491313639604754,-0.016797234969467036,5.403846
2025-11-23T06:30:35.413462,-0.035421913857764026,-0.17413909962056365,-9.407182959847187,-0.02922854312920207,0.24380260433974824,-0.02254461109299412,5.413462
2025-11-23T06:30:35.423077,-0.040387663869682774,-0.17187383245035764,-9.415611265734475,-0.038305452070090874,0.23827644169232207,-0.02818345396789391,5.423077
2025-11-23T06:30:35.432692,-0.04542699217374677,-0.16939175689221708,-9.424274208304714,-0.047172037263099105,0.23259426451805923,-0.033726848063562354,5.432692
2025-11-23T06:30:35.442308,-0.05053008848739053,-0.1666888297674552,-9.433135619055228,-0.05580475098433612,0.22679348352133827,-0.03919002499594411,5.442308
2025-11-23T06:30:35.451923,-0.05568408208063091,-0.16376390964067516,-9.442165631296612,-0.06418175947560427,0.22090729995693179,-0.04458930273488182,5.451923
2025-11-23T06:30:35.461538,-0.06087339812814305,-0.16061905346085212,-9.451341674402626,-0.0722834792837624,0.2149646935130151,-0.0499410566742306,5.461538
2025-11-23T06:30:35.471154,-0.06608016568452951,-0.1572596040357798,-9.460649199967422,-0.08009324445494807,0.20899053001427395,-0.055260789610107885,5.471154
2025-11-23T06:30:35.480769,-0.07128465284496131,-0.15369403694786926,-9.47008207567858,-0.0875980381016834,0.20300567170976086,-0.060562350476466804,5.480769
2025-11-23T06:30:35.490385,-0.07646570939052204,-0.14993356059853277,-9.479642611848389,-0.09478919346860441,0.19702699967990958,-0.06585733025329607,5.490385
2025-11-23T06:30:35.5,-0.0816012114879723,-0.14599150032705951,-9.489341214750683,-0.10166295008528217,0.19106730428734436,-0.0711546370041671,5.5
2025-11-23T06:30:35.509615,-0.08666851720809114,-0.1418825357184633,-9.499195684970141,-0.10822074536787396,0.18513504593312397,-0.07646022285030864,5.509615
2025-11-23T06:30:35.519231,-0.0916449418197185,-0.13762188603204664,-9.509230193392042,-0.11446914380713881,0.17923403367459834,-0.08177691342927293,5.519231
2025-11-23T06:30:35.528846,-0.09650824615753893,-0.13322454278545254,-9.519473970588184,-0.12041936039733085,0.17336311279071623,-0.08710428751544165,5.528846
2025-11-23T06:30:35.538462,-0.10123711332770344,-0.1287046299592795,-9.529959743522564,-0.1260864041623154,0.1675159809455758,-0.09243857594846504,5.538462
2025-11-23T06:30:35.548077,-0.10581158287649017,-0.12407493836447106,-9.540721959419505,-0.1314879255216751,0.16168124927104777,-0.09777258215568063,5.548077
2025-11-23T06:30:35.557692,-0.11021341922544672,-0.11934664392189043,-9.551794857647142,-0.13664288728955182,0.1558428232438129,-0.10309564676691167,5.557692
2025-11-23T06:30:35.567308,-0.1144264033827379,-0.11452919168872636,-9.56321047947814,-0.14157019224706052,0.1499806118221935,-0.1083936735080096,5.567308
2025-11-23T06:30:35.576923,-0.1184365437532709,-0.10963031195794806,-9.574996726881743,-0.1462873873745339,0.1440715087632417,-0.11364921585098124,5.576923
2025-11-23T06:30:35.586538,-0.1222322028639488,-0.10465612702032911,-9.587175585425479,-0.15080953310365036,0.1380905494974924,-0.11884161633930972,5.586538
2025-11-23T06:30:35.596154,-0.12580414110013935,-0.09961130530970828,-9.599761616311387,-0.15514829892064744,0.13201213786509816,-0.12394720174899357,5.596154
2025-11-23T06:30:35.605769,-0.1291454926240903,-0.094499230413336,-9.612760808054718,-0.15931133797243796,0.1258112558032339,-0.12893955924725936,5.605769
2025-11-23T06:30:35.615385,-0.1322517065199914,-0.08932217801758098,-9.62616986326828,-0.16330198819810926,0.11946460269315735,-0.1337899382060627,5.615385
2025-11-23T06:30:35.625,-0.1351204948332972,-0.08408151845492565,-9.63997597471341,-0.16711932605170554,0.11295163833028705,-0.13846782981702743,5.625
2025-11-23T06:30:35.634615,-0.13775182163900554,-0.07877796685599062,-9.654157109678753,-0.17075856173042617,0.10625550748635271,-0.14294177041477876,5.634615
2025-11-23T06:30:35.644231,-0.14014794736466485,-0.07341188798868835,-9.668682775112881,-0.1742117252479458,0.09936380732959031,-0.14718039838197844,5.644231
2025-11-23T06:30:35.653846,-0.14231351761650496,-0.06798364304787397,-9.683515192229091,-0.1774685610503805,0.09226914200908032,-0.15115376854355914,5.653846
2025-11-23T06:30:35.663462,-0.14425566050748898,-0.06249394565333376,-9.698610784164707,-0.18051753099339501,0.08496941014693062,-0.1548348861361811,5.663462
2025-11-23T06:30:35.673077,-0.14598403626011633,-0.05694417086565365,-9.713921876788204,-0.18334682331336863,0.07746779216496795,-0.15820136919369007,5.673077
2025-11-23T06:30:35.682692,-0.14751077622288522,-0.05133654073971139,-9.729398520902414,-0.18594527455391577,0.06977243615216752,-0.16123710511781666,5.682692
2025-11-23T06:30:35.692308,-0.14885026127643863,-0.045674109492030025,-9.744990352919977,-0.18830312480932507,0.06189587684764212,-0.16393375133042865,5.692308
2025-11-23T06:30:35.701923,-0.1500187176417767,-0.03996050031529532,-9.760648416589602,-0.1904125433177722,0.0538542550483637,-0.16629193672972695,5.701923
2025-11-23T06:30:35.711538,-0.1510336386293782,-0.03419939647251403,-9.7763268715784,-0.19226789015771992,0.045666420962796564,-0.1683220395509404,5.711538
2025-11-23T06:30:35.721154,-0.15191306201520788,-0.028393844059809756,-9.791984518739662,-0.1938657231829747,0.03735299737312233,-0.170044449098929,5.721154
2025-11-23T06:30:35.730769,-0.15267474068403117,-0.02254546777103934,-9.80758607964629,-0.1952046026821658,0.028935456373357194,-0.17148926700093572,5.730769
2025-11-23T06:30:35.740385,-0.1533352443147547,-0.016653725525158515,-9.823103177042414,-0.19628477277063408,0.020435242421700823,-0.17269545946828344,5.740385
2025-11-23T06:30:35.75,-0.15390903197474404,-0.010715330225285586,-9.838514965097831,-0.1971078036689142,0.011872960172260841,-0.1737095212488318,5.75
2025-11-23T06:30:35.759615,-0.15440754431046635,-0.004723949383816807,-9.85380835285877,-0.19767626306275005,0.00326763373542896,-0.17458374787280467,5.759615
2025-11-23T06:30:35.769231,-0.15483837499545117,0.0013297404744869884,-9.86897776607126,-0.19799344898555307,-0.005363967795737249,-0.17537423498023597,5.769231
2025-11-23T06:30:35.778846,-0.1552045874042805,0.0074576136021390375,-9.884024416082598,-0.19806317392411166,-0.014007948216900365,-0.17613872929341565,5.778846
2025-11-23T06:30:35.788462,-0.15550424212768307,0.013673288961801013,-9.898955085021079,-0.19788956227647753,-0.022653840847847533,-0.17693444391159038,5.788462
2025-11-23T06:30:35.798077,-0.15573019392803,0.019991025910370188,-9.913780479261424,-0.1974768221779069,-0.031295066165486086,-0.17781593012041763,5.798077
2025-11-23T06:30:35.807692,-0.15587020021660747,0.02642442608729245,-9.928513242500863,-0.19682897038436523,-0.039929220088623034,-0.17883308219495636,5.807692
2025-11-23T06:30:35.817308,-0.15590735461768623,0.032985065840608875,-9.943165755676707,-0.19594951304097238,-0.04855811494260868,-0.18002934228786194,5.817308
2025-11-23T06:30:35.826923,-0.1558208240447635,0.03968118422661257,-9.957747876347204,-0.19484110964124662,-0.05718751994814957,-0.18144015887763687,5.826923
2025-11-23T06:30:35.836538,-0.1555868390394209,0.04651653762169708,-9.972264775236205,-0.19350526752408545,-0.06582659267512957,-0.1830917314521831,5.836538
2025-11-23T06:30:35.846154,-0.15517987450800247,0.053489511227101307,-9.986715015299064,-0.19194212309763872,-0.07448703781614714,-0.1850000591411554,5.846154
2025-11-23T06:30:35.855769,-0.15457395801907234,0.06059255448224818,-10.001089003389138,-0.19015036058853535,-0.08318205946244185,-0.18717031136634585,5.855769
2025-11-23T06:30:35.865385,-0.1537440444600008,0.0678119792840574,-10.0153679356223,-0.18812730329709765,-0.09192518122531895,-0.18959654539254622,5.865385
2025-11-23T06:30:35.875,-0.15266739362031814,0.07512812505771244,-10.029523349296763,-0.18586919215278708,-0.10072900066388431,-0.19226179547288674,5.875
2025-11-23T06:30:35.884615,-0.15132488355470142,0.08251586014898862,-10.04351737088604,-0.18337164502920725,-0.10960393413772669,-0.1951385480417747,5.884615
2025-11-23T06:30:35.894231,-0.149702189443583,0.08994536477745367,-10.057303697408841,-0.18063026874494556,-0.11855700496944589,-0.19818960028349783,5.894231
2025-11-23T06:30:35.903846,-0.14779075586974047,0.0973831281309113,-10.070829270609135,-0.17764137586790968,-0.1275907328327165,-0.20136927822500042,5.903846
2025-11-23T06:30:35.913462,-0.14558849566496404,0.1047930859058468,-10.084036524106319,-0.17440274294420427,-0.136702191015358,-0.20462496808023414,5.913462
2025-11-23T06:30:35.923077,-0.14310016739294784,0.11213782337982994,-10.09686602991731,-0.17091433616377052,-0.14588230048257056,-0.2078988934108841,5.923077
2025-11-23T06:30:35.932692,-0.14033741202868263,0.11937977527829205,-10.109259347823489,-0.16717892344588386,-0.15511541702368484,-0.21113005265773474,5.932692
2025-11-23T06:30:35.942308,-0.13731845452671887,0.1264823657344791,-10.121161873560522,-0.1632024887343411,-0.16437924566629092,-0.21425622029626953,5.942308
2025-11-23T06:30:35.951923,-0.13406749066228868,0.1334110437172207,-10.13252547865771,-0.15899436952118107,-0.1736450979388481,-0.21721591438493434,5.951923
2025-11-23T06:30:35.961538,-0.13061378834246842,0.1401341783239294,-10.143310744006072,-0.15456705956007133,-0.18287849512313095,-0.2199502420547478,5.961538
2025-11-23T06:30:35.971154,-0.12699054273186058,0.14662378552652103,-10.153488626611468,-0.14993566099947786,-0.19204010642774222,-0.222404544310632,5.971154
2025-11-23T06:30:35.980769,-0.12323353664860992,0.15285606377633779,-10.163041467764996,-0.14511703214596694,-0.20108698904317418,-0.2245297677672423,5.980769
2025-11-23T06:30:35.990385,-0.1193796676420066,0.15881172107848207,-10.17196333406593,-0.14012874200613462,-0.20997406789880083,-0.22628350139172845,5.990385
2025-11-23T06:30:36,-0.11546540931986357,0.16447608675477218,-10.180259754079517,-0.13498798083395946,-0.21865576161958036,-0.22763064235315048,6.0
2025-11-23T06:30:36.009615,-0.11152527763132512,0.16983902203361062,-10.187946956347153,-0.12971056842407566,-0.22708763475641158,-0.22854369433954483,6.009615
2025-11-23T06:30:36.019231,-0.10759037188128397,0.17489466777778706,-10.195050728736073,-0.12431016141054158,-0.2352279425478897,-0.22900273757883421,6.019231
2025-11-23T06:30:36.028846,-0.10368705489312512,0.17964108182252508,-10.201605011046754,-0.11879771680130778,-0.24303894201136542,-0.22899512871521435,6.028846
2025-11-23T06:30:36.038462,-0.09983583013990502,0.18407981877266122,-10.207650308427064,-0.11318123989665324,-0.25048787793003874,-0.2285149912086398,6.038462
2025-11-23T06:30:36.048077,-0.09605046812969577,0.1882154980062557,-10.213231982969484,-0.10746583058667758,-0.25754760811875765,-0.2275625537322426,6.048077
2025-11-23T06:30:36.057692,-0.09233742849315954,0.19205539509500624,-10.218398461277767,-0.10165403287129796,-0.2641968903168576,-0.2261433964410793,6.057692
2025-11-23T06:30:36.067308,-0.08869561555601112,0.19560907707343908,-10.223199398521412,-0.09574647714970988,-0.2704203924887448,-0.2242676746448503,6.067308
2025-11-23T06:30:36.076923,-0.0851164916289087,0.1988880851563681,-10.227683860626124,-0.08974277643922932,-0.27620849820047066,-0.22194939430362282,6.076923
2025-11-23T06:30:36.086538,-0.08158455382247784,0.2019056557168785,-10.231898606497149,-0.0836425979148777,-0.2815569633872459,-0.21920580061587858,6.086538
2025-11-23T06:30:36.096154,-0.07807816032122582,0.20467646423445124,-10.235886551034794,-0.07744679285526042,-0.2864664568364334,-0.21605691245934017,6.096154
2025-11-23T06:30:36.105769,-0.0745706741581412,0.20721637399497492,-10.23968546448249,-0.07115844760245664,-0.290942001520118,-0.2125252068277165,6.105769
2025-11-23T06:30:36.115385,-0.07103187646031521,0.20954216801519487,-10.243326930966184,-0.06478372183107095,-0.2949923354063992,-0.2086354364080308,6.115385
2025-11-23T06:30:36.125,-0.06742958487288088,0.21167124127107642,-10.24683556450432,-0.0583323639741514,-0.2986292258982726,-0.2044145433315483,6.125
2025-11-23T06:30:36.134615,-0.06373139567585503,0.21362123488989757,-10.250228466988727,-0.05181783182617137,-0.30186679170039743,-0.19989160812181359,6.134615
2025-11-23T06:30:36.144231,-0.05990645230784541,0.21540960215024763,-10.253514908246196,-0.04525699592101013,-0.3047208938981716,-0.19509775722320094,6.144231
2025-11-23T06:30:36.153846,-0.05592713450924428,0.21705310306590891,-10.256696211991086,-0.03866945896037444,-0.30720863917405045,-0.19006596344875878,6.153846
2025-11-23T06:30:36.163462,-0.051770566478134245,0.21856723324807312,-10.259765836979092,-0.032076574205326995,-0.3093479930146262,-0.18483071157156253,6.163462
2025-11-23T06:30:36.173077,-0.0474198582365379,0.2199656100386934,-10.26270964292452,-0.025500274146677226,-0.31115745258396577,-0.17942754614626366,6.173077
2025-11-23T06:30:36.182692,-0.042865015610656455,0.22125935937518373,-10.26550632629523,-0.018961824356914663,-0.31265570693745187,-0.17389254972340787,6.182692
2025-11-23T06:30:36.192308,-0.03810347612865627,0.2224565566179612,-10.268128008044421,-0.012480607605922175,-0.3138612265566749,-0.1682618085696636,6.192308
2025-11-23T06:30:36.201923,-0.03314025048073348,0.22356176907183092,-10.270540958252708,-0.006073032253901334,-0.3147917608080353,-0.1625709137171484,6.201923
2025-11-23T06:30:36.211538,-0.027987673706606677,0.22457573553410726,-10.272706450639483,0.0002483486977096801,-0.31546376326391984,-0.15685452841845074,6.211538
2025-11-23T06:30:36.221154,-0.022664796867955413,0.22549520799730646,-10.274581747678512,0.006475428095630359,-0.3158918034090266,-0.15114603629396536,6.221154
2025-11-23T06:30:36.230769,-0.017196475301343026,0.22631297622284227,-10.276121220115362,0.012604779993814033,-0.3160880515969873,-0.14547726639967562,6.230769
2025-11-23T06:30:36.240385,-0.011612229023288564,0.22701809581137375,-10.277277601291482,0.01863750910785712,-0.3160619293671603,-0.13987827273145528,6.240385
2025-11-23T06:30:36.25,-0.005944960607997369,0.22759633789578054,-10.27800336555286,0.024578736940713237,-0.3158199966786819,-0.13437713604307108,6.25
2025-11-23T06:30:36.259615,-0.00022961391740030818,0.22803086657990318,-10.278252200648476,0.030436808144271934,-0.3153661170147009,-0.12899976211340888,6.259615
2025-11-23T06:30:36.269231,0.005498154292449648,0.22830312789881643,-10.277980518639568,0.0362223470189894,-0.31470191814533427,-0.12376966500616572,6.269231
2025-11-23T06:30:36.278846,0.011203232151477751,0.22839390680105157,-10.27714892412397,0.04194730362710346,-0.3138275506014594,-0.11870773203987356,6.278846
2025-11-23T06:30:36.288462,0.01685219440727192,0.2282844842690857,-10.275723541023483,0.04762410007842008,-0.31274272122833036,-0.11383196431814031,6.288462
2025-11-23T06:30:36.298077,0.02241429357250699,0.22795781131832143,-10.27367709632393,0.0532649430915945,-0.3114479305288099,-0.10915718119963326,6.298077
2025-11-23T06:30:36.307692,0.027862277743767917,0.22739961263141686,-10.27098967203648,0.058881332937437816,-0.30994577641448734,-0.1046946799500241,6.307692
2025-11-23T06:30:36.317308,0.033173025127950735,0.22659933897446047,-10.26764906524897,0.06448377702813755,-0.30824213690174046,-0.100451855329972,6.317308
2025-11-23T06:30:36.326923,0.0383279980166312,0.22555090030884759,-10.263650739876535,0.0700817010914655,-0.3063470463225137,-0.0964318007239186,6.326923
2025-11-23T06:30:36.336538,0.043313529111288315,0.2242531281586504,-10.258997403187005,0.07568353036112022,-0.30427513859568245,-0.09263292484759708,6.336538
2025-11-23T06:30:36.346154,0.04812095499478366,0.22270993955391552,-10.253698279547798,0.08129687970265716,-0.3020456175892283,-0.08904862608221399,6.346154
2025-11-23T06:30:36.355769,0.0527466010512121,0.22093020631115792,-10.247768175416615,0.08692875666441895,-0.2996817924535557,-0.08566707263581601,6.355769
2025-11-23T06:30:36.365385,0.05719160524018602,0.21892736159823706,-10.241226437229278,0.0925856748791791,-0.2972102633155995,-0.08247113658326578,6.365385
2025-11-23T06:30:36.375,0.061461559655244635,0.21671878762726293,-10.23409590297714,0.09827361263645149,-0.2946598548354,-0.07943851662020139,6.375
2025-11-23T06:30:36.384615,0.0655659602764224,0.21432502366376477,-10.22640193918144,0.10399781321091815,-0.2920603797617996,-0.0765420617129189,6.384615
2025-11-23T06:30:36.394231,0.06951748479530996,0.2117688256490307,-10.21817163435835,0.10976247520744033,-0.28944128597063956,-0.07375028923923577,6.394231
2025-11-23T06:30:36.403846,0.07333115200981152,0.20907411107745927,-10.20943318767895,0.11557040404036509,-0.2868302124533694,-0.07102808624572882,6.403846
2025-11-23T06:30:36.413462,0.07702343935066494,0.20626483383907096,-10.200215495319839,0.12142269308692694,-0.28425146717129385,-0.06833758792814418,6.413462
2025-11-23T06:30:36.423077,0.08061144028952376,0.2033638391689902,-10.19054790895403,0.1273184858976064,-0.2817244548564696,-0.06563923100117308,6.423077
2025-11-23T06:30:36.432692,0.08411212981964195,0.20039174204456853,-10.180460127876428,0.1332548442056884,-0.2792621210286926,-0.06289296874568163,6.432692
2025-11-23T06:30:36.442308,0.08754177733631406,0.19736586479932616,-10.169982186975234,0.13922671177639365,-0.27686951650603936,-0.060059606322821715,6.442308
2025-11-23T06:30:36.451923,0.09091551119645797,0.1942992756441191,-10.159144508704873,0.14522692953422406,-0.27454260242180584,-0.057102181464949484,6.451923
2025-11-23T06:30:36.461538,0.094247009472229,0.19119998773249425,-10.147977985856775,0.15124623992209468,-0.2722674046424139,-0.05398729686298403,6.461538
2025-11-23T06:30:36.471154,0.09754827278312397,0.18807039181838067,-10.136514046427909,0.15727323143780464,-0.27001959951456705,-0.05068631797615358,6.471154
2025-11-23T06:30:36.480769,0.10082942726680155,0.18490698852721643,-10.124784633117551,0.16329421318965334,-0.26776458385668145,-0.0471763765100988,6.480769
2025-11-23T06:30:36.490385,0.1040985083430553,0.18170045743000898,-10.112822032022574,0.16929305406843784,-0.26545805705172104,-0.043441148320247557,6.490385
2025-11-23T06:30:36.5,0.10736119037740513,0.17843606236447923,-10.100658521289049,0.1752510520628159,-0.2630471208971183,-0.03947139581737931,6.5
2025-11-23T06:30:36.509615,0.11062045429178986,0.17509435921611535,-10.08832586664982,0.18114690728222005,-0.2604718819258243,-0.03526528103489251,6.509615
2025-11-23T06:30:36.519231,0.11387622124205159,0.17165214642961596,-10.075854736228676,0.1869568593919341,-0.25766752029321716,-0.03082846634048936,6.519231
2025-11-23T06:30:36.528846,0.11712501549742206,0.1680835785220423,-10.063274118440468,0.1926550260886628,-0.25456676756822355,-0.026174018885292406,6.528846
2025-11-23T06:30:36.538462,0.1203597394034234,0.164361355903023,-10.050610802916374,0.1982139551447034,-0.2511027106320407,-0.021322120368096616,6.538462
2025-11-23T06:30:36.548077,0.12356963910524014,0.1604579196860421,-10.037888945784784,0.20360538564910913,-0.24721180604745388,-0.01629956546726009,6.548077
2025-11-23T06:30:36.557692,0.12674051439529602,0.15634661164703936,-10.0251297150857,0.20880120575397146,-0.24283694877647882,-0.011139025809964224,6.557692
2025-11-23T06:30:36.567308,0.1298551904897101,0.15200278619946622,-10.012351010603929,0.21377458719927547,-0.23793040439035265,-0.005878070149735981,6.567308
2025-11-23T06:30:36.576923,0.1328942343812365,0.1474048688609336,-9.999567260931908,0.21850125635708725,-0.23245640248272723,-0.0005579597257034006,6.576923
2025-11-23T06:30:36.586538,0.13583686784025095,0.1425353489107345,-9.986789300031193,0.22296082189486596,-0.22639320704507926,0.004777733724546262,6.586538
2025-11-23T06:30:36.596154,0.13866200277862334,0.13738168545902782,-9.974024314433143,0.22713803830693582,-0.21973452193557155,0.010084620455388963,6.596154
2025-11-23T06:30:36.605769,0.14134930638800156,0.13193709894734804,-9.961275844110201,0.23102386702097025,-0.21249014326313517,0.015319019407939026,6.605769
2025-11-23T06:30:36.615385,0.1438802028479675,0.12620120799153514,-9.948543825941373,0.23461620715754564,-0.20468581689036078,0.020439443473010948,6.615385
2025-11-23T06:30:36.625,0.14623873948875044,0.12018045433782354,-9.935824687011351,0.23792019619002375,-0.19636229203317754,0.02540797923491316,6.625
2025-11-23T06:30:36.634615,0.1484122778101788,0.11388824741413059,-9.92311151363646,0.24094802246925365,-0.18757360113381047,0.030191513806444643,6.634615
2025-11-23T06:30:36.644231,0.1503919970729771,0.10734476660550926,-9.910394327722516,0.2437182453888615,-0.1783846634548782,0.03476277309092457,6.644231
2025-11-23T06:30:36.653846,0.15217321233631284,0.1005763889353864,-9.897660492733062,0.24625467149229688,-0.16886839291476102,0.03910113774765819,6.653846
2025-11-23T06:30:36.663462,0.15375551394409656,0.09361475673102218,-9.884895258163086,0.24858486899780285,-0.15910255043718333,0.04319319790397381,6.663462
2025-11-23T06:30:36.673077,0.15514273816921897,0.08649554776573593,-9.872082442427939,0.25073842041147076,-0.14916659106695818,0.047033001273667274,6.673077
2025-11-23T06:30:36.682692,0.1563427808059978,0.07925704293527054,-9.85920524567376,0.2527450289154894,-0.13913872074873762,0.050621948734681135,6.682692
2025-11-23T06:30:36.692308,0.15736726577132668,0.0719386010571505,-9.846247173061736,0.2546326104781019,-0.12909331463882082,0.05396830264019686,6.692308
2025-11-23T06:30:36.701923,0.1582310785373188,0.06457915401328294,-9.833193040618367,0.2564255020086111,-0.11909877320711894,0.05708629952565338,6.701923
2025-11-23T06:30:36.711538,0.1589517713264613,0.057215829890906074,-9.820030028595655,0.25814288890382914,-0.10921582508154831,0.059994899387843935,6.711538
2025-11-23T06:30:36.721154,0.15954884896900787,0.04988279175897704,-9.80674873191825,0.25979752248895355,-0.09949625559955096,0.06271625066515996,6.721154
2025-11-23T06:30:36.730769,0.16004295465607393,0.042610346233180475,-9.793344135575142,0.2613947813579162,-0.08998205760190478,0.06527398928600911,6.730769
2025-11-23T06:30:36.740385,0.1604549878677006,0.03542434102961198,-9.779816430176608,0.2629321280791627,-0.08070503616359664,0.06769150887101794,6.740385
2025-11-23T06:30:36.75,0.16080519390359158,0.02834584546037205,-9.766171587958244,0.2643990031666904,-0.07168690538087287,0.06999033632106043,6.75
2025-11-23T06:30:36.759615,0.16111226483258168,0.021391092262018553,-9.752421638401932,0.2657771673399931,-0.06293987725843207,0.07218873003998488,6.759615
2025-11-23T06:30:36.769231,0.1613924890176301,0.014571646604542028,-9.738584612046756,0.26704145787667777,-0.05446768679028778,0.07430058855043445,6.769231
2025-11-23T06:30:36.778846,0.16165898159265113,0.007894755614537086,-9.72468416115732,0.268160887380483,-0.04626695591431142,0.0763347123611843,6.778846
2025-11-23T06:30:36.788462,0.16192102268419972,0.0013638220022778422,-9.710748910210393,0.2691000011022133,-0.03832877623736788,0.07829441238500341,6.788462
2025-11-23T06:30:36.798077,0.16218352900819544,-0.005021058440152302,-9.696811623108317,0.2698204189151514,-0.03064037343337697,0.08017742980399731,6.798077
2025-11-23T06:30:36.807692,0.16244669060121636,-0.011262552762277982,-9.682908285661728,0.2702824996694403,-0.023186706673480464,0.08197613954591876,6.807692
2025-11-23T06:30:36.817308,0.1627058121884924,-0.017365587991664377,-9.669077188480134,0.2704470625968983,-0.015951870328682543,0.08367803605386548,6.817308
2025-11-23T06:30:36.826923,0.16295139722325708,-0.02333692284436972,-9.655358061864877,0.2702770873404209,-0.008920203845584186,0.08526651515308219,6.826923
2025-11-23T06:30:36.836538,0.1631694953130384,-0.02918481232044972,-9.64179127080865,0.26973930821717756,-0.0020770572869681326,0.08672195551452563,6.836538
2025-11-23T06:30:36.846154,0.1633423050886161,-0.03491877214022085,-9.628417038962743,0.26880562833511684,0.004590814892909526,0.08802307458337606,6.846154
2025-11-23T06:30:36.855769,0.16344899707867305,-0.04054944187155184,-9.61527465020729,0.26745429937757786,0.01109524507978637,0.08914849661652659,6.855769
2025-11-23T06:30:36.865385,0.163466702606229,-0.04608853561152045,-9.602401583711952,0.2656708317812033,0.017447015218448818,0.0900784295944107,6.865385
2025-11-23T06:30:36.875,0.16337160200731285,-0.05154885354481642,-9.589832568768104,0.2634486104521719,0.023656523998661395,0.09079631313030126,6.875
2025-11-23T06:30:36.884615,0.1631400345082616,-0.05694430923383163,-9.577598584907726,0.26078919454696686,0.029734626020091887,0.09129028638469523,6.884615
2025-11-23T06:30:36.894231,0.16274954704865358,-0.062289913657945305,-9.565725867931922,0.25770228252489097,0.03569346716215263,0.09155433811374135,6.894231
2025-11-23T06:30:36.903846,0.1621798061664128,-0.06760165596455008,-9.554235006064642,0.2542053314349313,0.04154714313933921,0.0915890310305635,6.903846
2025-11-23T06:30:36.913462,0.1614133147586601,-0.07289623638668122,-9.543140215369066,0.25032283828886515,0.04731205458379497,0.09140173273713327,6.913462
2025-11-23T06:30:36.923077,0.16043589914521397,-0.07819063392160612,-9.532448865554802,0.24608532451005233,0.053006902400111244,0.0910063353068962,6.923077
2025-11-23T06:30:36.932692,0.15923695791648243,-0.08350151937484027,-9.52216129461059,0.24152810303360328,0.058652338689217556,0.09042249892486762,6.932692
2025-11-23T06:30:36.942308,0.1578094891994157,-0.08884454574373321,-9.512270918879826,0.2366899357547295,0.06427034196678807,0.08967449919231378,6.942308
2025-11-23T06:30:36.951923,0.15614993256708878,-0.09423356289206317,-9.502764622284671,0.23161169651189037,0.06988341135209342,0.08878978419912435,6.951923
2025-11-23T06:30:36.961538,0.15425787270184405,-0.09967981596569148,-9.493623394337153,0.226335138697612,0.07551367668611565,0.0877973539257484,6.961538
2025-11-23T06:30:36.971154,0.15213565437046442,-0.10519119761367052,-9.484823181895457,0.2209018316657592,0.08118201193729348,0.08672606636637958,6.971154
2025-11-23T06:30:36.980769,0.14978795360847372,-0.11077162823680037,-9.476335924852094,0.21535229046379922,0.08690722779976527,0.08560296797645373,6.980769
2025-11-23T06:30:36.990385,0.1472213390412625,-0.11642063277699011,-9.468130754952524,0.20972529100963888,0.09270540610362159,0.0844517517574584,6.990385
2025-11-23T06:30:37,0.14444384370812796,-0.1221331683583885,-9.460175336972885,0.2040573410440691,0.09858941730594403,0.0832914512484629,7.0
2025-11-23T06:30:37.009615,0.14146455892727958,-0.1278997343899707,-9.452437313671966,0.1983822708147882,0.10456863436229913,0.08213545986526499,7.009615
2025-11-23T06:30:37.019231,0.13829326148884302,-0.1337067622161179,-9.444885787977624,0.19273092003806316,0.11064883063819612,0.08099092208889948,7.019231
2025-11-23T06:30:37.028846,0.134940089890085,-0.13953723802367082,-9.437492758861552,0.18713091692960665,0.11683223014630591,0.07985850052671967,7.028846
2025-11-23T06:30:37.038462,0.13141528740444844,-0.14537147427029487,-9.430234434935736,0.1816065504654271,0.12311766755066643,0.07873250278275666,7.038462
2025-11-23T06:30:37.048077,0.1277290255976206,-0.15118792594182076,-9.423092374949318,0.1761787239524546,0.12950082195530907,0.07760135315167731,7.048077
2025-11-23T06:30:37.057692,0.12389131325576241,-0.15696395352028764,-9.416054430031664,0.17086496131972653,0.13597451269407498,0.0764483957377529,7.057692
2025-11-23T06:30:37.067308,0.11991198719278046,-0.1626764604575631,-9.409115477990428,0.16567943078850236,0.1425290630514593,0.07525299744288737,7.067308
2025-11-23T06:30:37.076923,0.1158007741606385,-0.16830236949677094,-9.402277940417077,0.16063295401838273,0.14915272143595154,0.07399187967207005,7.076923
2025-11-23T06:30:37.086538,0.11156740382811049,-0.17381893713607183,-9.395552055219433,0.15573297892557378,0.15583208205810578,0.07264056489113979,7.086538
2025-11-23T06:30:37.096154,0.10722174066526796,-0.1792039296455687,-9.38895585033148,0.15098350990332154,0.16255240333782045,0.07117480261265165,7.096154
2025-11-23T06:30:37.105769,0.10277389352692823,-0.18443569638030405,-9.382514756568881,0.14638500389638098,0.169297717119586,0.06957185246136359,7.105769
2025-11-23T06:30:37.115385,0.09823426423601096,-0.1894931834334231,-9.376260826619424,0.14193424340599683,0.17605066397008956,0.06781154253277061,7.115385
2025-11-23T06:30:37.125,0.09361351336515662,-0.19435593928979078,-9.370231579404994,0.13762418576398375,0.18279205939125887,0.06587706556007987,7.125
2025-11-23T06:30:37.134615,0.08892244659852627,-0.19900417098440795,-9.364468538593863,0.1334437745854787,0.1895002596083333,0.06375550167970992,7.134615
2025-11-23T06:30:37.144231,0.08417184777172405,-0.20341890390264245,-9.359015567195675,0.12937769863364845,0.19615043008013375,0.06143806238585304,7.144231
2025-11-23T06:30:37.153846,0.07937229607871259,-0.2075822745755282,-9.353917117170258,0.12540609953497128,0.20271382723801104,0.05892005153929654,7.153846
2025-11-23T06:30:37.163462,0.07453400277223289,-0.21147794825503086,-9.34921651835894,0.12150425915589354,0.20915720442482327,0.0562005537860303,7.163462
2025-11-23T06:30:37.173077,0.06966669254510263,-0.21509161440634228,-9.34495442358216,0.11764233326360109,0.21544245852988272,0.05328189186849282,7.173077
2025-11-23T06:30:37.182692,0.06477954420136658,-0.2184114875073246,-9.341167499307646,0.11378523020807958,0.2215266335326063,0.05016892861429257,7.182692
2025-11-23T06:30:37.192308,0.05988119603621248,-0.2214287352249732,-9.337887405533486,0.1098927483759126,0.22736236879156238,0.04686830929244424,7.192308
2025-11-23T06:30:37.201923,0.054979810982827865,-0.22413776866256271,-9.33514006245596,0.10592007319917561,0.23289881393931833,0.04338773933951121,7.201923
2025-11-23T06:30:37.211538,0.05008318490250241,-0.22653635308746978,-9.332945175181473,0.10181869444873365,0.2380829464317343,0.03973537713404969,7.211538
2025-11-23T06:30:37.221154,0.04519887140372843,-0.22862552757041862,-9.331315985658328,0.09753774959226848,0.24286115677462852,0.03591939901978009,7.221154
2025-11-23T06:30:37.230769,0.040334290448612274,-0.23040935302452287,-9.3302592311736,0.09302574042820408,0.2471809373113906,0.031947769307623046,7.230769
2025-11-23T06:30:37.240385,0.03549678665254008,-0.2318945320263465,-9.32977529785701,0.08823251532088462,0.2509925289254568,0.027828224944108238,7.240385
2025-11-23T06:30:37.25,0.03069360810648109,-0.23308995501689544,-9.329858562660341,0.08311136977304052,0.2542504314100748,0.023568460920896726,7.25
2025-11-23T06:30:37.259615,0.025931789000172973,-0.23400622681828626,-9.330497918596748,0.0776211061031468,0.2569147409315076,0.019176474304775693,7.259615
2025-11-23T06:30:37.269231,0.02121793855942595,-0.23465521842480014,-9.331677470936983,0.07172790915458964,0.2589523173379693,0.014660996071226933,7.269231
2025-11-23T06:30:37.278846,0.016557960329681078,-0.2350496742667601,-9.333377376895877,0.06540693029892933,0.2603377948437904,0.010031922200392958,7.278846
2025-11-23T06:30:37.288462,0.011956740303352224,-0.2352028856404898,-9.335574789884776,0.0586435181028672,0.26105443860529276,0.005300658894607938,7.288462
2025-11-23T06:30:37.298077,0.007417841424166286,-0.235128418730436,-9.338244868734455,0.05143408016161762,0.26109483319577476,0.00048032421248000843,7.298077
2025-11-23T06:30:37.307692,0.002943227576190533,-0.23483986639609714,-9.341361814255329,0.04378659123391586,0.26046137875345554,-0.004414209054711812,7.307692
2025-11-23T06:30:37.317308,-0.0014669756003886645,-0.23435058499125386,-9.344899889954913,0.035720771421144645,0.25916656560169055,-0.00936640554001048,7.317308
2025-11-23T06:30:37.326923,-0.005814681234635985,-0.23367338752155073,-9.348834371244713,0.02726795386734658,0.2572329932754101,-0.014358250805038882,7.326923
2025-11-23T06:30:37.336538,-0.010103995065132787,-0.23282019334547968,-9.353142357033942,0.01847065347780689,0.2546930978896501,-0.019370483832239865,7.336538
2025-11-23T06:30:37.346154,-0.014341305017139875,-0.23180167264887347,-9.357803380068537,0.009381837637201535,0.25158856089322046,-0.02438285228336812,7.346154
2025-11-23T06:30:37.355769,-0.018535283967839985,-0.23062695002894143,-9.362799774007762,6.389341506350439e-05,0.2479693951925888,-0.029374387678251398,7.355769
2025-11-23T06:30:37.365385,-0.02269678220746069,-0.22930342734279016,-9.368116791425413,-0.009412704274605712,0.24389273358904326,-0.034323720815945806,7.365385
2025-11-23T06:30:37.375,-0.026838585780838666,-0.22783675298854575,-9.373742503116008,-0.018970995857977794,0.23942136667871858,-0.039209471202618855,7.375
