Timestamp,Acceleration_X,Acceleration_Y,Acceleration_Z,Gyro_X,Gyro_Y,Gyro_Z,time_s
2025-11-22T17:45:00,0.06027896896829218,0.2129670387904371,-10.372844220608386,0.0544955622839117,-0.28365851382522095,0.010937219646719723,0.0
2025-11-22T17:45:00.009615,0.06274792913323086,0.21964605848797616,-10.358377465125097,0.0609559419768053,-0.2811953991290289,0.013525355821611474,0.009615
2025-11-22T17:45:00.019231,0.06519057498215998,0.22611691699317157,-10.344059805822862,0.0670719774348771,-0.2786007652751317,0.016191154426911946,0.019231
2025-11-22T17:45:00.028846,0.06763797419649398,0.23228296131744391,-10.329971959398952,0.07286824976332726,-0.27590877788792856,0.018932936560483796,0.028846
2025-11-22T17:45:00.038462,0.07012053068357312,0.23805049086980581,-10.316183369128757,0.0783730932239645,-0.27314882594915973,0.02175263186363804,0.038462
2025-11-22T17:45:00.048077,0.07266683281117416,0.2433312164267437,-10.302750318479546,0.08361727688736667,-0.27034425310369237,0.02465601268053441,0.048077
2025-11-22T17:45:00.057692,0.07530259462278921,0.24804442425503967,-10.289714535325599,0.08863255634362602,-0.2675113850456069,0.027652655207788167,0.057692
2025-11-22T17:45:00.067308,0.07804971553461772,0.2521188018752112,-10.277102318535068,0.09345017262685308,-0.26465889439071094,0.030755596991079357,0.067308
2025-11-22T17:45:00.076923,0.08092548108990232,0.2554939253511665,-10.264924189330323,0.09809940667530279,-0.26178751405503253,0.03398068358153086,0.076923
2025-11-22T17:45:00.086538,0.08394192785140474,0.25812142954897205,-10.253175050231617,0.10260630334321375,-0.2588900804325938,0.037345626686432855,0.086538
2025-11-22T17:45:00.096154,0.08710539682441702,0.25996588521522374,-10.241834822202508,0.10699266519142746,-0.25595186786650825,0.04086882327069642,0.096154
2025-11-22T17:45:00.105769,0.09041629932736031,0.2610054016570428,-10.230869522624756,0.11127539009051857,-0.25295116902007186,0.044568006312284504,0.105769
2025-11-22T17:45:00.115385,0.09386911512878829,0.26123196845377505,-10.220232737917854,0.11546619428949279,-0.24986007969621554,0.04845881536173512,0.115385
2025-11-22T17:45:00.125,0.09745263400999067,0.260651540688771,-10.20986743119349,0.11957172481747426,-0.24664545632068036,0.052553388658155745,0.125
2025-11-22T17:45:00.134615,0.1011504378818039,0.2592838569974217,-10.199708008525002,0.12359401956556251,-0.24327002238827972,0.05685908186246996,0.134615
2025-11-22T17:45:00.144231,0.10494160120528954,0.2571619649580263,-10.189682554268325,0.12753123056268179,-0.23969359821159997,0.06137740608774267,0.144231
2025-11-22T17:45:00.153846,0.10880156584279647,0.25433142321545454,-10.179715144446272,0.13137851167548473,-0.23587441413665833,0.0661032536913069,0.153846
2025-11-22T17:45:00.163462,0.11270312846911491,0.25084915684102405,-10.169728157763544,0.13512900099218592,-0.23177045298991725,0.07102445390243822,0.163462
2025-11-22T17:45:00.173077,0.11661746937109627,0.2467819581290114,-10.159644518650236,0.13877487867359026,-0.22734076920245866,0.07612167944219306,0.173077
2025-11-22T17:45:00.182692,0.12051515300263006,0.24220464489657753,-10.149389821258389,0.14230850821635863,-0.2225467513031277,0.08136871084095777,0.182692
2025-11-22T17:45:00.192308,0.12436704266216583,0.23719791108064808,-10.138894299075242,0.14572365052919625,-0.21735331824237228,0.08673304961157248,0.192308
2025-11-22T17:45:00.201923,0.12814509108210312,0.23184593093593117,-10.12809461956861,0.1490166987815946,-0.21173005702795214,0.09217684582059653,0.201923
2025-11-22T17:45:00.211538,0.13182299079325818,0.22623380621844713,-10.11693548909097,0.15218785225222092,-0.20565231608224438,0.09765807355683459,0.211538
2025-11-22T17:45:00.221154,0.1353766886390695,0.22044496790469043,-10.105371046246274,0.15524213513829166,-0.19910226658539568,0.10313186636720774,0.221154
2025-11-22T17:45:00.230769,0.1387847836089192,0.21455865368680505,-10.093366006776769,0.1581901598218439,-0.19206993579176398,0.10855192735734469,0.230769
2025-11-22T17:45:00.240385,0.14202883208512715,0.20864757849008392,-10.080896508405514,0.1610485377125317,-0.1845542005887611,0.1138719517359509,0.240385
2025-11-22T17:45:00.25,0.14509357899811337,0.20277589907280075,-10.06795059827125,0.16383986841183348,-0.17656370024414117,0.11904702645166558,0.25
2025-11-22T17:45:00.259615,0.14796712152186448,0.19699754891532228,-10.054528314423282,0.1665922843302197,-0.16811758879034705,0.12403498679813618,0.259615
2025-11-22T17:45:00.269231,0.15064100087731835,0.1913549921841149,-10.040641336293696,0.16933857182568848,-0.15924601842086825,0.1287977101330662,0.269231
2025-11-22T17:45:00.278846,0.15311021465347968,0.18587842085401876,-10.02631221051322,0.17211492075831542,-0.14999023809738277,0.13330231834616504,0.278846
2025-11-22T17:45:00.288462,0.15537315018570608,0.1805854010464003,-10.011573191555081,0.17495937765651498,-0.14040220506413592,0.13752224797467322,0.288462
2025-11-22T17:45:00.298077,0.15743145446278867,0.17548096583735856,-9.99646477050285,0.177910098592468,-0.13054363993078444,0.14143813182425408,0.298077
2025-11-22T17:45:00.307692,0.15928986567409603,0.17055814719751128,-9.981033994582216,0.18100351112510787,-0.12048450897981362,0.14503842730437652,0.307692
2025-11-22T17:45:00.317308,0.1609560254204297,0.16579892829570622,-9.965332688679156,0.1842724925893346,-0.11030098082749462,0.14831973675024487,0.317308
2025-11-22T17:45:00.326923,0.1624402713719621,0.16117557509402622,-9.949415668964624,0.1877446572942092,-0.10007296064279728,0.15128679298497794,0.326923
2025-11-22T17:45:00.336538,0.16375539175860593,0.15665228016548277,-9.93333900498567,0.1914408308067894,-0.0898813420205407,0.15395211384244956,0.336538
2025-11-22T17:45:00.346154,0.16491631826380224,0.15218703180755133,-9.917158368050984,0.1953737833814351,-0.07980513333776508,0.15633535083770014,0.346154
2025-11-22T17:45:00.355769,0.16593974546447654,0.14773361296360799,-9.900927510915796,0.19954728835485924,-0.06991861581821798,0.15846237154996315,0.355769
2025-11-22T17:45:00.365385,0.16684368476999478,0.14324363591301634,-9.88469694244767,0.20395554787356313,-0.060288680485382364,0.1603641281524518,0.365385
2025-11-22T17:45:00.375,0.16764697462958575,0.13866852525855294,-9.868512866718808,0.2085829820318637,-0.05097247655346718,0.1620753766731794,0.375
2025-11-22T17:45:00.384615,0.16836876793988426,0.13396137031822694,-9.852416436356279,0.21340432805934037,-0.04201548340843924,0.16363332060380656,0.384615
2025-11-22T17:45:00.394231,0.16902800769109397,0.1290785784377331,-9.836443335218869,0.21838497680656768,-0.03345008603222348,0.16507625427072173,0.394231
2025-11-22T17:45:00.403846,0.16964289559277101,0.12398127348157831,-9.820623674306335,0.22348149949796497,-0.025294693086727688,0.16644227057574074,0.403846
2025-11-22T17:45:00.413462,0.1702303606493201,0.11863640039643926,-9.80498216408571,0.2286423684118434,-0.017553405325630836,0.1677680747675781,0.413462
2025-11-22T17:45:00.423077,0.1708055395802878,0.11301751847061794,-9.789538510890495,0.2338089098762897,-0.010216232968719001,0.16908792290984345,0.423077
2025-11-22T17:45:00.432692,0.1713812813333908,0.10710528825754585,-9.7743079705831,0.23891651672194184,-0.003259865765897589,0.17043269461632224,0.432692
2025-11-22T17:45:00.442308,0.17196768330844212,0.10088767226188336,-9.759301982337938,0.243896096866116,0.0033510037113560604,0.17182911497142514,0.442308
2025-11-22T17:45:00.451923,0.17257166407366145,0.09435987607469966,-9.744528805119357,0.24867568246245295,0.009661827879037372,0.1732991491079655,0.451923
2025-11-22T17:45:00.461538,0.17319658238821783,0.08752406062072934,-9.729994090305555,0.253182102282414,0.0157258906796901,0.17485959603970969,0.461538
2025-11-22T17:45:00.471154,0.1738419214726202,0.08038886235282407,-9.715701339701466,0.2573426320648404,0.021601650090327138,0.17652190359813244,0.471154
2025-11-22T17:45:00.480769,0.17450306035140084,0.0729687670960059,-9.701652211981342,0.2610865680857478,0.027349892830988178,0.17829221070633708,0.480769
2025-11-22T17:45:00.490385,0.17517114769312367,0.06528339301467694,-9.687846652343403,0.26434670438536717,0.03303087012548156,0.18017159725264772,0.490385
2025-11-22T17:45:00.5,0.17583308561410557,0.05735674464177951,-9.674282836816095,0.2670607276064737,0.038701569261446876,0.18215649805262618,0.5
2025-11-22T17:45:00.509615,0.17647162827841137,0.04921649632857533,-9.660956952119733,0.26917256880760415,0.044413251434882964,0.1842392296081183,0.509615
2025-11-22T17:45:00.519231,0.17706560213647027,0.04089334565618418,-9.647862871598315,0.27063375809706636,0.05020936647091899,0.18640858430901389,0.519231
2025-11-22T17:45:00.528846,0.17759025757163158,0.032420451031358405,-9.634991819188457,0.27140480674058676,0.056123938461149644,0.1886504526326762,0.528846
2025-11-22T17:45:00.538462,0.17801776161305302,0.02383294663244774,-9.622332119613565,0.2714565940587771,0.06218049312163991,0.1909484331813732,0.538462
2025-11-22T17:45:00.548077,0.17831783498994058,0.015167520339680931,-9.609869116964243,0.27077167818276016,0.06839156284793417,0.19328439051493893,0.548077
2025-11-22T17:45:00.557692,0.17845852588163552,0.006462041265119226,-9.597585320324768,0.2693454060545706,0.07475876786379115,0.19563893165504548,0.557692
2025-11-22T17:45:00.567308,0.1784071022738088,-0.0022447769232851354,-9.585460811819523,0.26718668978269056,0.08127344625993406,0.19799179160585959,0.567308
2025-11-22T17:45:00.576923,0.1781310358783705,-0.010913696289883175,-9.573473927629712,0.26431834404810894,0.08791779112689747,0.20032213476222194,0.576923
2025-11-22T17:45:00.586538,0.17759904195774395,-0.01950528538536181,-9.561602193690184,0.26077692556807514,0.09466643077055155,0.2026087879646358,0.586538
2025-11-22T17:45:00.596154,0.17678213482602315,-0.02798029150704043,-9.549823467525824,0.25661206108658224,0.10148835007759265,0.20483042650255207,0.596154
2025-11-22T17:45:00.605769,0.17565466330637497,-0.03630008448298684,-9.53811721305273,0.25188528248282593,0.10834901561287814,0.2069657377516767,0.605769
2025-11-22T17:45:00.615385,0.17419530090942928,-0.044427198050884076,-9.526465822623148,0.2466684048564789,0.11521255839741246,0.20899358346339256,0.615385
2025-11-22T17:45:00.625,0.17238797159531427,-0.052325988666402916,-9.514855900797139,0.2410414942285301,0.12204389140553903,0.21089316867816535,0.625
2025-11-22T17:45:00.634615,0.1702226865449413,-0.05996341633000703,-9.50327943017496,0.23509048558962428,0.1288106756321004,0.21264420995311445,0.634615
2025-11-22T17:45:00.644231,0.16769625285731027,-0.06730992170975568,-9.491734742837037,0.22890453414343706,0.13548507617738736,0.21422709141336232,0.644231
2025-11-22T17:45:00.653846,0.16481280089283176,-0.07434033713561007,-9.48022722290894,0.22257320904762598,0.14204526019751812,0.21562300917223812,0.653846
2025-11-22T17:45:00.663462,0.16158407250398557,-0.08103474626556881,-9.468769676300768,0.2161836554587032,0.14847659007692546,0.21681412213261395,0.663462
2025-11-22T17:45:00.673077,0.15802942074881976,-0.08737920980509611,-9.457382328000044,0.20981784474500834,0.15477246758991312,0.2177837369553004,0.673077
2025-11-22T17:45:00.682692,0.1541754890560148,-0.09336629331022492,-9.446092440304103,0.20355001220050462,0.1609347903686043,0.21851655439685574,0.682692
2025-11-22T17:45:00.692308,0.1500555587887429,-0.09899535064063655,-9.434933577809296,0.19744436801436233,0.16697398859227994,0.2189989960377895,0.692308
2025-11-22T17:45:00.701923,0.145708575412375,-0.10427252782957666,-9.42394457003028,0.19155316986560234,0.17290861440879818,0.21921961741339707,0.701923
2025-11-22T17:45:00.711538,0.1411778842169362,-0.10921046461584702,-9.413168237468694,0.1859152510597419,0.17876445708383445,0.2191695989672085,0.711538
2025-11-22T17:45:00.721154,0.1365097279655991,-0.11382769125369929,-9.402649954014965,0.18055508809174445,0.1845731598640485,0.21884329054546323,0.721154
2025-11-22T17:45:00.730769,0.13175157925404246,-0.1181477446938515,-9.392436124795603,0.17548246428685566,0.19037033761464975,0.21823876686886565,0.730769
2025-11-22T17:45:00.740385,0.12695039242867734,-0.12219805338103155,-9.382572669522554,0.17069275398708555,0.19619324858312012,0.2173583341951553,0.740385
2025-11-22T17:45:00.75,0.12215085963613191,-0.12600865732724661,-9.373103612765757,0.16616781969101693,0.20207814752229694,0.2162089184532126,0.75
2025-11-22T17:45:00.759615,0.11739374927742093,-0.12961084097940914,-9.364069880934345,0.16187747734501332,0.2080575140638824,0.21480226377432093,0.759615
2025-11-22T17:45:00.769231,0.1127143996891563,-0.13303576734585068,-9.355508380743132,0.15778144194162116,0.21415738427672376,0.2131548779854451,0.769231
2025-11-22T17:45:00.778846,0.1081414340138369,-0.1363132133977441,-9.34745139073967,0.15383162545492418,0.22039500263369188,0.2112876824412422,0.778846
2025-11-22T17:45:00.788462,0.10369574987786756,-0.13947050784359324,-9.339926254550974,0.14997463327586655,0.22677696651300852,0.2092253572564074,0.788462
2025-11-22T17:45:00.798077,0.09938982332077347,-0.14253175004196736,-9.332955337260838,0.1461543009594409,0.23329798214441633,0.20699540914443987,0.798077
2025-11-22T17:45:00.807692,0.09522735624782176,-0.14551734395502924,-9.326556195890422,0.1423141262097485,0.2399403065040958,0.20462701550242987,0.807692
2025-11-22T17:45:00.817308,0.09120328838716975,-0.14844383229013788,-9.320741912493997,0.13839946792517935,0.24667390976936693,0.20214971167339144,0.817308
2025-11-22T17:45:00.826923,0.08730418119534432,-0.15132398267332522,-9.315521535284178,0.1343594005205668,0.25345734850812557,0.19959199532209174,0.826923
2025-11-22T17:45:00.836538,0.08350896152977462,-0.15416706050863432,-9.310900567811016,0.13014814034389546,0.26023929210831953,0.19697993094432753,0.836538
2025-11-22T17:45:00.846154,0.07978999393098758,-0.1569792101940299,-9.306881443321595,0.12572601048206689,0.2669605977508406,0.19433584692746053,0.846154
2025-11-22T17:45:00.855769,0.07611443578662519,-0.15976385515871638,-9.303463924497585,0.12105997135350317,0.2735567814362141,0.1916772159456355,0.855769
2025-11-22T17:45:00.865385,0.0724458156929199,-0.16252202837257793,-9.30064537556931,0.11612379920694764,0.27996069157729264,0.1890157903405875,0.865385
2025-11-22T17:45:00.875,0.06874575930099766,-0.16525256619472356,-9.298420863284166,0.11089802368019148,0.286105178281301,0.18635703492892472,0.875
2025-11-22T17:45:00.884615,0.0649757732713491,-0.1679521365014503,-9.296783061422346,0.10536972634182955,0.2919255785388656,0.18369987360541856,0.884615
2025-11-22T17:45:00.894231,0.06109899159534112,-0.1706151187627628,-9.295721966395531,0.09953226573141406,0.29736189423422843,0.18103674915930745,0.894231
2025-11-22T17:45:00.903846,0.057081788911279664,-0.17323339948497546,-9.295224475249325,0.09338496196688803,0.30236060240321905,0.1783539835324402,0.903846
2025-11-22T17:45:00.913462,0.05289517159466336,-0.1757961786691012,-9.295273919359808,0.08693276394750757,0.30687608644438846,0.17563241151754339,0.913462
2025-11-22T17:45:00.923077,0.0485158728117701,-0.17828988897180295,-9.295849670621797,0.08018592277825483,0.3108717043438841,0.17284824482622665,0.923077
2025-11-22T17:45:00.932692,0.04392710485218861,-0.18069830502181466,-9.296926929171162,0.07315968702683584,0.31432051486010965,0.1699741122091627,0.932692
2025-11-22T17:45:00.942308,0.03911895656115542,-0.1830028753449962,-9.298476764846495,0.06587401798540439,0.317205672199074,0.16698021934856178,0.942308
2025-11-22T17:45:00.951923,0.03408845732461689,-0.1851832607946979,-9.300466437827971,0.058353306315670476,0.3195204872821311,0.16383557891766348,0.951923
2025-11-22T17:45:00.961538,0.028839355013175513,-0.18721802701668308,-9.302859988613722,0.05062605718309601,0.3212681501742288,0.16050927367452547,0.961538
2025-11-22T17:45:00.971154,0.02338166977823691,-0.18908542387463287,-9.30561907015537,0.04272449798809603,0.32246111690839524,0.1569717287572233,0.971154
2025-11-22T17:45:00.980769,0.017731087508439162,-0.19076419160867034,-9.308703986196742,0.03468406051251661,0.3231201849462927,0.15319597641326763,0.980769
2025-11-22T17:45:00.990385,0.011908248073404572,-0.19223435040476447,-9.312074890224645,0.02654270755230128,0.3232733121553205,0.14915889045214606,0.990385
2025-11-22T17:45:01,0.00593796949729448,-0.19347794296368603,-9.315693090861117,0.018340105277362757,0.32295426316309994,0.14484234498094492,1.0
2025-11-22T17:45:01.009615,-0.0001515643157740135,-0.19447970288967772,-9.319522408336352,0.010116670243398136,0.3222011787270551,0.1402342185911418,1.009615
2025-11-22T17:45:01.019231,-0.006329635779447616,-0.19522761784303497,-9.323530532329283,0.0019125386482114148,0.3210551538837004,0.13532914253526132,1.019231
2025-11-22T17:45:01.028846,-0.012563838867406635,-0.19571334777444677,-9.327690337214234,-0.006233480543760927,0.31955889265543413,0.13012890371949626,1.028846
2025-11-22T17:45:01.038462,-0.01882093749348455,-0.19593244623224218,-9.331981110452526,-0.014284895153944783,0.3177554961521771,0.12464246242143912,1.038462
2025-11-22T17:45:01.048077,-0.02506773755474157,-0.19588432455948687,-9.336389640598009,-0.022208382361073208,0.31568743263568766,0.11888560387048171,1.048077
2025-11-22T17:45:01.057692,-0.031271965563209596,-0.19557190894637044,-9.340911095746035,-0.029974431308334343,0.3133957168985496,0.11288028207422526,1.057692
2025-11-22T17:45:01.067308,-0.03740313430795582,-0.19500097520741855,-9.345549612473397,-0.037557727197232,0.3109192914445244,0.10665372654330862,1.067308
2025-11-22T17:45:01.076923,-0.043433364100102914,-0.19417919681167353,-9.35031852282479,-0.04493726729199402,0.30829456970304925,0.10023738152745741,1.076923
2025-11-22T17:45:01.086538,-0.049338122682740494,-0.19311499151193515,-9.355240175016046,-0.052096244151628696,0.30555508418207183,0.09366574575217373,1.086538
2025-11-22T17:45:01.096154,-0.05509685119595924,-0.19181628679984666,-9.360345342526585,-0.05902177199109941,0.302731177080806,0.08697517820914827,1.096154
2025-11-22T17:45:01.105769,-0.06069345357591801,-0.1902893369905302,-9.365672255394648,-0.06570455644571703,0.2998496668676178,0.0802027265316145,1.105769
2025-11-22T17:45:01.115385,-0.06611663349991026,-0.1885377151735379,-9.371265318359535,-0.07213860725474237,0.2969334194779183,0.07338502069155432,1.115385
2025-11-22T17:45:01.125,-0.0713600641820546,-0.18656157747535526,-9.377173594641492,-0.07832106868459823,0.29400076282733123,0.06655726568692825,1.125
2025-11-22T17:45:01.134615,-0.07642237820842541,-0.18435726271927141,-9.38344912894973,-0.08425220391582201,0.2910647282778985,0.05975236757892107,1.134615
2025-11-22T17:45:01.144231,-0.08130697099047118,-0.18191725290071772,-9.390145167474872,-0.08993552831873942,0.2881321763720474,0.053000232020143104,1.144231
2025-11-22T17:45:01.153846,-0.08602162025085235,-0.17923048123491303,-9.397314321272727,-0.09537805120314112,0.2852029278326702,0.04632727261487199,1.153846
2025-11-22T17:45:01.163462,-0.09057793411416462,-0.17628293878381118,-9.405006722043314,-0.10059056366745156,0.2822690411703775,0.0397561511802598,1.163462
2025-11-22T17:45:01.173077,-0.09499065268147017,-0.17305850531002478,-9.413268230992433,-0.10558790569291349,0.2793143618315786,0.033305745195202706,1.173077
2025-11-22T17:45:01.182692,-0.09927684048639784,-0.16953992008442875,-9.422138769821606,-0.1103891542461856,0.276314442202836,0.026991307795352477,1.182692
2025-11-22T17:45:01.192308,-0.10345501586510747,-0.1657098122113456,-9.431650842739852,-0.11501768538445648,0.273236906419788,0.020824760956413287,1.192308
2025-11-22T17:45:01.201923,-0.10754426535489282,-0.16155172279944377,-9.441828312849436,-0.1195010702954951,0.2700423003387394,0.014815049870196993,1.201923
2025-11-22T17:45:01.211538,-0.11156338589675122,-0.15705106756959689,-9.452685487600302,-0.12387076850223988,0.2666854245823625,0.008968490661228857,1.211538
2025-11-22T17:45:01.221154,-0.11553008644103331,-0.15219600187463878,-9.464226554800716,-0.12816158524970928,0.2631171081077736,0.0032890614226451457,1.221154
2025-11-22T17:45:01.230769,-0.11946026894568047,-0.14697815743019033,-9.476445390226424,-0.13241086911178587,0.2592863457688423,-0.002221393034195578,1.230769
2025-11-22T17:45:01.240385,-0.12336740241270698,-0.14139322540941104,-9.48932572998624,-0.13665744337387156,0.25514269084351104,-0.007563057168238084,1.240385
2025-11-22T17:45:01.25,-0.1272620033756531,-0.13544137071727536,-9.502841671989884,-0.1409402878337465,0.25063876318779643,-0.012738141342304526,1.25
2025-11-22T17:45:01.259615,-0.13115123796779476,-0.12912747821630693,-9.516958451776487,-0.14529700883592764,0.24573271260342897,-0.017750955418387934,1.259615
2025-11-22T17:45:01.269231,-0.13503865847129876,-0.1224612461733632,-9.531633434096626,-0.14976215296034345,0.2403904652297621,-0.02260800553888819,1.269231
2025-11-22T17:45:01.278846,-0.1389240774542689,-0.11545714711515306,-9.546817269368448,-0.15436544088435827,0.23458757810999858,-0.027318040949714937,1.278846
2025-11-22T17:45:01.288462,-0.1428035672977926,-0.10813427214550442,-9.562455175365582,-0.15913002587714065,0.22831054574852264,-0.03189198237154352,1.288462
2025-11-22T17:45:01.298077,-0.14666955926603825,-0.10051606972480755,-9.578488312236525,-0.16407090515296777,0.22155745167506208,-0.03634268731500248,1.298077
2025-11-22T17:45:01.307692,-0.15051101196878106,-0.09262998992690863,-9.59485522039483,-0.16919361553263837,0.2143379270337152,-0.04068453761323902,1.307692
2025-11-22T17:45:01.317308,-0.15431362689577463,-0.08450704861202958,-9.611493288089948,-0.17449332474099344,0.20667244696900272,-0.04493286523078877,1.317308
2025-11-22T17:45:01.326923,-0.15806010352788075,-0.0761813264534772,-9.628340211852745,-0.17995439901298987,0.198591048845607,-0.04910326570449254,1.326923
2025-11-22T17:45:01.336538,-0.1617304383008444,-0.06768941126417959,-9.645335408445272,-0.18555049651068992,0.19013158792443777,-0.05321087827019833,1.336538
2025-11-22T17:45:01.346154,-0.16530227323933078,-0.059069781485258016,-9.662421330573054,-0.19124520087833868,0.18133766126445539,-0.0572697220115637,1.346154
2025-11-22T17:45:01.355769,-0.16875129228880648,-0.050362121530139164,-9.679544633921818,-0.1969931656481166,0.17225633826894562,-0.06129215776624824,1.355769
2025-11-22T17:45:01.365385,-0.17205165397273497,-0.041606561419775145,-9.696657144957832,-0.20274169755757462,0.1629358374973121,-0.06528850208412351,1.365385
2025-11-22T17:45:01.375,-0.17517644674119115,-0.032842843943266316,-9.713716587234329,-0.20843268105621737,0.15342328071810518,-0.06926677126924995,1.375
2025-11-22T17:45:01.384615,-0.17809816070343612,-0.024109438068617237,-9.730687034432203,-0.21400473800296083,0.14376263635017758,-0.07323250293339038,1.384615
2025-11-22T17:45:01.394231,-0.18078917956553472,-0.01544263002803281,-9.74753906807264,-0.2193955075982707,0.13399293933185308,-0.0771886043004585,1.394231
2025-11-22T17:45:01.403846,-0.18322230063000378,-0.00687562676914315,-9.76424962791796,-0.22454391080314562,0.12414685319049816,-0.08113520665027162,1.403846
2025-11-22T17:45:01.413462,-0.1853712874234061,0.0015622983658393956,-9.780801559575265,-0.2293922454455008,0.11424963102042976,-0.0850695415777654,1.413462
2025-11-22T17:45:01.423077,-0.18721145419483304,0.009846590791829443,-9.797182894010174,-0.23388796525982572,0.10431852690867498,-0.08898587433345864,1.423077
2025-11-22T17:45:01.432692,-0.18872027767736405,0.017958096770400313,-9.813385934789695,-0.2379850318593701,0.09436269348873814,-0.0928755266949453,1.432692
2025-11-22T17:45:01.442308,-0.18987802869896653,0.025883595788995045,-9.829406262024968,-0.24164477852373747,0.08438357548888889,-0.09672700470036355,1.442308
2025-11-22T17:45:01.451923,-0.1906684129462367,0.03361613069941238,-9.84524176612272,-0.24483627467128816,0.07437578073197551,-0.10052622097927177,1.451923
2025-11-22T17:45:01.461538,-0.19107920472221815,0.04115509271130544,-9.860891797564737,-0.24753622665853298,0.064328375395902,-0.1042567727657013,1.461538
2025-11-22T17:45:01.471154,-0.19110284971910055,0.04850603950064592,-9.876356479370404,-0.24972849477467984,0.054226505918365746,-0.10790022206004528,1.471154
2025-11-22T17:45:01.480769,-0.19073700632552634,0.055680244234948856,-9.891636195466955,-0.25140334225534966,0.04405320953601574,-0.11143633924985318,1.480769
2025-11-22T17:45:01.490385,-0.18998499343192754,0.06269398171606358,-9.906731246810287,-0.2525565495960076,0.033791260588468076,-0.11484330652443098,1.490385
2025-11-22T17:45:01.5,-0.1888561140450253,0.06956755899798427,-9.921641657724077,-0.2531885216837998,0.023424916533331744,-0.1180979079469528,1.5
2025-11-22T17:45:01.509615,-0.18736582468306934,0.07632410499068525,-9.936367117622357,-0.2533034907378502,0.012941461760120652,-0.12117574708676576,1.509615
2025-11-22T17:45:01.519231,-0.18553572267620932,0.08298815646470972,-9.950907051509876,-0.25290888399644007,0.002332480437449231,-0.12405153654648847,1.519231
2025-11-22T17:45:01.528846,-0.1833933309210608,0.08958411452768787,-9.965260814199734,-0.2520148887194887,-0.00840518462678818,-0.12669950203422312,1.528846
2025-11-22T17:45:01.538462,-0.1809716693386932,0.09613468283879363,-9.979427993523458,-0.25063420980828044,-0.019268804948535383,-0.12909393112541,1.538462
2025-11-22T17:45:01.548077,-0.1783086083040504,0.10265941885186107,-9.99340879278468,-0.24878197809943403,-0.03024945337952506,-0.13120986847710223,1.548077
2025-11-22T17:45:01.557692,-0.17544600217887377,0.1091735209891586,-10.007204448625894,-0.24647573704521047,-0.04133194161758116,-0.1330239252797958,1.557692
2025-11-22T17:45:01.567308,-0.17242860638692634,0.11568694129981817,-10.020817631149605,-0.24373541980613858,-0.05249491196392098,-0.13451514798879402,1.567308
2025-11-22T17:45:01.576923,-0.16930279232810186,0.1222038688570896,-10.034252772329523,-0.24058323080536909,-0.06371099895973728,-0.13566588383225422,1.576923
2025-11-22T17:45:01.586538,-0.16611509139387645,0.12872258641067347,-10.047516274425147,-0.23704336902666956,-0.0749470360728068,-0.13646258204440512,1.586538
2025-11-22T17:45:01.596154,-0.16291062258257305,0.13523566765820702,-10.060616551734356,-0.23314157640911623,-0.08616435219128772,-0.1368964796583703,1.596154
2025-11-22T17:45:01.605769,-0.15973148358000952,0.14173045714406063,-10.073563853364407,-0.22890454873082566,-0.09731923744797889,-0.13696414043384839,1.605769
2025-11-22T17:45:01.615385,-0.15661520353088396,0.14818975894320427,-10.086369817442646,-0.2243592812495949,-0.10836364343065517,-0.13666783509870972,1.615385
2025-11-22T17:45:01.625,-0.1535933595952248,0.15459265438389977,-10.099046734704745,-0.2195324248026456,-0.11924613657059227,-0.13601575641131017,1.625
2025-11-22T17:45:01.634615,-0.15069044686854582,0.16091537873568815,-10.11160654671571,-0.21444971215990535,-0.12991307115482562,-0.13502205330965839,1.634615
2025-11-22T17:45:01.644231,-0.14792306557707527,0.16713221481896096,-10.124059651062407,-0.20913549679154303,-0.1403099062429514,-0.13370665859492795,1.644231
2025-11-22T17:45:01.653846,-0.14529945808461509,0.17321639477279502,-10.13641361617198,-0.20361243488250225,-0.15038256447838583,-0.13209488752180765,1.653846
2025-11-22T17:45:01.663462,-0.14281939913534739,0.17914101788191417,-10.1486719157947,-0.19790133426398338,-0.16007872536979212,-0.13021680245830636,1.663462
2025-11-22T17:45:01.673077,-0.1404744200594455,0.1848799851606852,-10.16083278137583,-0.19202118085652053,-0.1693489716912619,-0.12810636414722107,1.673077
2025-11-22T17:45:01.682692,-0.13824833216362178,0.19040893457943675,-10.172888251050479,-0.18598932449283506,-0.1781477682955864,-0.12580041472869288,1.682692
2025-11-22T17:45:01.692308,-0.13611800577358188,0.1957061494024209,-10.18482347802158,-0.17982176571984332,-0.1864343243518717,-0.12333755650310314,1.692308
2025-11-22T17:45:01.701923,-0.1340543576131861,0.20075340466018032,-10.196616350065089,-0.17353345293777933,-0.19417343184688718,-0.12075699894266641,1.701923
2025-11-22T17:45:01.711538,-0.1320234970575069,0.20553670665385798,-10.208237458637129,-0.16713849569323408,-0.2013363598445487,-0.11809744022042361,1.711538
2025-11-22T17:45:01.721154,-0.12998797819042748,0.2100468725811526,-10.21965043517162,-0.16065022921696936,-0.20790182397188878,-0.11539603020699588,1.721154
2025-11-22T17:45:01.730769,-0.1279081003946402,0.21427990300887526,-10.230812646636634,-0.1540811095633938,-0.21385697613850016,-0.11268744125537287,1.730769
2025-11-22T17:45:01.740385,-0.1257432012714046,0.21823711976387755,-10.24167621897567,-0.14744245487997193,-0.2191983053369146,-0.11000306419225209,1.740385
2025-11-22T17:45:01.75,-0.12345289601570064,0.22192506346611846,-10.252189337347343,-0.14074406969858103,-0.22393232337006538,-0.10737034800261412,1.75
2025-11-22T17:45:01.759615,-0.12099823220493704,0.22535515700286354,-10.26229775227584,-0.13399380319160684,-0.2280759196962831,-0.10481229647009326,1.759615
2025-11-22T17:45:01.769231,-0.11834273967526768,0.228543146330212,-10.27194640124999,-0.127197103688886,-0.23165628746983324,-0.10234711633540253,1.769231
2025-11-22T17:45:01.778846,-0.11545335923118218,0.23150833810598045,-10.281081045370373,-0.12035663810984133,-0.23471034486616849,-0.09998799394175394,1.778846
2025-11-22T17:45:01.788462,-0.11230123605762442,0.23427266657179,-10.289649828787493,-0.11347204178763846,-0.23728361402884376,-0.09774297704609262,1.788462
2025-11-22T17:45:01.798077,-0.10886236790412232,0.2368596338428734,-10.297604690305883,-0.10653984676757372,-0.23942857830747905,-0.09561495277072089,1.798077
2025-11-22T17:45:01.807692,-0.10511810185037487,0.2392931765975261,-10.304902579149855,-0.09955360842353203,-0.2412026043623355,-0.09360172753008922,1.807692
2025-11-22T17:45:01.817308,-0.10105547188316288,0.24159652066779722,-10.311506445570771,-0.09250422585807926,-0.2426655732107614,-0.09169622138041973,1.817308
2025-11-22T17:45:01.826923,-0.09666736360258754,0.24379109055541265,-10.31738599585787,-0.08538043914349011,-0.24387740126280294,-0.0898867878589089,1.826923
2025-11-22T17:45:01.836538,-0.09195248963544897,0.2458955356416004,-10.322518221062607,-0.07816947824968552,-0.24489563794131144,-0.08815766548570012,1.836538
2025-11-22T17:45:01.846154,-0.08691516719628675,0.24792491813648576,-10.326887722738054,-0.07085782888633152,-0.24577329675337387,-0.08648955977641741,1.846154
2025-11-22T17:45:01.855769,-0.08156490782562614,0.24989009156765749,-10.330486861095745,-0.06343207371576651,-0.24655702606489197,-0.08486033853742259,1.855769
2025-11-22T17:45:01.865385,-0.07591585015210306,0.25179729357335773,-10.33331574002011,-0.05587976366739666,-0.24728567846721097,-0.08324579518806455,1.865385
2025-11-22T17:45:01.875,-0.06998608031842508,0.25364797749547985,-10.335382024458168,-0.04819026893248447,-0.24798930342929887,-0.08162040751696735,1.875
2025-11-22T17:45:01.884615,-0.06379688880616381,0.2554388999338365,-10.336700571884169,-0.04035555652703422,-0.24868855942115067,-0.07995801118548755,1.884615
2025-11-22T17:45:01.894231,-0.05737200899961309,0.2571624628391496,-10.33729286429411,-0.032370850919155335,-0.24939451514947347,-0.07823232344158598,1.894231
2025-11-22T17:45:01.903846,-0.05073687527059198,0.2588072879046206,-10.337186250271367,-0.02423515564851159,-0.25010879367103267,-0.07641728510363753,1.903846
2025-11-22T17:45:01.913462,-0.04391792999262553,0.2603589832185247,-10.336413032325005,-0.015951632233114646,-0.25082401528589765,-0.07448722864842633,1.913462
2025-11-22T17:45:01.923077,-0.03694200211142419,0.26180104230660445,-10.335009445698784,-0.007527836126777215,-0.2515245113647799,-0.07241691737568613,1.923077
2025-11-22T17:45:01.932692,-0.029835775411565756,0.26311579299426435,-10.333014567703177,0.0010241960292556702,-0.2521873001347478,-0.07018152328371143,1.932692
2025-11-22T17:45:01.942308,-0.022625360645668776,0.26428530264250905,-10.330469184918645,0.009688015206341709,-0.2527833238620571,-0.06775661192441833,1.942308
2025-11-22T17:45:01.951923,-0.01533597927561374,0.26529216278105855,-10.327414647284213,0.018442987768823835,-0.2532789374955445,-0.06511818479076902,1.951923
2025-11-22T17:45:01.961538,-0.007991758429792278,0.26612011491722704,-10.323891756685201,0.027264682592297324,-0.2536376162429682,-0.062242806632129874,1.961538
2025-11-22T17:45:01.971154,-0.0006156303046779663,0.2667545176017431,-10.319939757370479,0.03612542062753401,-0.25382182272484205,-0.05910782829715122,1.971154
2025-11-22T17:45:01.980769,0.006770676468691712,0.2671826737664808,-10.315595496081286,0.04499498705813936,-0.2537949448289013,-0.05569170838158289,1.980769
2025-11-22T17:45:01.990385,0.014146575210985132,0.26739403441057114,-10.310892794640923,0.053841480606575,-0.25352318336900453,-0.051974434818601825,1.990385
2025-11-22T17:45:02,0.02149252136909247,0.2673802799865824,-10.305862036958601,0.06263223026971576,-0.25297724600545507,-0.047938044273608746,2.0
2025-11-22T17:45:02.009615,0.028789908432071788,0.2671352691150722,-10.300529931844979,0.07133468114633817,-0.2521337081999423,-0.043567229291213344,2.009615
2025-11-22T17:45:02.019231,0.036020981353268935,0.26665484780067633,-10.29491938620478,0.07991716961502181,-0.2509759376064208,-0.03885001169629563,2.019231
2025-11-22T17:45:02.028846,0.04316876791333787,0.2659365323210097,-10.289049418512466,0.08834956631182325,-0.2494945288603392,-0.03377844994292794,2.028846
2025-11-22T17:45:02.038462,0.05021700853044859,0.26497910418578474,-10.282935059666537,0.09660382407723576,-0.24768723736871484,-0.02834934290353651,2.038462
2025-11-22T17:45:02.048077,0.05715005478198651,0.26378217264247833,-10.27658721819576,0.10465449179096394,-0.24555842380756093,-0.022564895816697017,2.048077
2025-11-22T17:45:02.057692,0.06395271205293455,0.26234576268985066,-10.270012519250542,0.11247923494834255,-0.24311803669551973,-0.016433322964308515,2.057692
2025-11-22T17:45:02.067308,0.07061002508500772,0.26066997543436926,-10.26321315508183,0.12005935972265944,-0.24038018390612792,-0.009969368242407677,2.067308
2025-11-22T17:45:02.076923,0.07710703922104943,0.25875474866450293,-10.256186801895513,0.12738030083361326,-0.23736137836790974,-0.0031947225581330607,2.076923
2025-11-22T17:45:02.086538,0.0834285963999143,0.25659972602466447,-10.24892665735483,0.1344320234282699,-0.2340785826406346,0.0038616930842629714,2.086538
2025-11-22T17:45:02.096154,0.08955922934371761,0.25420422813516963,-10.24142163480202,0.14120930084694003,-0.23054721626753497,0.011163621075223363,2.096154
2025-11-22T17:45:02.105769,0.09548320186540649,0.2515673095358756,-10.233656724287927,0.14771184698076884,-0.22677932085247599,0.018667587203080458,2.105769
2025-11-22T17:45:02.115385,0.10118471835694222,0.24868788068502434,-10.225613508301603,0.15394429238629792,-0.22278208392874635,0.026323301168640824,2.115385
2025-11-22T17:45:02.125,0.1066482976674088,0.2455648751383004,-10.21727080586907,0.15991599983681376,-0.21855688888748623,0.03407438983859784,2.125
2025-11-22T17:45:02.134615,0.11185927856895483,0.24219744962844078,-10.208605411058079,0.1656407243536385,-0.21409898924111548,0.04185950320120518,2.134615
2025-11-22T17:45:02.144231,0.11680440274393938,0.23858521533693902,-10.199592889205485,0.17113613048565524,-0.20939782352645245,0.049613811004585076,2.144231
2025-11-22T17:45:02.153846,0.12147241527928777,0.23472850478474067,-10.190208392782274,0.17642317794088402,-0.20443791167940756,0.05727087986322752,2.153846
2025-11-22T17:45:02.163462,0.125854631731701,0.2306286779179626,-10.180427455297329,0.181525383265542,-0.1992002120552011,0.06476488266626035,2.163462
2025-11-22T17:45:02.173077,0.12994543437722583,0.2262884658530543,-10.170226720404933,0.1864679743636521,-0.19366377534666246,0.07203304121519374,2.173077
2025-11-22T17:45:02.182692,0.13374266863436277,0.22171234088589276,-10.159584573188562,0.19127697630102652,-0.18780751754889097,0.07901815136943784,2.182692
2025-11-22T17:45:02.192308,0.1372479137501833,0.21690688322435214,-10.148481663596966,0.19597828851377042,-0.18161195289791532,0.08567100830265101,2.192308
2025-11-22T17:45:02.201923,0.1404666058015365,0.2118810921471163,-10.1369013402464,0.20059682174195914,-0.1750607632910215,0.09195254775633971,2.201923
2025-11-22T17:45:02.211538,0.14340799967241297,0.20664657539452064,-10.124830030868962,0.20515574926924604,-0.16814210870955923,0.0978355432516879,2.211538
2025-11-22T17:45:02.221154,0.14608496773126373,0.20121755744487985,-10.112257600880488,0.20967589558087868,-0.16084959917651648,0.10330573954929002,2.221154
2025-11-22T17:45:02.230769,0.14851364198809489,0.1956106737363496,-10.099177698942706,0.21417525258457723,-0.15318287080351867,0.10836234876685641,2.230769
2025-11-22T17:45:02.240385,0.15071291238397205,0.18984455131016978,-10.085588077372043,0.21866859257758658,-0.14514774952855344,0.11301787845054825,2.240385
2025-11-22T17:45:02.25,0.1527037994767939,0.18393920414933618,-10.071490867147975,0.2231671432430162,-0.13675603732155053,0.11729729879935326,2.25
2025-11-22T17:45:02.259615,0.15450872710239513,0.17791528830195255,-10.056892787435105,0.22767830550714263,-0.12802499661256747,0.12123659543020314,2.259615
2025-11-22T17:45:02.269231,0.15615072697074442,0.17179326766739547,-10.041805270551615,0.23220542624572743,-0.11897662360596381,0.12488079828164933,2.269231
2025-11-22T17:45:02.278846,0.15765261025331845,0.16559253838033405,-10.026244484179808,0.236747667548106,-0.10963678903902145,0.1282816183445401,2.278846
2025-11-22T17:45:02.288462,0.15903614477162312,0.1593305541498099,-10.010231234788785,0.2413000218779865,-0.10003430510252233,0.13149484840421413,2.288462
2025-11-22T17:45:02.298077,0.16032128451206368,0.15302199475864522,-9.99379073984322,0.24585350344460355,-0.09019997255455596,0.13457768813830912,2.298077
2025-11-22T17:45:02.307692,0.16152550532415313,0.14667802810427316,-9.97695226240486,0.2503955164245055,-0.08016567061667063,0.13758614587357804,2.307692
2025-11-22T17:45:02.317308,0.16266329530144805,0.14030572832214994,-9.9597486129363,0.25491037938939903,-0.06996355325875302,0.1405726563012865,2.317308
2025-11-22T17:45:02.326923,0.16374582864538564,0.13390771986241806,-9.942215538442992,0.2593799778880171,-0.059625402358230016,0.14358403442361894,2.326923
2025-11-22T17:45:02.336538,0.16478083050345643,0.12748210899287646,-9.924391030363223,0.26378451620222226,-0.0491821722458736,0.1466598567527899,2.336538
2025-11-22T17:45:02.346154,0.16577262853903832,0.12102273481555037,-9.906314583760995,0.26810333358726657,-0.038663745223708065,0.1498313207312283,2.346154
2025-11-22T17:45:02.355769,0.16672237994651326,0.11451973019017966,-9.888026437537198,0.2723157348712159,-0.028098895432656115,0.15312058890082902,2.355769
2025-11-22T17:45:02.365385,0.16762844901386756,0.10796034518768463,-9.869566829320277,0.276401768929182,-0.017515428234213207,0.15654058713382418,2.365385
2025-11-22T17:45:02.375,0.16848689039354595,0.10132996140786613,-9.850975310242127,0.2803428862161083,-0.006940435430831765,0.16009520357080587,2.375
2025-11-22T17:45:02.384615,0.16929197835458593,0.09461321470488578,-9.832290174693634,0.284122422395345,0.0035994110358647104,0.1637798227273769,2.384615
2025-11-22T17:45:02.394231,0.17003672128463537,0.08779514468731421,-9.813548060069822,0.2877258802225456,0.01407761557752665,0.1675821189185706,2.394231
2025-11-22T17:45:02.403846,0.17071331272481982,0.08086230121867784,-9.794783760940893,0.2911410059396649,0.024467753370757205,0.1714830229967984,2.403846
2025-11-22T17:45:02.413462,0.17131348890063702,0.07380375706756723,-9.776030285300948,0.2943576735231043,0.0347435664134544,0.1754577709082828,2.413462
2025-11-22T17:45:02.423077,0.17182878279828717,0.06661199280698413,-9.757319158231994,0.29736759766580995,0.04487928592920527,0.17947694466396436,2.423077
2025-11-22T17:45:02.432692,0.1722506835694592,0.059283627180542954,-9.738680945437132,0.3001638972952097,0.05485017324587134,0.1835074277257416,2.432692
2025-11-22T17:45:02.442308,0.17257072466343104,0.051819963112962296,-9.720145925858686,0.3027405347064675,0.06463324951674371,0.18751322094326467,2.442308
2025-11-22T17:45:02.451923,0.1727805309524603,0.04422731376456032,-9.701744804288214,0.30509166747923855,0.07420815922610945,0.19145610090764967,2.451923
2025-11-22T17:45:02.461538,0.1728718531403651,0.03651707430356882,-9.683509340382754,0.3072109654898721,0.08355807752257607,0.19529613957274747,2.461538
2025-11-22T17:45:02.471154,0.1728366114038258,0.028705519246169164,-9.665472782434916,0.3090909502321829,0.09267054091538533,0.19899213124447004,2.471154
2025-11-22T17:45:02.480769,0.17266696464491718,0.020813331201058494,-9.64767002180656,0.31072240317043964,0.10153807529741034,0.20250198934545605,2.480769
2025-11-22T17:45:02.490385,0.17235541523643833,0.012864896829022124,-9.630137420152055,0.31209387156314056,0.11015852691447083,0.20578318598535908,2.490385
2025-11-22T17:45:02.5,0.17189494712163358,0.004887429863105696,-9.612912304558812,0.3131912836186533,0.118535062300467,0.2087933114361419,2.5
2025-11-22T17:45:02.509615,0.17127918029387929,-0.0030900058749530617,-9.596032170420733,0.313997675421143,0.12667586375649525,0.21149081806432796,2.509615
2025-11-22T17:45:02.519231,0.17050251595344176,-0.011037498586272268,-9.579533670314525,0.3144930346807583,0.13459358499356497,0.21383597801542495,2.519231
2025-11-22T17:45:02.528846,0.16956024863082045,-0.018925250560055187,-9.563451491346145,0.3146542827132132,0.14230464824062278,0.21579203519702944,2.528846
2025-11-22T17:45:02.538462,0.1684486299450578,-0.026724455390954152,-9.54781722757776,0.31445543755520544,0.14982846680569603,0.21732648635171736,2.538462
2025-11-22T17:45:02.548077,0.1671648755068604,-0.034408068897870146,-9.532658342845252,0.3138680125063838,0.15718666364462205,0.21841239225150205,2.548077
2025-11-22T17:45:02.557692,0.16570710844257547,-0.0419514676239746,-9.517997308365919,0.3128616963849285,0.1644023290118172,0.21902960018944814,2.557692
2025-11-22T17:45:02.567308,0.16407423419294076,-0.04933299251419339,-9.503850998102006,0.3114053375199664,0.17149933386172833,0.21916575577533817,2.567308
2025-11-22T17:45:02.576923,0.16226574838262892,-0.05653437438961663,-9.490230421003275,0.3094682217037662,0.17850170256673795,0.21881699716682762,2.576923
2025-11-22T17:45:02.586538,0.16028149503079137,-0.0635410398852978,-9.477140843583594,0.3070215995479517,0.18543304592051948,0.21798825381779688,2.586538
2025-11-22T17:45:02.596154,0.158121410602292,-0.07034230255949571,-9.464582305953938,0.3040403814594852,0.19231605325487555,0.2166931075797616,2.596154
2025-11-22T17:45:02.605769,0.1557852995615333,-0.0769314506605131,-9.452550475872936,0.300504881873655,0.19917203552332352,0.2149532126451849,2.605769
2025-11-22T17:45:02.615385,0.15327268167000632,-0.08330574625351436,-9.441037737503544,0.2964024652115508,0.20602050200160588,0.2127973128508733,2.615385
2025-11-22T17:45:02.625,0.15058273305945374,-0.08946634714187682,-9.430034385048526,0.2917289306704288,0.21287874645522586,0.2102599394002082,2.625
2025-11-22T17:45:02.634615,0.1477143227288545,-0.09541815548040436,-9.419529789848543,0.286489477793902,0.21976141503556235,0.20737990777909174,2.634615
2025-11-22T17:45:02.644231,0.14466613282904361,-0.1011695902754491,-9.409513430963148,0.2806991264328027,0.22668002798210676,0.2041987440024454,2.644231
2025-11-22T17:45:02.653846,0.14143684647136656,-0.10673227680793612,-9.399975716524866,0.27438251990208223,0.23364243395352516,0.2007591568452745,2.653846
2025-11-22T17:45:02.663462,0.13802538591834876,-0.11212064236991076,-9.390908564647651,0.267573101019296,0.24065219214494055,0.19710364813517642,2.663462
2025-11-22T17:45:02.673077,0.13443118135802026,-0.11735140272890972,-9.382305744830273,0.26031170197646625,0.24770790280609595,0.1932733265535448,2.673077
2025-11-22T17:45:02.682692,0.13065444450056352,-0.12244291836702689,-9.37416299690661,0.25264463213750743,0.25480253932013275,0.1893069631170908,2.682692
2025-11-22T17:45:02.692308,0.12669641529877443,-0.1274143981209733,-9.366477951264466,0.24462139170490005,0.2619228681052372,0.18524030201226668,2.692308
2025-11-22T17:45:02.701923,0.12255954949767599,-0.13228493632767047,-9.35924988115348,0.23629218575733885,0.2690490653675912,0.1811056211023096,2.701923
2025-11-22T17:45:02.711538,0.11824762156331091,-0.13707239218175354,-9.352479325101768,0.22770545521337257,0.2761546421640086,0.17693151699332943,2.711538
2025-11-22T17:45:02.721154,0.11376572883158341,-0.14179215507661627,-9.346167617106707,0.21890566603406794,0.2832067626202299,0.1727428668367643,2.721154
2025-11-22T17:45:02.730769,0.10912019494856974,-0.14645587625311515,-9.340316351401476,0.20993158922196029,0.2901669817367312,0.16856090207119417,2.730769
2025-11-22T17:45:02.740385,0.104318383853754,-0.15107026967451312,-9.334926795430999,0.2008152472727189,0.2969923563073449,0.16440332858168982,2.740385
2025-11-22T17:45:02.75,0.099368450659982,-0.1556360864141351,-9.329999264565645,0.191581601044671,0.30363683030117783,0.1602844411711609,2.75
2025-11-22T17:45:02.759615,0.09427906985742007,-0.1601473523648007,-9.32553249195499,0.18224893780405013,0.31005278808034104,0.15621519909877193,2.759615
2025-11-22T17:45:02.769231,0.08905918668956325,-0.16459093831173968,-9.321523052322693,0.1728298402047185,0.31619269255741067,0.15220324931512086,2.769231
2025-11-22T17:45:02.778846,0.0837178276719796,-0.16894651022859986,-9.317964906583716,0.1633325862321375,0.32201074632198223,0.1482529010805629,2.778846
2025-11-22T17:45:02.788462,0.07826398305158865,-0.17318688632294824,-9.314849119167892,0.15376283727596662,0.3274645122093234,0.1443650653340397,2.788462
2025-11-22T17:45:02.798077,0.07270654876004655,-0.17727880171435612,-9.3121637740618,0.14412548664243116,0.3325164160472637,0.14053717913863598,2.798077
2025-11-22T17:45:02.807692,0.06705430078206591,-0.18118404955125586,-9.309894090835938,0.13442653859243964,0.33713504814969364,0.136763147567251,2.807692
2025-11-22T17:45:02.817308,0.06131587707609485,-0.18486093451891783,-9.308022723687863,0.12467486037457769,0.34129618642856885,0.1330333438819633,2.817308
2025-11-22T17:45:02.826923,0.05549975786074478,-0.18826594917254297,-9.30653021662376,0.11488361848059192,0.34498347349479513,0.12933469684484084,2.826923
2025-11-22T17:45:02.836538,0.04961425324761388,-0.19135556803779868,-9.305395585356596,0.10507121239201592,0.3481886865230161,0.12565086508637968,2.836538
2025-11-22T17:45:02.846154,0.043667516774498795,-0.19408804870500493,-9.304597000855996,0.09526156970316915,0.3509115479524375,0.12196247895601363,2.846154
2025-11-22T17:45:02.855769,0.037667601046253794,-0.1964251347320219,-9.304112560984988,0.08548374985841184,0.3531590496867389,0.11824744075261087,2.855769
2025-11-22T17:45:02.865385,0.03162256224365754,-0.1983335719468895,-9.303921148746776,0.07577089504981142,0.3549443111907563,0.11448130710864186,2.865385
2025-11-22T17:45:02.875,0.025540609755490256,-0.19978637299807922,-9.304003376696164,0.06615864706866965,0.356285057695873,0.11063780272100364,2.875
2025-11-22T17:45:02.884615,0.019430287563618073,-0.20076379037339184,-9.30434260333967,0.05668320757005415,0.3572018688173147,0.10668950657464468,2.884615
2025-11-22T17:45:02.894231,0.01330066543716929,-0.20125398482018353,-9.304925987060168,0.04737925547167453,0.35771638463345146,0.10260871015284581,2.894231
2025-11-22T17:45:02.903846,0.007161513009153429,-0.20125340245645282,-9.305745526473052,0.03827794872864945,0.3578496478682293,0.09836839707545064,2.903846
2025-11-22T17:45:02.913462,0.001023430442016317,-0.20076689405782475,-9.306799025874273,0.029405219461167125,0.3576207059931829,0.09394326523875587,2.913462
2025-11-22T17:45:02.923077,-0.005102087212063842,-0.19980761698429775,-9.308090919110334,0.020780515157065204,0.357045515839514,0.08931071826096089,2.923077
2025-11-22T17:45:02.932692,-0.011202671979748027,-0.19839674908513594,-9.309632888415624,0.012416057663396967,0.35613612339225664,0.08445178056991944,2.932692
2025-11-22T17:45:02.942308,-0.0172652067328341,-0.1965630166220922,-9.311444230626087,0.004316614220521311,0.35490006695395515,0.07935191688331476,2.942308
2025-11-22T17:45:02.951923,-0.02327605589379635,-0.1943420085726634,-9.313551944582695,-0.003520275054484032,0.35333997849294496,0.07400174910350457,2.951923
2025-11-22T17:45:02.961538,-0.02922139266854387,-0.19177523665198082,-9.315990529220246,-0.01110368463879687,0.3514534088079987,0.0683976628790826,2.961538
2025-11-22T17:45:02.971154,-0.035087596927165225,-0.18890891297929222,-9.318801491904116,-0.018448371358027953,0.3492329367723474,0.06254228694467262,2.971154
2025-11-22T17:45:02.980769,-0.04086168843580638,-0.18579244974094822,-9.322032577297465,-0.02557358152487175,0.34666661740270566,0.05644481446102569,2.980769
2025-11-22T17:45:02.990385,-0.04653175892022002,-0.18247672472144455,-9.325736736257355,-0.032501667010975496,0.3437387873949247,0.05012112307741037,2.990385
2025-11-22T17:45:03,-0.05208737075567557,-0.17901219075626926,-9.329970856289137,-0.039256607872427705,0.3404312058450025,0.04359364744337487,3.0
2025-11-22T17:45:03.009615,-0.05751989742132047,-0.17544692767675044,-9.334794272943947,-0.045862568790242524,0.33672447389958365,0.03689096956060305,3.009615
2025-11-22T17:45:03.019231,-0.06282279213592705,-0.17182474042820203,-9.340267080927532,-0.05234262562790756,0.33259964581374185,0.030047117651763183,3.019231
2025-11-22T17:45:03.028846,-0.06799178512287035,-0.1681834005226652,-9.346448263800237,-0.05871777668957408,0.3280399150492366,0.023100595451094837,3.028846
2025-11-22T17:45:03.038462,-0.07302501804048026,-0.1645531151562836,-9.353393663444484,-0.06500630853290744,0.3230322434931283,0.016093190589561608,3.038462
2025-11-22T17:45:03.048077,-0.07792311677138464,-0.16095529390233793,-9.361153825908474,-0.07122353048145849,0.31756880958536965,0.00906862739337606,3.048077
2025-11-22T17:45:03.057692,-0.08268918359051262,-0.1574016697763348,-9.3697717944375,-0.07738183199377385,0.31164817868489586,0.002071136713304506,3.057692
2025-11-22T17:45:03.067308,-0.08732867257539889,-0.1538938193236834,-9.379280958896928,-0.08349096321217131,0.30527613237188783,-0.004855985778376312,3.067308
2025-11-22T17:45:03.076923,-0.09184911303980124,-0.15042311440363149,-9.389703090593661,-0.08955841338269173,0.29846612257934585,-0.011671771914842572,3.076923
2025-11-22T17:45:03.086538,-0.09625966651617664,-0.14697112748497776,-9.401046685346179,-0.0955897829157658,0.29123934112977573,-0.018338878174476568,3.086538
2025-11-22T17:45:03.096154,-0.10057053316927538,-0.1435104994697766,-9.413305716231827,-0.1015891013405406,0.28362441518244724,-0.024824749296942495,3.096154
2025-11-22T17:45:03.105769,-0.10479225073135415,-0.14000625450076823,-9.426458872037585,-0.10755909568833617,0.27565675062784745,-0.031102602722906103,3.105769
2025-11-22T17:45:03.115385,-0.10893494561618045,-0.1364175045658481,-9.440469329769329,-0.11350143329332103,0.26737755251950596,-0.03715217383949009,3.115385
2025-11-22T17:45:03.125,-0.11300760100194697,-0.13269943904565507,-9.455285079104225,-0.11941695682623153,0.2588325672732858,-0.042960156422034865,3.125
2025-11-22T17:45:03.134615,-0.11701740165585485,-0.12880546248259492,-9.470839789873123,-0.12530591514758377,0.25007062005964154,-0.04852028796320701,3.134615
2025-11-22T17:45:03.144231,-0.12096920117260886,-0.12468934226374823,-9.487054199966662,-0.13116817256120858,0.24114204835541614,-0.05383306895737573,3.144231
2025-11-22T17:45:03.153846,-0.12486513876031063,-0.12030725382809965,-9.503837999124958,-0.13700335215454396,0.23209714063020945,-0.058905160153923546,3.153846
2025-11-22T17:45:03.163462,-0.1287044175651916,-0.11561964966646567,-9.521092177654355,-0.14281085499631832,0.22298467394675642,-0.06374855242970873,3.163462
2025-11-22T17:45:03.173077,-0.1324832485117756,-0.11059291160098694,-9.5387117820532,-0.1485897150261393,0.2138506178444702,-0.06837962918004188,3.173077
2025-11-22T17:45:03.182692,-0.13619496009307183,-0.10520075960492657,-9.556588973456568,-0.1543382932738322,0.20473704871088708,-0.07281823265458999,3.182692
2025-11-22T17:45:03.192308,-0.13983027084405864,-0.09942538557877752,-9.574616240673576,-0.16005385563741437,0.1956813043690266,-0.07708681066576312,3.192308
2025-11-22T17:45:03.201923,-0.14337771323540258,-0.09325827395225932,-9.592689601672223,-0.1657320903806498,0.18671539759058348,-0.08120967316764495,3.201923
2025-11-22T17:45:03.211538,-0.14682418387431173,-0.08670067795361609,-9.610711641877788,-0.17136660651469074,0.17786569100794755,-0.0852123445845143,3.211538
2025-11-22T17:45:03.221154,-0.15015557932583234,-0.07976373933360498,-9.628594266821318,-0.17694843558770743,0.1691528127481347,-0.0891209698156173,3.221154
2025-11-22T17:45:03.230769,-0.15335746593396393,-0.07246825852723482,-9.646261068032976,-0.18246555282078813,0.1605917716106655,-0.09296172671392981,3.230769
2025-11-22T17:45:03.240385,-0.15641572838059034,-0.06484413386214953,-9.66364920944718,-0.1879024368567171,0.15219222481575814,-0.09676021644128249,3.240385
2025-11-22T17:45:03.25,-0.15931714599164454,-0.05692949309118229,-9.68071074883389,-0.1932396965708831,0.1439588601443946,-0.10054083508894356,3.25
2025-11-22T17:45:03.259615,-0.1620498586036598,-0.0487695430571105,-9.697413328986976,-0.19845380600064272,0.13589186352185598,-0.10432615327620212,3.259615
2025-11-22T17:45:03.269231,-0.16460370199322022,-0.04041516650874163,-9.713740212515408,-0.20351699537570597,0.1279874409578439,-0.10813632918156446,3.269231
2025-11-22T17:45:03.278846,-0.16697040988695186,-0.03192129979785705,-9.729689685964514,-0.20839734071429578,0.12023835408296316,-0.11198856057905052,3.278846
2025-11-22T17:45:03.288462,-0.16914369132589305,-0.023345136194863905,-9.745273907188093,-0.21305908191245918,0.11263442245475233,-0.11589656144129379,3.288462
2025-11-22T17:45:03.298077,-0.17111919903052078,-0.014744222083168015,-9.760517299083526,-0.21746318607211448,0.10516294738256066,-0.1198700420159059,3.298077
2025-11-22T17:45:03.307692,-0.1728944084075206,-0.006174539103776757,-9.775454600024249,-0.22156815828605156,0.09780902075201643,-0.12391418039301778,3.307692
2025-11-22T17:45:03.317308,-0.1744684281716726,0.002311325559452348,-9.790128674108571,-0.22533108725335127,0.09055570227077399,-0.12802909144598776,3.317308
2025-11-22T17:45:03.326923,-0.17584176085596998,0.010665835048801546,-9.804588172940418,-0.22870890272157515,0.08338408197570833,-0.13220931598890198,3.326923
2025-11-22T17:45:03.336538,-0.1770160266396307,0.018847927893196573,-9.818885131463956,-0.2316598159685727,0.07627328079915398,-0.13644336761224282,3.336538
2025-11-22T17:45:03.346154,-0.17799366209752443,0.026824177798806217,-9.833072571861184,-0.23414490824903889,0.06920046253635954,-0.14071339396068008,3.346154
2025-11-22T17:45:03.355769,-0.17877760786034075,0.03456966482713359,-9.847202178594868,-0.23612981925673832,0.06214092709022382,-0.14499503292323887,3.355769
2025-11-22T17:45:03.365385,-0.1793710018673323,0.042068539993300846,-9.861322098160297,-0.23758646375981368,0.05506833236877108,-0.149257556700375,3.365385
2025-11-22T17:45:03.375,-0.1797768952176295,0.04931427052759826,-9.875474914080446,-0.2384946730862887,0.04795506114534263,-0.1534643823805386,3.375
2025-11-22T17:45:03.384615,-0.17999800600273866,0.05630956001616661,-9.889695850693506,-0.2388436320682524,0.04077271840760579,-0.15757398729373706,3.384615
2025-11-22T17:45:03.394231,-0.18003652400014838,0.06306594503432567,-9.904011266246124,-0.23863297511503415,0.033492719402434194,-0.1615412151567327,3.394231
2025-11-22T17:45:03.403846,-0.17989397662203804,0.06960307564246594,-9.91843750234966,-0.2378734248118336,0.02608691378276149,-0.16531891056939113,3.403846
2025-11-22T17:45:03.413462,-0.17957116448814767,0.0759476941237044,-9.932980152242516,-0.23658690197276813,0.01852819656168937,-0.16885978450595604,3.413462
2025-11-22T17:45:03.423077,-0.1790681730481557,0.08213234088019268,-9.947633787125621,-0.23480609396447313,0.010791086660747415,-0.17211839279965055,3.423077
2025-11-22T17:45:03.432692,-0.17838446308450362,0.08819383763843106,-9.962382144754327,-0.2325735148213885,0.002852292135142359,-0.1750530983674887,3.432692
2025-11-22T17:45:03.442308,-0.17751903408491299,0.09417161605109892,-9.977198750069656,-0.22994010945448998,-0.0053086991492910275,-0.17762788492330245,3.442308
2025-11-22T17:45:03.451923,-0.17647063929934098,0.10010596605612647,-9.992047910769712,-0.22696345008597976,-0.013708969111008832,-0.17981390107050282,3.451923
2025-11-22T17:45:03.461538,-0.17523801737049716,0.10603627423216488,-10.006886014649208,-0.22370556697924276,-0.022361436239929783,-0.18159064392976107,3.461538
2025-11-22T17:45:03.471154,-0.17382010395692948,0.1119993157998497,-10.021663054324332,-0.22023046475122868,-0.03127402328188773,-0.18294673625355162,3.471154
2025-11-22T17:45:03.480769,-0.17221619903977586,0.11802766092868115,-10.036324318213119,-0.21660140031516106,-0.04044871970062257,-0.1838802960025015,3.480769
2025-11-22T17:45:03.490385,-0.1704260805731021,0.12414825499846695,-10.05081220416861,-0.21287802737048528,-0.049880558768739806,-0.18439892713207437,3.490385
2025-11-22T17:45:03.5,-0.16845006252343575,0.13038122737809718,-10.065068120463309,-0.2091135371961256,-0.05955657492533604,-0.18451936890535114,3.5
2025-11-22T17:45:03.509615,-0.16628899618702592,0.13673897343724492,-10.079034432771813,-0.20535194706709475,-0.0694548627224814,-0.18426683504294736,3.509615
2025-11-22T17:45:03.519231,-0.16394421661128578,0.14322554629714973,-10.092656399591942,-0.20162570535887672,-0.07954389918256578,-0.1836740658555689,3.519231
2025-11-22T17:45:03.528846,-0.16141744636609653,0.14983639016689704,-10.105884018825419,-0.19795378703023175,-0.08978229204158361,-0.18278011421089244,3.528846
2025-11-22T17:45:03.538462,-0.15871068239178374,0.1565584381262914,-10.118673692129445,-0.1943404342999511,-0.10011907528595944,-0.18162888917814338,3.538462
2025-11-22T17:45:03.548077,-0.15582609766612868,0.1633705789795226,-10.130989608507358,-0.1907746516870511,-0.11049460895840886,-0.18026748661090625,3.548077
2025-11-22T17:45:03.557692,-0.15276598233143115,0.17024447700245637,-10.142804759146635,-0.18723049880578413,-0.12084206983434209,-0.17874434572469783,3.557692
2025-11-22T17:45:03.567308,-0.14953273425156138,0.17714571146811192,-10.15410152304547,-0.18366815918455082,-0.13108945297116675,-0.17710728911074947,3.567308
2025-11-22T17:45:03.576923,-0.14612889698129514,0.184035185590487,-10.164871803810446,-0.18003572497674286,-0.14116195059978395,-0.17540153170621922,3.576923
2025-11-22T17:45:03.586538,-0.14255723725986047,0.1908707320878461,-10.175116740450697,-0.17627162915343084,-0.1509845428413192,-0.17366777768043687,3.586538
2025-11-22T17:45:03.596154,-0.13882085047505052,0.19760881957300824,-10.184846046705788,-0.17230764812592425,-0.16048462474965436,-0.17194055001770522,3.596154
2025-11-22T17:45:03.605769,-0.13492328002979523,0.20420624890287536,-10.19407705416064,-0.1680723553122461,-0.16959449965827142,-0.17024689654284306,3.605769
2025-11-22T17:45:03.615385,-0.130868638519206,0.21062172744774174,-10.20283355132313,-0.16349483466105683,-0.17825358524494056,-0.16860557861879705,3.615385
2025-11-22T17:45:03.625,-0.12666172318839028,0.216817225603016,-10.211144521241085,-0.1585084046195471,-0.18641020673411743,-0.16702678805644988,3.625
2025-11-22T17:45:03.634615,-0.12230811844129354,0.22275905150666664,-10.219042870628858,-0.1530540938938953,-0.19402289117505717,-0.16551237972319652,3.634615
2025-11-22T17:45:03.644231,-0.11781427392876942,0.22841861673492495,-10.226564209194738,-0.1470836519595755,-0.20106112478133836,-0.16405656584825482,3.644231
2025-11-22T17:45:03.653846,-0.11318754546727725,0.23377289699878503,-10.233745693601227,-0.14056194737360023,-0.20750558859937254,-0.1626469883658182,3.653846
2025-11-22T17:45:03.663462,-0.10843619198712341,0.2388046125728319,-10.24062491650924,-0.13346867975163182,-0.21334793990188472,-0.1612660614967439,3.663462
2025-11-22T17:45:03.673077,-0.10356932991990116,0.24350216401623254,-10.247238807076599,-0.1257993868762759,-0.2185902467194562,-0.15989246183108877,3.673077
2025-11-22T17:45:03.682692,-0.09859684830040231,0.24785936415582507,-10.253622514441233,-0.11756576188264756,-0.22324420346348886,-0.1585026419880298,3.682692
2025-11-22T17:45:03.692308,-0.09352928115605062,0.25187501155337727,-10.259808265678469,-0.10879531656616173,-0.2273302546393717,-0.157072253386016,3.692308
2025-11-22T17:45:03.701923,-0.08837762654632637,0.2555523534107718,-10.265824217715151,-0.09953044373761137,-0.23087672658168754,-0.15557737987308776,3.701923
2025-11-22T17:45:03.711538,-0.0831531047663098,0.2588984840793593,-10.27169334965499,-0.08982694482698315,-0.23391901341520585,-0.1539955088741838,3.711538
2025-11-22T17:45:03.721154,-0.07786686453115178,0.2619237182888268,-10.277432459358828,-0.07975210203512777,-0.23649880099869752,-0.15230620090180264,3.721154
2025-11-22T17:45:03.730769,-0.07252966726190635,0.26464096748155475,-10.283051331226636,-0.06938239332068559,-0.23866326725146927,-0.15049145441074385,3.730769
2025-11-22T17:45:03.740385,-0.06715159352647364,0.26706513498225987,-10.28855213015299,-0.05880096990897881,-0.24046418149423857,-0.14853579399850378,3.740385
2025-11-22T17:45:03.75,-0.06174181509954087,0.2692125330122416,-10.293929052625966,-0.04809502693955361,-0.241956840142297,-0.1464261371199528,3.75
2025-11-22T17:45:03.759615,-0.05630846274969317,0.2711003145832312,-10.299168239052777,-0.037353189832988944,-0.24319881821147624,-0.1441515202153442,3.759615
2025-11-22T17:45:03.769231,-0.05085860075765286,0.2727459093299926,-10.304247932684676,-0.0266630157808844,-0.24424857243642234,-0.14170278458011953,3.769231
2025-11-22T17:45:03.778846,-0.045398301724065525,0.2741664559648422,-10.309138862916086,-0.016108681958837596,-0.245163980856736,-0.1390723263510545,3.778846
2025-11-22T17:45:03.788462,-0.03993280385972646,0.27537823447421317,-10.313804828416293,-0.005768906032900322,-0.24600093061881245,-0.1362539962868091,3.788462
2025-11-22T17:45:03.798077,-0.03446672723384625,0.2763961163207052,-10.318203453619736,0.004284879173471089,-0.24681206382210016,-0.13324319267130855,3.798077
2025-11-22T17:45:03.807692,-0.0290043226749225,0.27723306695192135,-10.32228709185187,0.013990092545362766,-0.24764575503768427,-0.13003713587665885,3.807692
2025-11-22T17:45:03.817308,-0.023549726719499484,0.27789974630062236,-10.326003851997877,0.023294313367422353,-0.24854532932999424,-0.12663526489430416,3.817308
2025-11-22T17:45:03.826923,-0.01810719963806047,0.2784042550789363,-10.329298729238479,0.032156326930043735,-0.24954846365466524,-0.12303966667549894,3.826923
2025-11-22T17:45:03.836538,-0.012681330110497787,0.2787520655483302,-10.332114817762367,0.04054689798579428,-0.25068667938175954,-0.11925544059882971,3.836538
2025-11-22T17:45:03.846154,-0.007277194853693233,0.27894615507420245,-10.334394577170787,0.04844926184628996,-0.25198484228912843,-0.11529091280633173,3.846154
2025-11-22T17:45:03.855769,-0.0019004610811678574,0.278987331662708,-10.336081125440288,0.055859320054463237,-0.2534606310066668,-0.11115764468453629,3.855769
2025-11-22T17:45:03.865385,0.0034425832920887485,0.27887471026718863,-10.337119544157916,0.06278552677385763,-0.2551239956577157,-0.10687021443202833,3.865385
2025-11-22T17:45:03.875,0.008745087116679965,0.27860627772170016,-10.337458196094294,0.06924846156630934,-0.2569766784825422,-0.1024457793218089,3.875
2025-11-22T17:45:03.884615,0.013999791870530794,0.2781794788941507,-10.337050055691705,0.07528010238468473,-0.2590118848945339,-0.0979034479141299,3.884615
2025-11-22T17:45:03.894231,0.019199286854359364,0.2775917637623365,-10.335854035147499,0.08092283013907753,-0.26121417216152176,-0.09326351001580066,3.894231
2025-11-22T17:45:03.903846,0.02433635087113695,0.27684104642224183,-10.33383626379863,0.08622820792239762,-0.26355957783648937,-0.08854658654568313,3.903846
2025-11-22T17:45:03.913462,0.029404354121785013,0.27592603626802353,-10.330971259277048,0.09125558425033753,-0.26601596287586315,-0.083772764242378,3.913462
2025-11-22T17:45:03.923077,0.0343976872124629,0.27484640784799774,-10.327242914605785,0.09607057063960774,-0.268543515250522,-0.07896076635159494,3.923077
2025-11-22T17:45:03.932692,0.039312184772980416,0.27360278453405185,-10.322645212087421,0.10074343693752374,-0.27109535967767573,-0.07412718790121046,3.932692
2025-11-22T17:45:03.942308,0.04414551248894882,0.27219652853540505,-10.317182574469095,0.1053474502292301,-0.2736182406755042,-0.06928581186002519,3.942308
2025-11-22T17:45:03.951923,0.04889748293034334,0.2706293542982109,-10.310869794644733,0.10995715677020808,-0.2760532688012121,-0.06444703371909301,3.951923
2025-11-22T17:45:03.961538,0.05357026126773383,0.26890280435638964,-10.303731544023432,0.11464658121817511,-0.278336730282861,-0.05961744896060967,3.961538
2025-11-22T17:45:03.971154,0.058168424528700524,0.2670176385758948,-10.295801520307771,0.11948730773931626,-0.2804009625196515,-0.05479967488527719,3.971154
2025-11-22T17:45:03.980769,0.06269885031208641,0.2649731893661845,-10.287121333746933,0.12454642052970963,-0.28217530114219264,-0.04999246419535543,3.980769
2025-11-22T17:45:03.990385,0.0671704321130524,0.2627667322804541,-10.277739240758155,0.12988431262355793,-0.28358710948076216,-0.04519112582107272,3.990385
2025-11-22T17:45:04,0.07159364616000223,0.26039291991052027,-10.267708819342074,0.13555241542283258,-0.2845629041125633,-0.040388222542348404,4.0
2025-11-22T17:45:04.009615,0.07598001940682256,0.2578433289228202,-10.257087648943285,0.1415909544215145,-0.28502958758274866,-0.03557448540325103,4.009615
2025-11-22T17:45:04.019231,0.0803415565558767,0.2551061719214249,-10.245936020449756,0.14802689049450826,-0.2849157928079541,-0.030739872231044366,4.019231
2025-11-22T17:45:04.028846,0.08469017237318291,0.25216622485975365,-10.234315675064032,0.1548722420556004,-0.28415333862139047,-0.02587469026086465,4.028846
2025-11-22T17:45:04.038462,0.08903715390783369,0.24900501732914052,-10.222288561306314,0.16212298435890204,-0.28267879279241076,-0.020970695267540546,4.038462
2025-11-22T17:45:04.048077,0.0933926573339958,0.24560132451356367,-10.209915602305701,0.1697586841787937,-0.28043512788828834,-0.01602207735089431,4.048077
2025-11-22T17:45:04.057692,0.09776523278996442,0.2419319785136516,-10.19725547124499,0.17774295769596232,-0.27737343012937754,-0.011026254560634836,4.057692
2025-11-22T17:45:04.067308,0.10216136994806428,0.23797298097582026,-10.184363378044894,0.1860247496495035,-0.2734545896684337,-0.005984419471817334,4.067308
2025-11-22T17:45:04.076923,0.10658506520661364,0.23370085880065933,-10.17128987919436,0.19454034159589156,-0.26865087545533717,-0.0009018105377563235,4.076923
2025-11-22T17:45:04.086538,0.11103742333771909,0.22909417384007946,-10.158079738425908,0.20321592606580213,-0.2629472862224761,0.004212300850089236,4.086538
2025-11-22T17:45:04.096154,0.11551631645174991,0.22413508005460572,-10.144770885053605,0.2119705442701081,-0.25634257379828057,0.009344905294099693,4.096154
2025-11-22T17:45:04.105769,0.12001612777428425,0.21881081457844775,-10.131393532814085,0.22071918128996612,-0.2488498583919272,0.014479815878561076,4.105769
2025-11-22T17:45:04.115385,0.1245276071795995,0.2131150128688815,-10.117969532680345,0.22937583842717865,-0.24049679695666668,0.019598451411978926,4.115385
2025-11-22T17:45:04.125,0.12903786158006778,0.207048754014944,-10.104512036782069,0.23785644397917918,-0.23132531357895988,0.02468076610154593,4.125
2025-11-22T17:45:04.134615,0.13353049730666958,0.20062126397759614,-10.09102554045102,0.24608150721056962,-0.2213909342667532,0.0297062275874394,4.134615
2025-11-22T17:45:04.144231,0.1379859237237425,0.1938502246943855,-10.077506340065979,0.25397845672180225,-0.21076177581362734,0.034654748960092775,4.144231
2025-11-22T17:45:04.153846,0.1423818168926182,0.18676166050510595,-10.06394340219876,0.2614836278528636,-0.199517230315074,0.0395075036337549,4.153846
2025-11-22T17:45:04.163462,0.14669372974190376,0.17938940918380822,-10.050319599796394,0.2685438701447008,-0.18774638335164848,0.04424757966269625,4.163462
2025-11-22T17:45:04.173077,0.15089582473956484,0.17177422614523855,-10.036613245401485,0.2751177370636404,-0.1755462109306356,0.04886045385500282,4.173077
2025-11-22T17:45:04.182692,0.1549616985111648,0.16396259692033224,-10.022799840064152,0.2811762084813103,-0.16301960644452032,0.053334282747804725,4.182692
2025-11-22T17:45:04.192308,0.15886526043160454,0.15600533445350795,-10.00885395143257,0.28670289952386063,-0.15027328219264321,0.057660015044919244,4.192308
2025-11-22T17:45:04.201923,0.162581615232326,0.14795602485058548,-9.994751129225131,0.2916937337175461,-0.13741557397748524,0.06183133320216957,4.201923
2025-11-22T17:45:04.211538,0.16608789010560063,0.13986937611266237,-9.980469762320826,0.2961560915692682,-0.12455416700503906,0.06584443990222581,4.211538
2025-11-22T17:45:04.221154,0.16936395048164157,0.13179952656181007,-9.965992781276215,0.3001074747553978,-0.1117937676856305,0.06969771993400602,4.221154
2025-11-22T17:45:04.230769,0.1723929667615875,0.12379837610764624,-9.951309111079896,0.30357375502802975,-0.09923376770958464,0.07339132352180144,4.230769
2025-11-22T17:45:04.240385,0.17516181772860873,0.11591400366607306,-9.936414782826079,0.306587116564151,-0.0869659739593265,0.0769267278404297,4.240385
2025-11-22T17:45:04.25,0.177661335467346,0.10818922585249216,-9.921313629262102,0.30918384590729336,-0.07507249930826106,0.08030633317773093,4.25
2025-11-22T17:45:04.259615,0.17988640770005912,0.10066034153941769,-9.906017524633306,0.31140215405902594,-0.06362391697147043,0.08353313337700387,4.259615
2025-11-22T17:45:04.269231,0.18183595808403624,0.09335609802818244,-9.890546176542932,0.313280213689938,-0.05267776856964415,0.0866104713600477,4.269231
2025-11-22T17:45:04.278846,0.18351282534842026,0.08629690679630193,-9.874926519087328,0.31485455816144375,-0.04227748195347981,0.08954186455796291,4.278846
2025-11-22T17:45:04.288462,0.18492355797650914,0.07949433006997846,-9.859191778594441,0.3161589240934971,-0.03245171011615796,0.09233087358356858,4.288462
2025-11-22T17:45:04.298077,0.18607813281277077,0.07295085393595467,-9.843380284670145,0.31722353834197625,-0.023214070043316135,0.09498099015543597,4.298077
2025-11-22T17:45:04.307692,0.18698959793987494,0.06665995653065708,-9.827534090472177,0.31807477600044537,-0.014563258030652889,0.09749553096283975,4.307692
2025-11-22T17:45:04.317308,0.18767363830913394,0.06060647005756819,-9.811697464141668,0.3187350704221791,-0.0064835400199430284,0.09987753894189898,4.317308
2025-11-22T17:45:04.326923,0.18814806897849737,0.05476722802532508,-9.79591532931962,0.31922294490734743,0.001054364309576379,0.1021297076851928,4.326923
2025-11-22T17:45:04.336538,0.1884322719661751,0.04911198893247185,-9.780231757736852,0.31955305153210367,0.008091988904545402,0.10425434878340382,4.336538
2025-11-22T17:45:04.346154,0.18854660173856957,0.04360462992790594,-9.764688626757932,0.3197361396526459,0.014681435072383281,0.10625340924814207,4.346154
2025-11-22T17:45:04.355769,0.18851178600018734,0.03820459585761302,-9.749324534316996,0.31977892961492715,0.02088334558973608,0.1081285235851362,4.355769
2025-11-22T17:45:04.365385,0.18834834330352823,0.03286856224569576,-9.734174019680918,0.3196839247631929,0.02676462019244431,0.10988106828770844,4.365385
2025-11-22T17:45:04.375,0.1880760307691326,0.027552231692066997,-9.71926708793458,0.31944924128073887,0.032395959200163534,0.11151218504710153,4.375
2025-11-22T17:45:04.384615,0.18771332732535154,0.022212149916862947,-9.704628992405384,0.319068555044027,0.03784931794526637,0.11302274896441279,4.384615
2025-11-22T17:45:04.394231,0.1872769538768987,0.016807416910214514,-9.690280202260144,0.31853124845814285,0.04319535823641639,0.11441327115361744,4.394231
2025-11-22T17:45:04.403846,0.18678143295139865,0.01130118542534289,-9.676236479875572,0.3178227971963913,0.04850099945895865,0.11568373959473484,4.403846
2025-11-22T17:45:04.413462,0.1862386931579617,0.005661875754556462,-9.662509011705499,0.3169253914746536,0.05382719313950279,0.11683341937166551,4.413462
2025-11-22T17:45:04.423077,0.1856577253696124,-0.00013592211472041764,-9.649104561568615,0.3158187561079232,0.059227053958933996,0.11786064818707952,4.423077
2025-11-22T17:45:04.432692,0.1850443001137452,-0.006110853706817374,-9.636025631194375,0.314481115941604,0.06474445668887757,0.1187626659363188,4.432692
2025-11-22T17:45:04.442308,0.18440076175110673,-0.012274488182736258,-9.623270616870105,0.31289024209061467,0.07041314933257403,0.1195355074491836,4.442308
2025-11-22T17:45:04.451923,0.18372592243320898,-0.018631260529317007,-9.610833950526304,0.3110245137006515,0.07625636667423348,0.12017397564177495,4.451923
2025-11-22T17:45:04.461538,0.1830150813549914,-0.02517864342687627,-9.598706217731364,0.30886394493984254,0.08228688841941215,0.12067170679813591,4.461538
2025-11-22T17:45:04.471154,0.1822601865938947,-0.03190752882475657,-9.58687425930512,0.30639114974166437,0.08850747309052828,0.12102133758022413,4.471154
2025-11-22T17:45:04.480769,0.18145013840068747,-0.03880279736126809,-9.575321284442262,0.3035922313180945,0.09491159169127689,0.12121477798101064,4.480769
2025-11-22T17:45:04.490385,0.1805712134025864,-0.045844045023584176,-9.56402703975686,0.30045758230518116,0.10148437497724688,0.12124358708167753,4.490385
2025-11-22T17:45:04.5,0.17960757944578645,-0.053006423296653546,-9.552968081077484,0.29698257028270914,0.10820368453568373,0.1210994443663013,4.5
2025-11-22T17:45:04.509615,0.17854187254070436,-0.06026153608143973,-9.542118185112434,0.29316807352833224,0.11504123008792386,0.12077470542144168,4.509615
2025-11-22T17:45:04.519231,0.17735581276640852,-0.06757833186190444,-9.53144892516698,0.28902083531174794,0.12196368065755553,0.12026301704534556,4.519231
2025-11-22T17:45:04.528846,0.1760308377875728,-0.07492393959537372,-9.520930424535447,0.28455362592510386,0.12893374376751895,0.11955994122294661,4.528846
2025-11-22T17:45:04.538462,0.17454873126280937,-0.08226441874822603,-9.510532291364893,0.279785223395272,0.13591120409076532,0.11866351424126935,4.538462
2025-11-22T17:45:04.548077,0.17289222211180566,-0.08956541512854602,-9.500224722712094,0.27474022078806676,0.14285391884552667,0.11757466462607088,4.548077
2025-11-22T17:45:04.557692,0.17104552971217532,-0.09679272313091636,-9.48997973728086,0.26944863768111527,0.14971876674076726,0.11629743497572324,4.557692
2025-11-22T17:45:04.567308,0.16899483020090728,-0.10391275381829776,-9.4797724605502,0.26394528334369055,0.1564625475258878,0.1148389837455288,4.567308
2025-11-22T17:45:04.576923,0.16672862407114625,-0.11089291107214791,-9.469582358731223,0.2582688198667948,0.1630428343761881,0.1132093676945862,4.576923
2025-11-22T17:45:04.586538,0.16423799781733361,-0.11770189406216111,-9.45939431465036,0.2524605116309169,0.16941878779156697,0.11142112110804513,4.586538
2025-11-22T17:45:04.596154,0.16151678838592118,-0.12430996645327039,-9.44919946310939,0.2465627031140979,0.1755519374932245,0.10948866011135222,4.596154
2025-11-22T17:45:04.605769,0.1585616698012593,-0.1306892459019909,-9.438995745128148,0.24061711424136428,0.18140692183467455,0.1074275530075647,4.605769
2025-11-22T17:45:04.615385,0.1553721806308958,-0.13681406263116602,-9.428788178502638,0.23466307093134878,0.18695214788515474,0.10525370936106027,4.615385
2025-11-22T17:45:04.625,0.1519507008495004,-0.1426614144353773,-9.418588859187546,0.2287357998544835,0.19216031614154996,0.10298254905039474,4.625
2025-11-22T17:45:04.634615,0.14830237498481472,-0.1482115138042686,-9.408416708689522,0.22286491126868363,0.19700875995699205,0.10062821597348345,4.634615
2025-11-22T17:45:04.644231,0.14443497274584224,-0.1534483894320927,-9.398296987461002,0.2170731751969985,0.20147958497291693,0.09820290006107046,4.644231
2025-11-22T17:45:04.653846,0.14035868017515982,-0.15836047938290337,-9.388260614071884,0.21137567401302185,0.2055596411199375,0.09571632739553063,4.653846
2025-11-22T17:45:04.663462,0.1360858194996606,-0.16294114449298897,-9.37834335291253,0.20577939443883997,0.20924039543125356,0.09317546913995417,4.663462
2025-11-22T17:45:04.673077,0.1316305015574707,-0.16718903701382964,-9.368584938763759,0.2002832990238142,0.21251778624888062,0.09058450136534169,4.673077
2025-11-22T17:45:04.682692,0.12700822346535687,-0.17110827237262372,-9.359028187707075,0.19487888426007244,0.2153921309708046,0.08794502325798177,4.682692
2025-11-22T17:45:04.692308,0.12223543712432182,-0.17470836646209056,-9.349718112796749,0.1895511893268823,0.21786813514149111,0.08525652015905714,4.692308
2025-11-22T17:45:04.701923,0.11732912503716313,-0.1780039202155444,-9.340701037648659,0.18428017342425634,0.21995501079349947,0.08251704225237232,4.701923
2025-11-22T17:45:04.711538,0.11230642037963927,-0.18101405862330064,-9.332023691165983,0.1790423416867524,0.22166666200211943,0.07972405123025811,4.711538
2025-11-22T17:45:04.721154,0.10718429612290663,-0.18376165593194993,-9.323732271996036,0.17381247917511689,0.22302185705460748,0.0768753617800761,4.721154
2025-11-22T17:45:04.730769,0.10197932854864356,-0.18627239500289688,-9.315871487651803,0.16856535543566586,0.22404430151896196,0.07397008051938757,4.730769
2025-11-22T17:45:04.740385,0.09670752267186507,-0.18857371514919966,-9.308483591679137,0.16327728926915697,0.22476254777266907,0.07100943371700953,4.740385
2025-11-22T17:45:04.75,0.09138417918584177,-0.19069370031635846,-9.30160744982584,0.15792750492058022,0.22520969527734658,0.06799738255798114,4.75
2025-11-22T17:45:04.759615,0.08602378719917703,-0.19265994940536,-9.295277657566983,0.15249924772980672,0.22542284398644755,0.06494095296128928,4.759615
2025-11-22T17:45:04.769231,0.08063993804273231,-0.19449845812663272,-9.289523717798545,0.1469806436588563,0.2254422835586107,0.06185025332312143,4.769231
2025-11-22T17:45:04.778846,0.0752452633481169,-0.1962325373330222,-9.284369285697437,0.14136528436958373,0.2253104467126943,0.0587382033860424,4.778846
2025-11-22T17:45:04.788462,0.06985140231801536,-0.19788180317702936,-9.27983150297383,0.13565251432213385,0.22507070332441267,0.05562003159454814,4.788462
2025-11-22T17:45:04.798077,0.06446900137406208,-0.199461293647858,-9.27592046764201,0.1298474042224502,0.22476609077069115,0.05251261087253921,4.798077
2025-11-22T17:45:04.807692,0.05910774541102607,-0.20098077871975345,-9.27263890477398,0.12396041671149517,0.2244380621275162,0.049433701374166895,4.807692
2025-11-22T17:45:04.817308,0.053776413306683896,-0.2024443279277125,-9.269982108262536,0.11800679110085976,0.22412531006505831,0.046401159516134466,4.817308
2025-11-22T17:45:04.826923,0.048482943711109734,-0.20385018291557114,-9.267938209238961,0.11200567812499611,0.22386271011965053,0.043432156506420835,4.826923
2025-11-22T17:45:04.836538,0.043234495092975986,-0.20519095987928002,-9.266488795658177,0.10597904377605637,0.22368042379637323,0.04054243215618167,4.836538
2025-11-22T17:45:04.846154,0.0380374885867544,-0.2064541792095779,-9.265609867957101,0.09995035388116892,0.22360320191121444,0.03774560062858334,4.846154
2025-11-22T17:45:04.855769,0.03289763033952618,-0.20762308838928106,-9.265273079538927,0.09394306765568278,0.2236499237234196,0.035052524936435,4.855769
2025-11-22T17:45:04.865385,0.0278199154865878,-0.20867771559988246,-9.265447186548775,0.08797900640771696,0.2238333899967445,0.032470777154184706,4.865385
2025-11-22T17:45:04.875,0.022808614285699372,-0.20959607192431423,-9.266099617435296,0.08207670246652181,0.22416035623946917,0.030004196130974478,4.875
2025-11-22T17:45:04.884615,0.017867234542533927,-0.2103554127834082,-9.267198062646937,0.07624985610533389,0.2246317580715744,0.027652549374138687,4.884615
2025-11-22T17:45:04.894231,0.012998450926607716,-0.2109334753469179,-9.268711977998136,0.07050603240989056,0.2252430626379,0.025411307502433183,4.894231
2025-11-22T17:45:04.903846,0.008203996970503828,-0.21130962439685297,-9.27061389684965,0.06484572174757625,0.22598468501219635,0.02327154813592305,4.903846
2025-11-22T17:45:04.913462,0.0034845263661750863,-0.21146585673978566,-9.272880460042408,0.05926186830767992,0.22684242590837367,0.0212200157981943,4.913462
2025-11-22T17:45:04.923077,-0.0011605429735004561,-0.21138762988466286,-9.275493101515295,0.053739935619394316,0.2277979015937279,0.019239368067519635,4.923077
2025-11-22T17:45:04.932692,-0.005733189436646623,-0.21106449649863052,-9.2784383723147,0.04825852523666759,0.2288289427569254,0.01730862827187943,4.932692
2025-11-22T17:45:04.942308,-0.01023693982301012,-0.21049054310428517,-9.281707936369106,0.042790505625885676,0.22990994051350344,0.015403838858411734,4.942308
2025-11-22T17:45:04.951923,-0.014676989090795655,-0.20966464527183862,-9.285298310588152,0.0373045553973082,0.23101212187864995,0.013498878500997952,4.951923
2025-11-22T17:45:04.961538,-0.01906024850159062,-0.20859055691357017,-9.289210437151683,0.03176698618166864,0.23210374731861824,0.011566390722678009,4.961538
2025-11-22T17:45:04.971154,-0.02339528037890923,-0.20727684791449358,-9.293449164982457,0.026143691044724714,0.23315023838160642,0.009578779293413843,4.971154
2025-11-22T17:45:04.980769,-0.027692094114685012,-0.205736698140938,-9.298022687631311,0.02040206516320839,0.23411426167350413,0.007509239405973866,4.980769
2025-11-22T17:45:04.990385,-0.031961801879949236,-0.20398755377893815,-9.30294195105121,0.014512761944788318,0.23495581373770255,0.005332794507968031,4.990385
2025-11-22T17:45:05,-0.03621615013249792,-0.20205065415250775,-9.30822002191119,0.008451178067342186,0.2356323654147593,0.00302729606973738,5.0
2025-11-22T17:45:05.009615,-0.040466952443845954,-0.1999504362343758,-9.31387140148238,0.002198604729166035,0.23609913236475435,0.0005743317380447822,5.009615
2025-11-22T17:45:05.019231,-0.044725455602975236,-0.1977138156046938,-9.319911278261236,-0.004256970641944598,0.23630954423898048,-0.002040012442219258,5.019231
2025-11-22T17:45:05.028846,-0.04900167636999762,-0.19536933457472752,-9.326354726859593,-0.01092039355456234,0.23621598827074733,-0.004824581921205638,5.028846
2025-11-22T17:45:05.038462,-0.05330374856247981,-0.19294617251156249,-9.333215875092648,-0.017789167892362352,0.2357708917110597,-0.007782818299192714,5.038462
2025-11-22T17:45:05.048077,-0.05763732021500507,-0.19047303151784348,-9.340507071929967,-0.024853540125194976,0.2349281695369672,-0.010912702421757955,5.048077
2025-11-22T17:45:05.057692,-0.06200504260996634,-0.18797693530079465,-9.348238095176523,-0.03209680426020727,0.2336450047742126,-0.01420701002106045,5.057692
2025-11-22T17:45:05.067308,-0.0664061961293404,-0.1854820038231731,-9.356415441246659,-0.039495785048951244,0.23188386538748423,-0.017653886033711024,5.067308
2025-11-22T17:45:05.076923,-0.07083649472842325,-0.18300828453115803,-9.365041739448934,-0.04702145651150387,0.22961460379660376,-0.02123770716330284,5.076923
2025-11-22T17:45:05.086538,-0.0752880974959117,-0.1805707251021845,-9.374115323504196,-0.05463966677987777,0.2268164401601536,-0.024940169712601216,5.086538
2025-11-22T17:45:05.096154,-0.079749835376629,-0.17817836226742073,-9.383629970153475,-0.062311959988330376,0.22347961860708532,-0.028741517020091995,5.096154
2025-11-22T17:45:05.105769,-0.08420763715395038,-0.17583378315060158,-9.393574786919725,-0.06999649080921873,0.2196065642308983,-0.03262181062232868,5.105769
2025-11-22T17:45:05.115385,-0.08864511347771888,-0.1735328948323679,-9.403934213743968,-0.0776490107649922,0.2152124435390411,-0.03656215032191598,5.115385
2025-11-22T17:45:05.125,-0.09304423701009722,-0.1712650168820378,-9.414688106454767,-0.08522388288591785,0.2103251026967892,-0.04054575642482945,5.125
2025-11-22T17:45:05.134615,-0.09738604966481254,-0.16901329287644384,-9.425811890662892,-0.09267507255479449,0.2049844012533249,-0.04455884337559412,5.134615
2025-11-22T17:45:05.144231,-0.10165133949766893,-0.16675539915829188,-9.43727679853851,-0.09995707244934862,0.1992409813030141,-0.04859124120780081,5.144231
2025-11-22T17:45:05.153846,-0.10582125577303432,-0.16446450822439745,-9.449050214953921,-0.10702573659300764,0.19315453344063083,-0.05263675405412878,5.153846
2025-11-22T17:45:05.163462,-0.10987785834717523,-0.1621104420853149,-9.461096161818483,-0.11383901029396598,0.18679165131499487,-0.056693271371519735,5.163462
2025-11-22T17:45:05.173077,-0.11380461303312167,-0.15966093668132933,-9.473375945309844,-0.12035755059199857,0.18022339829970643,-0.060762658868339474,5.173077
2025-11-22T17:45:05.182692,-0.1175868433293197,-0.15708293940254098,-9.48584898200881,-0.1265452466154683,0.17352272464538748,-0.064850448417487,5.182692
2025-11-22T17:45:05.192308,-0.12121213825273404,-0.15434387613604333,-9.498473803978099,-0.1323696720346353,0.16676186124145265,-0.06896532389970096,5.192308
2025-11-22T17:45:05.201923,-0.12467070698581977,-0.15141284184652043,-9.511209218611782,-0.1378025130510601,0.16000978758523174,-0.07311838282963215,5.201923
2025-11-22T17:45:05.211538,-0.1279556681551852,-0.14826167979042937,-9.524015572706578,-0.14281999333548143,0.15332984837063293,-0.07732216543599045,5.211538
2025-11-22T17:45:05.221154,-0.13106326288682693,-0.1448659178171725,-9.536856052129094,-0.14740326725622588,0.1467775862331549,-0.08158948532234163,5.221154
2025-11-22T17:45:05.230769,-0.13399298309424962,-0.14120553294040836,-9.549697941253369,-0.15153870553886,0.14039886179205163,-0.08593214409421035,5.230769
2025-11-22T17:45:05.240385,-0.13674760747052186,-0.1372655252136767,-9.562513760917579,-0.15521798004960913,0.13422833426187303,-0.09035963944614903,5.240385
2025-11-22T17:45:05.25,-0.13933313696140714,-0.1330362985985694,-9.575282195340986,-0.1584378728546644,0.128288369629702,-0.09487797627872228,5.25
2025-11-22T17:45:05.259615,-0.14175862066331454,-0.12851386272124585,-9.58798871729388,-0.1611997805320923,0.12258842991997845,-0.09948867692443761,5.259615
2025-11-22T17:45:05.269231,-0.1440358631526012,-0.1236998791669219,-9.600625837715556,-0.1635089422442831,0.11712497787791634,-0.10418807239865795,5.269231
2025-11-22T17:45:05.278846,-0.14617900522758306,-0.11860157634626622,-9.613192939286172,-0.16537347305112088,0.1118819019857063,-0.10896694022890517,5.278846
2025-11-22T17:45:05.288462,-0.14820397378677583,-0.11323154703832128,-9.625695694094288,-0.16680332425052324,0.10683142877779712,-0.1138105273772891,5.288462
2025-11-22T17:45:05.298077,-0.15012780568365156,-0.10760742736685673,-9.638145105817692,-0.16780931809704552,0.10193545721453609,-0.11869895904278117,5.298077
2025-11-22T17:45:05.307692,-0.15196786403764712,-0.10175144560613149,-9.650556252944643,-0.1684024080578192,0.09714723105369322,-0.12360799538486887,5.307692
2025-11-22T17:45:05.317308,-0.15374097995995592,-0.09568983136352055,-9.66294683987359,-0.16859328804265292,0.09241325392741974,-0.12851006748946328,5.317308
2025-11-22T17:45:05.326923,-0.15546256452519158,-0.08945208980587739,-9.675335682354465,-0.1683924164159857,0.08767534827627271,-0.1333755043083022,5.326923
2025-11-22T17:45:05.336538,-0.1571457424099442,-0.08307016407717503,-9.687741254039066,-0.167810449909607,0.08287277294271328,-0.1381738538032537,5.336538
2025-11-22T17:45:05.346154,-0.1588005594536056,-0.07657752058802632,-9.700180398825825,-0.16685902013315443,0.07794434441052316,-0.14287520391470546,5.346154
2025-11-22T17:45:05.355769,-0.16043331438883343,-0.07000819007179462,-9.712667275803119,-0.16555174518445867,0.07283053575262322,-0.14745142081096838,5.355769
2025-11-22T17:45:05.365385,-0.16204606215814574,-0.06339578949178772,-9.725212560680932,-0.16390535328378858,0.06747553652130875,-0.1518772387170252,5.365385
2025-11-22T17:45:05.375,-0.16363633044025433,-0.05677254987429977,-9.73782289254729,-0.16194079855911417,0.06182924178011253,-0.15613115176406406,5.375
2025-11-22T17:45:05.384615,-0.16519708031521707,-0.05016838544093498,-9.75050054006658,-0.15968426222236673,0.05584911254737872,-0.16019607057695848,5.384615
2025-11-22T17:45:05.394231,-0.16671692767732785,-0.04361004806939007,-9.76324326903074,-0.15716794642155843,0.049501838009621844,-0.16405971640728348,5.394231
2025-11-22T17:45:05.403846,-0.16818062448007842,-0.03712040664336673,-9.776044412632416,-0.15443057688405537,0.04276475013882398,-0.1677147388709576,5.403846
2025-11-22T17:45:05.413462,-0.1695697769549243,-0.030717874213103014,-9.78889316206822,-0.1515175346144498,0.03562698318104548,-0.17115856361874598,5.413462
2025-11-22T17:45:05.423077,-0.17086375462189338,-0.024415989017581293,-9.801775096117174,-0.1484805452583615,0.028090399075629973,-0.17439300068001237,5.423077
2025-11-22T17:45:05.432692,-0.17204072704051843,-0.018223150886300134,-9.814672949015325,-0.14537688003241442,0.020170287561836454,-0.17742366270334753,5.432692
2025-11-22T17:45:05.442308,-0.17307875962449615,-0.012142523828050684,-9.827567582575329,-0.14226806915290394,0.011895798101455034,-0.1802592440206135,5.442308
2025-11-22T17:45:05.451923,-0.1739569025716631,-0.006172127692287961,-9.840439095262994,-0.13921818603491903,0.003309998343399095,-0.18291069643589494,5.451923
2025-11-22T17:45:05.461538,-0.17465621260803849,-0.0003051446960054188,-9.853267978168342,-0.13629180905901514,-0.005530581324852927,-0.18539032173185982,5.461538
2025-11-22T17:45:05.471154,-0.17516065526209335,0.005469543803222994,-9.866036217477603,-0.1335517975022076,-0.014557041634127256,-0.1877108023861767,5.471154
2025-11-22T17:45:05.480769,-0.17545784872852363,0.011166596774986954,-9.878728246517687,-0.13105703145578887,-0.02368990887589584,-0.1898842130189115,5.480769
2025-11-22T17:45:05.490385,-0.17553962782380667,0.016803263314842592,-9.891331673018724,-0.12886026458863237,-0.03284161031056821,-0.19192108102450112,5.490385
2025-11-22T17:45:05.5,-0.17540242172870676,0.0223983017238815,-9.903837746816498,-0.12700622212575416,-0.041919537219287775,-0.19382958007876747,5.5
2025-11-22T17:45:05.509615,-0.1750474471098178,0.027970842550508107,-9.916241571649818,-0.12553004846148022,-0.05082954748162336,-0.19561493864376886,5.509615
2025-11-22T17:45:05.519231,-0.17448071863140138,0.03353927485806028,-9.9285420853663,-0.12445617988814359,-0.05947971951728655,-0.19727912825451477,5.519231
2025-11-22T17:45:05.528846,-0.1737128757203673,0.03912022783025828,-9.940741839851718,-0.12379769270625678,-0.06778414177747509,-0.19882086709183697,5.528846
2025-11-22T17:45:05.538462,-0.1727588232679723,0.044727702308516686,-9.952846618335768,-0.12355615076768407,-0.07566651460574593,-0.20023593932953102,5.538462
2025-11-22T17:45:05.548077,-0.1716371869063323,0.050372386065990864,-9.964864935218937,-0.12372194582623734,-0.08306336005159339,-0.2015177972029972,5.548077
2025-11-22T17:45:05.557692,-0.17036958777979386,0.05606117172726601,-9.97680746645165,-0.12427509192498082,-0.0899266699744277,-0.20265838508036535,5.557692
2025-11-22T17:45:05.567308,-0.16897974694699378,0.06179688914786861,-9.988686454469784,-0.12518640372345205,-0.09622585587691981,-0.20364910409563564,5.567308
2025-11-22T17:45:05.576923,-0.16749244194153434,0.0675782587556182,-10.000515119713087,-0.12641895696515207,-0.10194889088755155,-0.20448182340824583,5.576923
2025-11-22T17:45:05.586538,-0.16593236045986934,0.07340006359174127,-10.012307089696163,-0.1279297018957539,-0.10710256821702302,-0.20514984271962713,5.586538
2025-11-22T17:45:05.596154,-0.1643229193801363,0.07925352529367063,-10.02407583255517,-0.12967109223245316,-0.11171185619262158,-0.20564872240582788,5.596154
2025-11-22T17:45:05.605769,-0.16268512906701385,0.08512685421597425,-10.035834066648384,-0.13159261398616232,-0.11581840636260864,-0.2059769210567027,5.605769
2025-11-22T17:45:05.615385,-0.16103658124509942,0.09100592783323454,-10.047593118020812,-0.13364214162697144,-0.11947834674912737,-0.20613620906447402,5.615385
2025-11-22T17:45:05.625,-0.15939063038700982,0.09687503942798988,-10.059362212643746,-0.13576709394368483,-0.12275954269955773,-0.20613185296139896,5.625
2025-11-22T17:45:05.634615,-0.1577558276110565,0.10271765773987218,-10.07114771343151,-0.13791539503422628,-0.12573852394380303,-0.20597258328973572,5.634615
2025-11-22T17:45:05.644231,-0.15613564939026542,0.1085171499762716,-10.082952332206656,-0.14003626290543544,-0.12849726339396728,-0.20567036767071797,5.644231
2025-11-22T17:45:05.653846,-0.15452853799069552,0.114257439509395,-10.094774358069094,-0.14208085039674734,-0.1311199630712629,-0.20524001212173434,5.653846
2025-11-22T17:45:05.663462,-0.1529282409985832,0.11992358610565604,-10.106606948163883,-0.14400275935344997,-0.13368997161755072,-0.20469861311756626,5.663462
2025-11-22T17:45:05.673077,-0.15132441135431204,0.1255022852519246,-10.118437525347627,-0.14575844985842942,-0.13628693614946946,-0.20406488641063708,5.673077
2025-11-22T17:45:05.682692,-0.14970340961005524,0.13098228586652447,-10.13024731803008,-0.1473075718355773,-0.13898427673704752,-0.20335840468741967,5.682692
2025-11-22T17:45:05.692308,-0.14804923526312885,0.13635472552045247,-10.142011066675185,-0.148613245778737,-0.14184705908434495,-0.20259877654212227,5.692308
2025-11-22T17:45:05.701923,-0.14634450647255368,0.14161337759878045,-10.153696920758348,-0.14964230517728533,-0.1449303241686959,-0.20180479069263255,5.701923
2025-11-22T17:45:05.711538,-0.14457141315574984,0.14675479377310877,-10.165266561909478,-0.15036549146146877,-0.14827790419490855,-0.2009935405073797,5.711538
2025-11-22T17:45:05.721154,-0.1427125869468159,0.1517783134894729,-10.176675602528764,-0.15075757787120034,-0.1519217126510609,-0.20017954858280917,5.721154
2025-11-22T17:45:05.730769,-0.14075185337641488,0.1566859086733639,-10.187874309609784,-0.15079740109393552,-0.15588146151189125,-0.1993739340334299,5.730769
2025-11-22T17:45:05.740385,-0.13867484746226189,0.16148183853414128,-10.198808682922245,-0.1504677951247062,-0.16016474998269598,-0.19858369485220348,5.740385
2025-11-22T17:45:05.75,-0.13646948169307788,0.16617210522308787,-10.20942187872664,-0.1497554380747419,-0.1647674813923284,-0.19781119480081458,5.75
2025-11-22T17:45:05.759615,-0.1341262606713155,0.1707637290783899,-10.219655928490534,-0.14865063180993682,-0.16967457744788292,-0.19705393635212337,5.759615
2025-11-22T17:45:05.769231,-0.13163844689958001,0.17526389849127524,-10.22945367225233,-0.14714704135134066,-0.1748609626418683,-0.1963046687497291,5.769231
2025-11-22T17:45:05.778846,-0.12900209809022806,0.17967907504538216,-10.238760815678203,-0.14524143138711312,-0.18029278727460554,-0.19555183201151338,5.778846
2025-11-22T17:45:05.788462,-0.1262160098714077,0.1840141346194117,-10.24752802292657,-0.1429334435769858,-0.18592884370213994,-0.19478028561818866,5.788462
2025-11-22T17:45:05.798077,-0.12328160130340098,0.1882716085994465,-10.25571296070618,-0.14022544938317913,-0.19172211038157733,-0.19397222843541148,5.798077
2025-11-22T17:45:05.807692,-0.12020277458861178,0.19245107607473608,-10.26328220266099,-0.13712248910541627,-0.1976213472464319,-0.19310819538965623,5.807692
2025-11-22T17:45:05.817308,-0.1169857680676826,0.19654875452882142,-10.270212888609072,-0.13363228122064644,-0.20357267372485136,-0.19216801954387697,5.817308
2025-11-22T17:45:05.826923,-0.11363900365193297,0.20055733461274342,-10.276494019573835,-0.12976527142794206,-0.20952108057636537,-0.19113167180334215,5.826923
2025-11-22T17:45:05.836538,-0.11017290888670685,0.20446609426619897,-10.282127269465539,-0.12553469206622989,-0.21541185003487986,-0.18997992830730911,5.836538
2025-11-22T17:45:05.846154,-0.10659967807016495,0.20826130620215302,-10.28712721726414,-0.12095661309488523,-0.22119188465449205,-0.18869485735381325,5.846154
2025-11-22T17:45:05.855769,-0.10293293329781814,0.2119269251229699,-10.291520947129573,-0.1160499770745972,-0.2268109685077748,-0.1872601512884854,5.855769
2025-11-22T17:45:05.865385,-0.09918725584101494,0.21544551405787504,-10.295347013624596,-0.11083661579031932,-0.23222299115807796,-0.18566134847173266,5.865385
2025-11-22T17:45:05.875,-0.09537757876345068,0.21879934682345126,-10.298653813589295,-0.10534124087924887,-0.23738714664947727,-0.18388599666176098,5.875
2025-11-22T17:45:05.884615,-0.09151846004998551,0.2219716047615457,-10.301497445844989,-0.09959138688960333,-0.2422690783690697,-0.18192380258458793,5.884615
2025-11-22T17:45:05.894231,-0.08762328635280629,0.22494756989283987,-10.30393917898557,-0.0936172707920938,-0.24684188542799965,-0.17976679702898604,5.894231
2025-11-22T17:45:05.903846,-0.08370348326761134,0.22771570928903584,-10.306042681845412,-0.0874515262873323,-0.25108686003114467,-0.1774095306609645,5.903846
2025-11-22T17:45:05.913462,-0.07976782104218835,0.23026855597230855,-10.307871190447155,-0.08112877917865907,-0.254993818176675,-0.17484931069038975,5.913462
2025-11-22T17:45:05.923077,-0.0758218991607429,0.23260332091520958,-10.309484783278062,-0.07468504863263546,-0.25856092999774205,-0.17208648982435545,5.923077
2025-11-22T17:45:05.932692,-0.07186787028734788,0.2347222067438439,-10.310937916305157,-0.06815697986281821,-0.26179403556351755,-0.16912481728162326,5.932692
2025-11-22T17:45:05.942308,-0.06790443265689922,0.23663242252675926,-10.31227733842472,-0.061580932398118515,-0.26470551906935663,-0.16597184932024994,5.942308
2025-11-22T17:45:05.951923,-0.06392709016070978,0.23834591712580303,-10.313540475834486,-0.054991969436136726,-0.2673128813705226,-0.1626393919523722,5.951923
2025-11-22T17:45:05.961538,-0.05992865417641905,0.2398788604721969,-10.31475434424437,-0.048422821585067145,-0.2696371763062559,-0.15914391709658585,5.961538
2025-11-22T17:45:05.971154,-0.05589993981948431,0.24125091008699617,-10.315935017936235,-0.041902921404902614,-0.27170145891496456,-0.1555068669576719,5.971154
2025-11-22T17:45:05.980769,-0.05183059361290933,0.2424843031344379,-10.317087650117129,-0.03545760184803378,-0.27352935646262827,-0.15175475131788627,5.980769
2025-11-22T17:45:05.990385,-0.04770998259708996,0.2436028128856826,-10.31820700280055,-0.029107515418458334,-0.2751438406401266,-0.14791895544271247,5.990385
2025-11-22T17:45:06,-0.04352807611123381,0.24463060703323347,-10.31927841596019,-0.022868286462474866,-0.276566254870498,-0.14403521273288608,6.0
2025-11-22T17:45:06.009615,-0.039276257577633165,0.2455910497911908,-10.320279129635123,-0.016750389277289342,-0.27781562325877757,-0.14014274647964012,6.009615
2025-11-22T17:45:06.019231,-0.03494801269291434,0.24650550188212464,-10.321179864034697,-0.01075925185077581,-0.27890823312052987,-0.13628312957343133,6.019231
2025-11-22T17:45:06.028846,-0.03053945311195247,0.24739218635474072,-10.32194655587043,-0.004895590123031555,-0.27985745141109497,-0.13249893296640383,6.028846
2025-11-22T17:45:06.038462,-0.02604965105139469,0.24826519557559473,-10.322542146383014,0.0008440414083999866,-0.2806737186037805,-0.128832234042399,6.038462
2025-11-22T17:45:06.048077,-0.021480778133377204,0.2491337132926991,-10.322928323453596,0.0064665319227864265,-0.2813646649135185,-0.12532304761458354,6.048077
2025-11-22T17:45:06.057692,-0.016838059575715516,0.25000151678079635,-10.3230671382418,0.011981408106129467,-0.2819353095956276,-0.12200773217653091,6.057692
2025-11-22T17:45:06.067308,-0.012129571359640245,0.25086680531669986,-10.322922442311032,0.01740003251080753,-0.2823883234380143,-0.11891741585779089,6.067308
2025-11-22T17:45:06.076923,-0.007365919196713707,0.2517223689237623,-10.322461115994958,0.022734895886409826,-0.2827243423248255,-0.11607648988130996,6.076923
2025-11-22T17:45:06.086538,-0.0025598391045622278,0.25255607150022547,-10.321654072679022,0.027999065215706418,-0.28294231307857215,-0.11350123590664261,6.086538
2025-11-22T17:45:06.096154,0.002274248464344917,0.2533515899981441,-10.320477023671074,0.03320579859571595,-0.2830398455806858,-0.1111986746373354,6.096154
2025-11-22T17:45:06.105769,0.007120708285404446,0.2540893357777449,-10.318910984210092,0.03836828754945323,-0.28301354838961046,-0.1091657316384538,6.105769
2025-11-22T17:45:06.115385,0.01196316708983688,0.25474748225281624,-10.316942507446687,0.04349946425375227,-0.2828593359244116,-0.10738880882632394,6.115385
2025-11-22T17:45:06.125,0.016784985533654564,0.255303024773121,-10.314563654105333,0.04861182129775438,-0.28257270493572584,-0.10584382945402408,6.125
2025-11-22T17:45:06.134615,0.021569720161228687,0.25573279904788826,-10.311771729894945,0.053717218744603716,-0.2821489787594889,-0.10449679479655621,6.134615
2025-11-22T17:45:06.144231,0.026301574498285133,0.2560143884424507,-10.308568837852164,0.058826678180122126,-0.28158351078498683,-0.10330485649661372,6.144231
2025-11-22T17:45:06.153846,0.030965835863941558,0.2561268690867984,-10.304961298799782,0.06395017578586895,-0.2808718370670218,-0.10221787134201939,6.153846
2025-11-22T17:45:06.163462,0.03554928841798383,0.2560513763022592,-10.300958995685885,0.06909644493243351,-0.2800097810670172,-0.1011803646472526,6.163462
2025-11-22T17:45:06.173077,0.040040590430268586,0.2557715107786185,-10.296574694047083,0.0742727899423959,-0.27899352989363724,-0.1001337865739539,6.173077
2025-11-22T17:45:06.182692,0.044430606039003416,0.25527361965699935,-10.291823377455053,0.07948490803720074,-0.277819704009989,-0.0990189088213404,6.182692
2025-11-22T17:45:06.192308,0.04871268560273546,0.25454698224204986,-10.286721623545413,0.08473672264435647,-0.2764854300142785,-0.0977781869058845,6.192308
2025-11-22T17:45:06.201923,0.05288289145398542,0.2535839134278414,-10.281287047313805,0.09003024410642987,-0.27498840999616087,-0.09635791925871626,6.201923
2025-11-22T17:45:06.211538,0.056940164404065026,0.25237978399850436,-10.275537849839251,0.09536548326251994,-0.273326969021842,-0.09471007560085934,6.211538
2025-11-22T17:45:06.221154,0.06088641773066895,0.250932952306124,-10.269492511634573,0.10074044012346797,-0.2715000573072989,-0.09279372857512945,6.221154
2025-11-22T17:45:06.230769,0.06472653234409055,0.2492446041488285,-10.263169646734587,0.10615117224106659,-0.26950718935236484,-0.09057607634488946,6.230769
2025-11-22T17:45:06.240385,0.06846821936733744,0.24731850374332004,-10.256587994472117,0.11159192373938923,-0.2673483211486946,-0.08803307626796116,6.240385
2025-11-22T17:45:06.25,0.07212172422919168,0.24516067013670761,-10.249766492886648,0.11705527678031005,-0.26502369338582804,-0.08514972707329418,6.25
2025-11-22T17:45:06.259615,0.07569937035361612,0.24277900972536584,-10.242724367990329,0.12253227850237387,-0.2625336914587625,-0.08192004622110492,6.259615
2025-11-22T17:45:06.269231,0.0792149711374453,0.2401829476941663,-10.235481184861568,0.12801250247291504,-0.2598787811202642,-0.07834679124861195,6.269231
2025-11-22T17:45:06.278846,0.0826831631216745,0.2373831008210526,-10.228056826419282,0.1334840241849137,-0.25705956990421674,-0.07444097369114025,6.278846
2025-11-22T17:45:06.288462,0.08611872274039023,0.23439102247546068,-10.220471387058774,0.13893331546825508,-0.2540770253330953,-0.07022121956342682,6.288462
2025-11-22T17:45:06.298077,0.08953592335529792,0.2312190329531423,-10.212744990458575,0.1443450839297099,-0.2509328562813092,-0.06571303905547446,6.298077
2025-11-22T17:45:06.307692,0.09294797395773634,0.22788012831677829,-10.204897555501075,0.14970210118663635,-0.24763003434213257,-0.0609480678255118,6.307692
2025-11-22T17:45:06.317308,0.09636656223357172,0.2243879433729328,-10.19694852946779,0.15498507812256604,-0.2441734009420389,-0.05596332756207958,6.317308
2025-11-22T17:45:06.326923,0.09980150571026182,0.22075673428176992,-10.188916585081351,0.16017265073371456,-0.24057027809368056,-0.05080052927072525,6.326923
2025-11-22T17:45:06.336538,0.1032604974336473,0.2170013445235808,-10.180819253485895,0.16524153058162142,-0.23683097822168034,-0.045505411640058856,6.336538
2025-11-22T17:45:06.346154,0.10674892177421769,0.21313712013178454,-10.172672452847648,0.17016684629245812,-0.2329690988345724,-0.04012707012460493,6.346154
2025-11-22T17:45:06.355769,0.11026971646340701,0.209179740776613,-10.164489875870823,0.17492265852194733,-0.22900150595088448,-0.034717204597428476,6.355769
2025-11-22T17:45:06.365385,0.11382326829754365,0.20514493427190272,-10.156282219716132,0.1794825843920517,-0.22494796113183027,-0.02932921590731591,6.365385
2025-11-22T17:45:06.375,0.11740734498412475,0.2010480525846799,-10.148056278378972,0.18382044083354804,-0.22083041390418132,-0.024017116097376237,6.375
2025-11-22T17:45:06.384615,0.12101707521371619,0.19690351121616498,-10.139813962792934,0.1879108223903635,-0.2166720374085399,-0.01883426109349163,6.384615
2025-11-22T17:45:06.394231,0.12464498949681609,0.19272412363932612,-10.131551352279375,0.1917295636201734,-0.2124961114924433,-0.013831947458443185,6.394231
2025-11-22T17:45:06.403846,0.1282811299327534,0.18852039015043412,-10.12325789936652,0.19525408485602672,-0.20832485250545485,-0.009057932979069974,6.403846
2025-11-22T17:45:06.413462,0.1319132326048014,0.18429982214496077,-10.114915904899226,0.1984636647870142,-0.20417826732848782,-0.0045549499915065825,6.413462
2025-11-22T17:45:06.423077,0.13552697999678626,0.18006639362745794,-10.106500356720575,0.2013397057113328,-0.20007308986999828,-0.00035928533484545674,6.423077
2025-11-22T17:45:06.432692,0.13910631186100042,0.1758202061424201,-10.097979191891337,0.20386604946118844,-0.19602184981347567,0.0035004953580453453,6.432692
2025-11-22T17:45:06.442308,0.14263377935868446,0.17155742957207748,-10.089314006994345,0.2060293764780304,-0.19203212157814942,0.0070046009036577915,6.442308
2025-11-22T17:45:06.451923,0.14609093583289373,0.16727054146331904,-10.080461207237313,0.207819695803923,-0.18810600180962608,0.010142778314781647,6.451923
2025-11-22T17:45:06.461538,0.14945877124220341,0.16294883870707885,-10.071373554187078,0.20923091121566745,-0.18423986533642267,0.012914745728544192,6.461538
2025-11-22T17:45:06.471154,0.1527182025918686,0.15857915210016554,-10.062002045573662,0.210261421628315,-0.18042444333570634,0.01533028316465503,6.471154
2025-11-22T17:45:06.480769,0.15585062466129943,0.1541466727234768,-10.05229804045214,0.21091469123928283,-0.176645238375958,0.017408989807417927,6.480769
2025-11-22T17:45:06.490385,0.158838509076283,0.14963580473935137,-10.042215527843581,0.21119972387936262,-0.17288324249183437,0.01917972347823144,6.490385
2025-11-22T17:45:06.5,0.16166602303325073,0.14503098174945417,-10.031713421817921,0.21113139683939716,-0.1691158839798136,0.020679739066057305,6.5
2025-11-22T17:45:06.509615,0.16431962810479853,0.14031740466956324,-10.020757751420668,0.21073063571926082,-0.1653181178057432,0.021953544249900335,6.509615
2025-11-22T17:45:06.519231,0.1667886184063338,0.13548166802480074,-10.009323613129663,0.21002443171679328,-0.1614635884190325,0.02305149520477512,6.519231
2025-11-22T17:45:06.528846,0.16906556430462227,0.13051224573353135,-9.99739677795046,0.20904571472523922,-0.15752581531880272,0.024028164129072806,6.528846
2025-11-22T17:45:06.538462,0.1711466356597795,0.12539981889332466,-9.984974883786482,0.2078330967193922,-0.15347936926063327,0.02494052479707746,6.538462
2025-11-22T17:45:06.548077,0.1730317822820964,0.12013744717949794,-9.972068172195257,0.20643048475625736,-0.14930101375040652,0.025846017575588475,6.548077
2025-11-22T17:45:06.557692,0.17472475106038912,0.11472060445645613,-9.958699739096287,0.2048865383463538,-0.14497078104254738,0.026800564720738645,6.557692
2025-11-22T17:45:06.567308,0.17623292327539222,0.10914711459082867,-9.94490527528486,0.203253931897935,-0.1404729412245403,0.027856606031964742,6.567308
2025-11-22T17:45:06.576923,0.1775669630462635,0.10341703325861866,-9.930732289243933,0.20158839201783976,-0.13579681402148508,0.029061215612967407,6.576923
2025-11-22T17:45:06.586538,0.1787402797227905,0.09753251894504618,-9.9162388346793,0.1999475066745228,-0.13093736886519564,0.030454351484119905,6.586538
2025-11-22T17:45:06.596154,0.17976832504129048,0.09149771893945043,-9.901491804472736,0.19838933597275452,-0.12589556614923714,0.03206729160064337,6.596154
2025-11-22T17:45:06.605769,0.18066776639000023,0.085318675222214,-9.886564893035928,0.1969708809575899,-0.12067841341079057,0.03392132169906207,6.605769
2025-11-22T17:45:06.615385,0.18145559179901208,0.07900324642724768,-9.871536356238753,0.1957464782788935,-0.11529873021407434,0.03602674844783481,6.615385
2025-11-22T17:45:06.625,0.1821482054637499,0.07256104972214848,-9.856486698125845,0.19476618287831596,-0.10977462185234725,0.03838230427558009,6.625
2025-11-22T17:45:06.634615,0.18276056782483374,0.0660034391140079,-9.841496385854526,0.19407418797842024,-0.10412866291403608,0.040974990568163956,6.634615
2025-11-22T17:45:06.644231,0.18330542637437172,0.059343537710376315,-9.826643657281247,0.19370732526076506,-0.09838680311816135,0.04378038260279619,6.644231
2025-11-22T17:45:06.653846,0.1837926742971964,0.052596325329223176,-9.81200246205685,0.1936936926946715,-0.09257703227419067,0.04676339660907707,6.653846
2025-11-22T17:45:06.663462,0.18422886457599866,0.04577876157282706,-9.797640571699086,0.19405146721835356,-0.0867278699035208,0.04987949698653004,6.663462
2025-11-22T17:45:06.673077,0.18461689874285,0.038909912743935314,-9.783617894467179,0.19478796774366405,-0.0808667690890184,0.05307630089050481,6.673077
2025-11-22T17:45:06.682692,0.18495590261480066,0.03201104926600375,-9.769985027174112,0.19589903716184562,-0.0750185415603622,0.056295516364125726,6.682692
2025-11-22T17:45:06.692308,0.18524129589140312,0.025105680276296328,-9.756782069596973,0.19736880661046963,-0.06920392509409594,0.059475126177323895,6.692308
2025-11-22T17:45:06.701923,0.185465059030479,0.01821949060336537,-9.74403772253974,0.19916988898222504,-0.06343842183650408,0.06255170902957756,6.701923
2025-11-22T17:45:06.711538,0.18561619944015406,0.011380145239870687,-9.731768690138972,0.20126402362974524,-0.05773152424195602,0.06546278634240708,6.711538
2025-11-22T17:45:06.721154,0.18568141623797466,0.004616932101857484,-9.719979409161501,0.20360316388023944,-0.05208640821216589,0.06814910018021791,6.721154
2025-11-22T17:45:06.730769,0.1856459528758624,-0.0020397705723993204,-9.708662125828454,0.20613096630503283,-0.04650012474635928,0.07055675222429224,6.730769
2025-11-22T17:45:06.740385,0.18549460838663076,-0.008559191190038291,-9.697797326725555,0.20878461130479561,-0.04096428178856193,0.072639147435023,6.740385
2025-11-22T17:45:06.75,0.18521285692593842,-0.014910990425187344,-9.687354507507546,0.21149686522944447,-0.035466179781278806,0.07435868560568183,6.75
2025-11-22T17:45:06.759615,0.18478800878924564,-0.021066166519127363,-9.67729324454362,0.21419828784668804,-0.029990332066346548,0.07568814151780807,6.759615
2025-11-22T17:45:06.769231,0.18421033538828874,-0.026997992757026055,-9.667564530534593,0.2168194930878566,-0.024520253097657027,0.07661168079480783,6.769231
2025-11-22T17:45:06.778846,0.183474074169481,-0.032682946202507036,-9.658112342734373,0.2192933780604577,-0.019040344667842293,0.07712547234538482,6.778846
2025-11-22T17:45:06.788462,0.182578230094174,-0.038101585970971186,-9.64887542028129,0.22155723699812002,-0.013537679220860807,0.07723787378434918,6.788462
2025-11-22T17:45:06.798077,0.18152710394163465,-0.043239332522120484,-9.63978922626002,0.22355467613589344,-0.008003487755365298,0.07696918479146773,6.798077
2025-11-22T17:45:06.807692,0.18033050355827085,-0.04808710111169839,-9.630788059181835,0.22523725715331513,-0.002434205070427435,0.07635098772429932,6.807692
2025-11-22T17:45:06.817308,0.1790036228949623,-0.05264175853296838,-9.621807260038894,0.22656582396288305,0.003168009586412752,0.07542511660055373,6.817308
2025-11-22T17:45:06.826923,0.17756659700956645,-0.0569063905922661,-9.612785436765682,0.2275114921522491,0.008795289074322712,0.07424230099229014,6.826923
2025-11-22T17:45:06.836538,0.17604375817329676,-0.06089037617275538,-9.60366660188734,0.2280562901231176,0.01443455971853267,0.07286051901900864,6.836538
2025-11-22T17:45:06.846154,0.17446263076969853,-0.06460926356064073,-9.594402102182812,0.22819344644888884,0.020068419515894168,0.0713430776941175,6.846154
2025-11-22T17:45:06.855769,0.17285271143163414,-0.06808444366033371,-9.584952225047745,0.2279273297118056,0.02567624641975003,0.06975643567699086,6.855769
2025-11-22T17:45:06.865385,0.17124408672791733,-0.0713426184210838,-9.575287399920839,0.22727305778795098,0.03123537736957979,0.06816780207410142,6.865385
2025-11-22T17:45:06.875,0.16966594737581453,-0.07441507466069151,-9.565388963908704,0.22625579551865707,0.03672221802597636,0.06664258605667386,6.875
2025-11-22T17:45:06.884615,0.16814506962945153,-0.07733679460922985,-9.555249509228545,0.22490976187711173,0.042113188172678846,0.06524182341409339,6.884615
2025-11-22T17:45:06.894231,0.16670435037802012,-0.0801454608804487,-9.54487286263195,0.2232769796623671,0.047385462991876987,0.06401974114349149,6.894231
2025-11-22T17:45:06.903846,0.16536149571609687,-0.08288043417493578,-9.534273761562558,0.22140581259976985,0.05251752095858723,0.06302161837711895,6.903846
2025-11-22T17:45:06.913462,0.16412796559873494,-0.0855817827166688,-9.523477291807433,0.21934933173733778,0.05748954135929808,0.062282066640641995,6.913462
2025-11-22T17:45:06.923077,0.16300826514738845,-0.08828941760044137,-9.512518138037528,0.2171635398098986,0.06228369699367716,0.0618238070584843,6.923077
2025-11-22T17:45:06.932692,0.16199964487313598,-0.09104234961625644,-9.501439672772408,0.2149054763669852,0.06688436482679018,0.061656982267372366,6.932692
2025-11-22T17:45:06.942308,0.16109222979716376,-0.09387805246357994,-9.490292879992023,0.21263123531788977,0.07127825194271997,0.06177900963844591,6.942308
2025-11-22T17:45:06.951923,0.16026954877730945,-0.0968319068009162,-9.479135093549871,0.21039394142513834,0.0754544244398464,0.06217495594453334,6.951923
2025-11-22T17:45:06.961538,0.1595093919734934,-0.09993670147038773,-9.468028537473309,0.20824174240832155,0.0794042326700188,0.06281838721170135,6.961538
2025-11-22T17:45:06.971154,0.15878489755935624,-0.10322216714341802,-9.45703867876238,0.20621587783042344,0.08312114168645261,0.06367262575703736,6.971154
2025-11-22T17:45:06.980769,0.1580657643567687,-0.1067145119951176,-9.446232430292152,0.2043488889484098,0.08660049927179865,0.0646923388010308,6.980769
2025-11-22T17:45:06.990385,0.15731950115996093,-0.11043593212169374,-9.435676263619358,0.20266303636196328,0.08983929918945638,0.06582538799489479,6.990385
2025-11-22T17:45:07,0.15651264344956922,-0.11440408860291076,-9.425434303840008,0.20116899586436604,0.09283601055229873,0.06701487671437757,7.0
2025-11-22T17:45:07.009615,0.15561188311636237,-0.11863156827256469,-9.415566476910113,0.19986490973197707,0.0955905362338336,0.06820133703352461,7.009615
2025-11-22T17:45:07.019231,0.15458506790520615,-0.12312536162549191,-9.406126767751989,0.1987358770775384,0.09810433891592633,0.06932499994731842,7.019231
2025-11-22T17:45:07.028846,0.15340204267339266,-0.12788639439806784,-9.397161638145754,0.19775396238861231,0.1003807464639257,0.07032808826516702,7.028846
2025-11-22T17:45:07.038462,0.1520353257135225,-0.13290914418903738,-9.388708656558912,0.19687877642397456,0.10242542649571933,0.07115706040663183,7.038462
2025-11-22T17:45:07.048077,0.15046063274570404,-0.1381813683502803,-9.380795403097606,0.19605863767496678,0.10424699999535478,0.07176471709928531,7.048077
2025-11-22T17:45:07.057692,0.14865727190452482,-0.1436839723130327,-9.37343871703532,0.19523226659235662,0.10585774405817307,0.07211206602818478,7.057692
2025-11-22T17:45:07.067308,0.1466084363004732,-0.14939105834187635,-9.366644341251561,0.19433091327837684,0.10727431791194442,0.07216982829336999,7.067308
2025-11-22T17:45:07.076923,0.144301422612765,-0.15527020114162082,-9.360406990010251,0.19328078293797488,0.10851843110977774,0.07191947201449833,7.076923
2025-11-22T17:45:07.086538,0.1417278064714473,-0.1612829868328972,-9.35471083598957,0.19200561089107243,0.10961735322898891,0.07135367841675504,7.086538
2025-11-22T17:45:07.096154,0.1388836017772044,-0.16738582691465378,-9.34953039071692,0.19042925406877176,0.11060415106602531,0.07047618833255888,7.096154
2025-11-22T17:45:07.105769,0.1357694157188402,-0.17353102939191428,-9.344831741507083,0.18847819937434196,0.11151754993611188,0.06930103878165418,7.105769
2025-11-22T17:45:07.115385,0.1323905886171372,-0.17966808278028085,-9.340574098033633,0.1860839267557253,0.1124013503785557,0.06785126433041959,7.115385
2025-11-22T17:45:07.125,0.12875728863876404,-0.1857450865773378,-9.336711581890969,0.18318509870550345,0.11330337455376395,0.0661571866125325,7.125
2025-11-22T17:45:07.134615,0.12488452119124191,-0.19171024568226638,-9.333195164781387,0.17972957447778848,0.11427396066195804,0.06425443871563594,7.134615
2025-11-22T17:45:07.144231,0.12079201019125545,-0.19751334138399287,-9.329974638737056,0.175676261553047,0.115364074841366,0.06218187455062343,7.144231
2025-11-22T17:45:07.153846,0.11650391374039948,-0.20310710116602657,-9.327000497592092,0.17099681201723133,0.11662316635776172,0.059979506830331285,7.153846
2025-11-22T17:45:07.163462,0.11204835221911373,-0.20844841021550684,-9.324225627501367,0.1656771411083226,0.11809693499687392,0.057686602497317135,7.163462
2025-11-22T17:45:07.173077,0.10745674865434351,-0.21349933101692548,-9.321606741795021,0.15971869386317372,0.11982519277609223,0.055340033194975116,7.173077
2025-11-22T17:45:07.182692,0.10276300035463584,-0.21822791597826618,-9.319105539609007,0.15313933901731672,0.12183998399385747,0.05297292930565092,7.182692
2025-11-22T17:45:07.192308,0.09800251268996367,-0.22260880850922027,-9.316689602234208,0.1459737589538599,0.12416408438017171,0.050613638098373895,7.192308
2025-11-22T17:45:07.201923,0.09321113405681816,-0.22662363153818552,-9.314333054207582,0.138273238483339,0.1268099429741779,0.04828496260343412,7.201923
2025-11-22T17:45:07.211538,0.0884240402867147,-0.23026116171688202,-9.312017007873735,0.1301048105548232,0.1297790824257997,0.04600365967844737,7.211538
2025-11-22T17:45:07.221154,0.0836746259285165,-0.2335172869463762,-9.309729792546651,0.12154976700691375,0.1330619548656802,0.04378018885508058,7.221154
2025-11-22T17:45:07.230769,0.07899346291549643,-0.23639475071197313,-9.30746695695774,0.11270158018882871,0.13663825308021346,0.041618717715920246,7.230769
2025-11-22T17:45:07.240385,0.07440738050037878,-0.23890270129439273,-9.30523103319413,0.10366331466827022,0.14047767315190435,0.03951739820764413,7.240385
2025-11-22T17:45:07.25,0.0699387069855929,-0.24105608007714766,-9.303031062844394,0.09454464492672994,0.14454110222376965,0.03746891956902512,7.25
2025-11-22T17:45:07.259615,0.06560469941868548,-0.24287488884662037,-9.300881910116194,0.08545863083149886,0.14878217251266998,0.035461310798852695,7.259615
2025-11-22T17:45:07.269231,0.06141717595669621,-0.24438336606702318,-9.298803412164801,0.07651841822822604,0.15314909256551384,0.03347892327500519,7.269231
2025-11-22T17:45:07.278846,0.057382358906317155,-0.24560908476121948,-9.296819427417601,0.06783400748325709,0.15758664645816692,0.03150349988368876,7.278846
2025-11-22T17:45:07.288462,0.053500933536667385,-0.24658197389605055,-9.294956832143143,0.05950917525230343,0.16203824468683817,0.029515245627123064,7.288462
2025-11-22T17:45:07.298077,0.04976832289762478,-0.24733326850374315,-9.293244493583552,0.05163858200100735,0.16644791578829196,0.027493845411076086,7.298077
2025-11-22T17:45:07.307692,0.04617516598771366,-0.2478944067843324,-9.291712229550571,0.04430508668970753,0.1707621411998683,0.025419405996203865,7.307692
2025-11-22T17:45:07.317308,0.042707967231671175,-0.24829590259101458,-9.290389759924896,0.0375773222446724,0.17493145212531946,0.023273318796001183,7.317308
2025-11-22T17:45:07.326923,0.03934986821184091,-0.24856621964172337,-9.289305665497762,0.03150762829489596,0.17891172053768767,0.021039045412765377,7.326923
2025-11-22T17:45:07.336538,0.03608148537451322,-0.24873066615363457,-9.288486382666703,0.026130456344730518,0.18266508935316272,0.018702815732593907,7.336538
2025-11-22T17:45:07.346154,0.03288176014349279,-0.24881033426968763,-9.28795526596559,0.021461347594023846,0.18616051205455308,0.016254203032754152,7.346154
2025-11-22T17:45:07.355769,0.029728776238127284,-0.24882113658014565,-9.28773174508658,0.017496548987033605,0.18937391429811626,0.01368652148806034,7.355769
2025-11-22T17:45:07.365385,0.02660050972659989,-0.2487730277369497,-9.287830598767874,0.01421329686481388,0.1922880316922793,0.010996999273239806,7.365385
2025-11-22T17:45:07.375,0.0234754889568227,-0.24866951630817663,-9.288261367058473,0.011570768041171672,0.1948919952094591,0.008186713898283073,7.375
