Timestamp,Acceleration_X,Acceleration_Y,Acceleration_Z,Gyro_X,Gyro_Y,Gyro_Z
2026-01-04T15:34:21.523209,-9.662217,-0.698704,1.785045,0.201585,-0.140498,0.051312
2026-01-04T15:34:21.533209,-9.475577,-0.488135,1.512263,0.130725,-0.136833,0.051312
2026-01-04T15:34:21.542209,-9.475577,-0.555134,1.746760,0.030543,-0.094073,0.037873
2026-01-04T15:34:21.552209,-9.504291,-0.751346,1.789831,-0.074525,-0.067195,0.018325
2026-01-04T15:34:21.561209,-9.480363,-0.971485,1.483550,-0.119729,-0.053756,0.002443
2026-01-04T15:34:21.571209,-9.676574,-1.162911,1.684547,-0.138055,-0.029321,-0.008552
2026-01-04T15:34:21.581209,-9.911071,-1.378265,2.565105,-0.116064,-0.026878,-0.024434
2026-01-04T15:34:21.590209,-10.107282,-1.368694,2.196611,0.034208,-0.083077,-0.019547
2026-01-04T15:34:21.600209,-9.997212,-1.186840,2.206182,0.125838,-0.168598,-0.017104
2026-01-04T15:34:21.610209,-9.695717,-1.115055,2.239681,0.158824,-0.238237,-0.019547
2026-01-04T15:34:21.619209,-9.379864,-0.732203,1.995614,0.224798,-0.261450,-0.021991
2026-01-04T15:34:21.629209,-9.317651,-0.483350,1.852044,0.179594,-0.228463,-0.023212
2026-01-04T15:34:21.638209,-9.442077,-0.531206,1.540977,0.084299,-0.161268,-0.018325
2026-01-04T15:34:21.648209,-9.571290,-0.641276,1.435693,0.006108,-0.119729,-0.031764
2026-01-04T15:34:21.658209,-9.743573,-0.923629,1.765903,-0.079412,-0.120951,-0.052534
2026-01-04T15:34:21.667209,-9.724431,-1.244267,1.780260,-0.050090,-0.140498,-0.072082
2026-01-04T15:34:21.677209,-9.542576,-1.138983,1.828116,-0.004886,-0.158824,-0.076969
2026-01-04T15:34:21.686209,-9.556933,-1.148554,2.139183,0.026878,-0.142942,-0.072082
2026-01-04T15:34:21.696209,-9.863214,-0.961914,2.440679,0.125838,-0.103847,-0.063529
2026-01-04T15:34:21.706209,-10.049854,-0.717846,2.210968,0.166155,-0.120951,-0.043982
2026-01-04T15:34:21.715209,-9.949356,-0.717846,2.009970,0.141720,-0.213802,-0.025656
2026-01-04T15:34:21.725209,-9.542576,-0.861416,2.172682,0.141720,-0.265115,-0.021991
2026-01-04T15:34:21.735209,-9.178867,-0.832702,1.966900,0.131946,-0.243124,-0.026878
2026-01-04T15:34:21.744209,-9.001798,-0.756131,1.406979,0.112399,-0.169820,-0.013439
2026-01-04T15:34:21.754209,-9.193224,-0.550349,1.531406,0.045204,-0.057421,-0.019547
2026-01-04T15:34:21.763209,-9.504291,-0.559920,1.785045,-0.051312,0.037873,-0.024434
2026-01-04T15:34:21.773209,-9.753144,-0.693918,1.957328,-0.125838,0.064751,-0.023212
2026-01-04T15:34:21.783209,-10.006784,-1.004985,1.914258,-0.168598,0.043982,-0.008552
2026-01-04T15:34:21.792209,-10.025926,-1.354337,2.416750,-0.169820,0.001221,-0.003665
2026-01-04T15:34:21.802209,-9.868000,-1.627119,2.612962,-0.042760,-0.043982,0.003665
2026-01-04T15:34:21.811209,-9.743573,-1.311266,1.976471,0.140498,-0.070860,0.017104
2026-01-04T15:34:21.821209,-9.571290,-0.808774,2.163111,0.191811,-0.074525,0.018325
2026-01-04T15:34:21.831209,-9.494720,-0.550349,2.325823,0.138055,-0.058643,0.026878
2026-01-04T15:34:21.840209,-9.509077,-0.468993,1.899901,0.054977,-0.035430,0.031764
2026-01-04T15:34:21.850209,-9.561719,-0.674775,1.775474,-0.058643,-0.010995,0.036651
2026-01-04T15:34:21.860209,-9.619146,-1.024128,1.808973,-0.129503,0.003665,0.034208
2026-01-04T15:34:21.869209,-9.523433,-1.205982,1.794616,-0.102625,0.006108,0.031764
2026-01-04T15:34:21.879209,-9.561719,-1.177268,1.842473,-0.053756,0.019547,0.030543
2026-01-04T15:34:21.888209,-9.671788,-1.024128,2.029113,-0.018325,0.046425,0.028099
2026-01-04T15:34:21.898209,-9.824929,-0.947557,2.388036,-0.029321,0.040317,0.030543
2026-01-04T15:34:21.908209,-9.786644,-0.966700,2.301895,-0.034208,-0.002443,0.040317
2026-01-04T15:34:21.917209,-9.662217,-1.086341,2.378465,-0.012217,-0.030543,0.042760
2026-01-04T15:34:21.927209,-9.499505,-1.205982,2.383251,0.010995,-0.035430,0.047647
2026-01-04T15:34:21.936209,-9.518648,-1.158126,2.134397,0.056199,-0.041538,0.046425
2026-01-04T15:34:21.946209,-9.509077,-0.918843,2.029113,0.100181,-0.034208,0.046425
2026-01-04T15:34:21.956209,-9.566504,-0.775274,2.024327,0.062308,-0.020769,0.041538
2026-01-04T15:34:21.965209,-9.619146,-0.780060,1.890329,0.009773,-0.017104,0.039095
2026-01-04T15:34:21.975209,-9.585647,-0.813559,1.765903,-0.029321,-0.008552,0.040317
2026-01-04T15:34:21.985209,-9.705288,-0.928415,2.215753,-0.086742,0.019547,0.031764
2026-01-04T15:34:21.994209,-9.815358,-1.129412,2.306680,-0.090408,0.023212,0.019547
2026-01-04T15:34:22.004209,-9.801001,-1.143769,1.986042,-0.045204,-0.013439,0.013439
2026-01-04T15:34:22.013209,-9.734002,-1.234696,2.263610,-0.020769,-0.056199,0.003665
2026-01-04T15:34:22.023209,-9.466006,-1.210768,2.335394,0.039095,-0.072082,-0.003665
2026-01-04T15:34:22.033209,-9.470791,-0.875773,2.029113,0.097738,-0.047647,0.000000
2026-01-04T15:34:22.042209,-9.561719,-0.736989,2.057827,0.056199,-0.026878,0.003665
2026-01-04T15:34:22.052209,-9.676574,-0.756131,1.981257,0.012217,-0.023212,0.008552
2026-01-04T15:34:22.061209,-9.777073,-0.717846,1.823330,0.004886,-0.010995,0.013439
2026-01-04T15:34:22.071209,-9.777073,-0.870987,1.871187,-0.046425,-0.024434,0.015882
2026-01-04T15:34:22.081209,-9.695717,-1.095912,2.072184,-0.061086,-0.050090,0.012217
2026-01-04T15:34:22.090209,-9.461220,-1.110269,2.129612,-0.032986,-0.052534,0.006108
2026-01-04T15:34:22.100209,-9.360722,-1.086341,2.062613,-0.021991,-0.034208,-0.001221
2026-01-04T15:34:22.110209,-9.513862,-0.947557,2.091326,-0.014660,0.002443,-0.006108
2026-01-04T15:34:22.119209,-9.714859,-0.942772,2.301895,-0.026878,0.024434,-0.004886
2026-01-04T15:34:22.129209,-9.949356,-1.038485,2.067398,-0.018325,-0.009773,-0.002443
2026-01-04T15:34:22.138209,-9.777073,-0.966700,2.057827,0.013439,-0.052534,0.014660
2026-01-04T15:34:22.148209,-9.643075,-0.885344,1.866401,0.029321,-0.070860,0.014660
2026-01-04T15:34:22.158209,-9.523433,-0.866201,2.029113,0.036651,-0.061086,0.018325
2026-01-04T15:34:22.167209,-9.466006,-0.818345,2.038684,0.017104,-0.039095,0.018325
2026-01-04T15:34:22.177209,-9.442077,-0.827916,1.947757,-0.031764,-0.019547,0.024434
2026-01-04T15:34:22.186209,-9.489934,-0.966700,2.005185,-0.074525,0.000000,0.026878
2026-01-04T15:34:22.196209,-9.604789,-1.014556,1.885544,-0.069638,0.019547,0.017104
2026-01-04T15:34:22.206209,-9.729216,-1.038485,2.196611,-0.047647,0.026878,0.010995
2026-01-04T15:34:22.215209,-9.863214,-1.052841,2.249253,-0.051312,0.012217,0.004886
2026-01-04T15:34:22.225209,-9.891928,-1.100698,2.254038,-0.039095,-0.029321,0.003665
2026-01-04T15:34:22.235209,-9.738787,-1.148554,2.258824,0.007330,-0.064751,0.006108
2026-01-04T15:34:22.244209,-9.614361,-0.981057,2.072184,0.063529,-0.085521,0.013439
2026-01-04T15:34:22.254209,-9.513862,-0.861416,1.909472,0.089186,-0.076969,0.023212
2026-01-04T15:34:22.263209,-9.432506,-0.746560,2.005185,0.059864,-0.056199,0.025656
2026-01-04T15:34:22.273209,-9.461220,-0.784845,1.914258,0.007330,-0.037873,0.029321
2026-01-04T15:34:22.283209,-9.446863,-0.880558,1.947757,-0.052534,-0.014660,0.030543
2026-01-04T15:34:22.292209,-9.509077,-1.076770,1.866401,-0.086742,0.013439,0.026878
2026-01-04T15:34:22.302209,-9.695717,-1.119840,2.009970,-0.063529,0.025656,0.024434
2026-01-04T15:34:22.311209,-9.686145,-1.038485,2.273181,-0.040317,0.013439,0.025656
2026-01-04T15:34:22.321209,-9.734002,-1.052841,2.349751,-0.025656,-0.012217,0.029321
2026-01-04T15:34:22.331209,-9.662217,-1.004985,2.110469,0.008552,-0.037873,0.032986
2026-01-04T15:34:22.340209,-9.738787,-0.880558,2.177468,0.036651,-0.042760,0.034208
2026-01-04T15:34:22.350209,-9.748359,-0.923629,2.220539,0.021991,-0.053756,0.032986
2026-01-04T15:34:22.360209,-9.710074,-0.995414,1.909472,0.041538,-0.080634,0.029321
2026-01-04T15:34:22.369209,-9.623932,-0.966700,1.861615,0.035430,-0.086742,0.029321
2026-01-04T15:34:22.379209,-9.561719,-1.048056,2.120040,0.012217,-0.080634,0.019547
2026-01-04T15:34:22.388209,-9.399007,-0.971485,1.852044,0.030543,-0.079412,0.025656
2026-01-04T15:34:22.398209,-9.360722,-0.870987,2.024327,0.014660,-0.062308,0.029321
2026-01-04T15:34:22.408209,-9.394221,-0.861416,1.976471,-0.002443,-0.012217,0.031764
2026-01-04T15:34:22.417209,-9.676574,-0.736989,1.942971,-0.020769,0.040317,0.029321
2026-01-04T15:34:22.427209,-9.963713,-0.985842,2.627319,-0.095294,0.032986,0.028099
2026-01-04T15:34:22.436209,-9.963713,-1.306481,2.277967,-0.067195,-0.050090,0.025656
2026-01-04T15:34:22.446209,-9.590432,-1.253839,2.019542,0.009773,-0.109955,0.025656
2026-01-04T15:34:22.456209,-9.422935,-1.196411,2.172682,0.065973,-0.094073,0.015882
2026-01-04T15:34:22.465209,-9.403792,-0.861416,2.014756,0.123394,-0.056199,0.014660
2026-01-04T15:34:22.475209,-9.590432,-0.569491,1.832902,0.085521,-0.025656,0.013439
2026-01-04T15:34:22.485209,-9.566504,-0.655633,2.009970,-0.023212,-0.020769,0.003665
2026-01-04T15:34:22.494209,-9.446863,-0.784845,2.033899,-0.094073,-0.025656,0.010995
2026-01-04T15:34:22.504209,-9.403792,-1.043270,1.890329,-0.118507,0.002443,0.017104
2026-01-04T15:34:22.513209,-9.667003,-1.081555,2.239681,-0.094073,0.047647,0.019547
2026-01-04T15:34:22.523209,-9.930213,-1.148554,2.158325,-0.025656,0.048869,0.024434
2026-01-04T15:34:22.533209,-9.949356,-1.009771,2.091326,0.015882,-0.010995,0.028099
2026-01-04T15:34:22.542209,-9.681360,-0.971485,2.191825,0.036651,-0.068416,0.024434
2026-01-04T15:34:22.552209,-9.427721,-0.904486,2.072184,0.042760,-0.075747,0.020769
2026-01-04T15:34:22.561209,-9.317651,-0.976271,2.282752,0.004886,-0.045204,0.024434
2026-01-04T15:34:22.571209,-9.432506,-1.067198,1.923829,-0.007330,0.006108,0.032986
2026-01-04T15:34:22.581209,-9.609575,-0.923629,1.808973,0.001221,0.037873,0.023212
2026-01-04T15:34:22.590209,-9.801001,-0.937986,2.182254,-0.030543,0.035430,0.015882
2026-01-04T15:34:22.600209,-9.815358,-0.947557,2.057827,-0.013439,-0.003665,0.015882
2026-01-04T15:34:22.610209,-9.662217,-0.885344,1.976471,-0.026878,-0.032986,0.013439
2026-01-04T15:34:22.619209,-9.489934,-1.014556,2.263610,-0.056199,-0.041538,0.010995
2026-01-04T15:34:22.629209,-9.480363,-1.067198,2.139183,-0.034208,-0.020769,0.015882
2026-01-04T15:34:22.638209,-9.533005,-1.057627,2.373680,-0.017104,-0.007330,0.014660
2026-01-04T15:34:22.648209,-9.585647,-1.033699,2.177468,-0.006108,-0.015882,0.020769
2026-01-04T15:34:22.658209,-9.719645,-1.000199,2.009970,0.025656,-0.023212,0.018325
2026-01-04T15:34:22.667209,-9.786644,-0.918843,2.158325,0.025656,-0.039095,0.017104
2026-01-04T15:34:22.677209,-9.762716,-0.957129,1.962114,0.014660,-0.061086,0.017104
2026-01-04T15:34:22.686209,-9.681360,-0.933200,1.770688,0.021991,-0.076969,0.021991
2026-01-04T15:34:22.696209,-9.533005,-0.947557,1.861615,0.023212,-0.056199,0.020769
2026-01-04T15:34:22.706209,-9.509077,-0.847059,2.033899,0.015882,-0.030543,0.015882
2026-01-04T15:34:22.715209,-9.504291,-0.756131,2.000399,-0.009773,-0.017104,0.018325
2026-01-04T15:34:22.725209,-9.552147,-0.842273,2.201396,-0.045204,-0.002443,0.026878
2026-01-04T15:34:22.735209,-9.600004,-1.062413,2.201396,-0.057421,0.013439,0.028099
2026-01-04T15:34:22.744209,-9.705288,-1.196411,2.081755,-0.040317,0.009773,0.030543
2026-01-04T15:34:22.754209,-9.767501,-1.138983,2.191825,-0.002443,0.001221,0.020769
2026-01-04T15:34:22.763209,-9.805787,-0.971485,2.105683,0.041538,-0.021991,0.006108
2026-01-04T15:34:22.773209,-9.729216,-0.875773,2.163111,0.052534,-0.048869,-0.001221
2026-01-04T15:34:22.783209,-9.623932,-0.851844,2.182254,0.030543,-0.067195,0.000000
2026-01-04T15:34:22.792209,-9.494720,-0.823130,2.033899,0.006108,-0.059864,0.009773
2026-01-04T15:34:22.802209,-9.422935,-0.842273,1.909472,-0.017104,-0.030543,0.020769
2026-01-04T15:34:22.811209,-9.480363,-0.909272,1.986042,-0.050090,0.001221,0.023212
2026-01-04T15:34:22.821209,-9.671788,-1.048056,2.029113,-0.056199,0.025656,0.031764
2026-01-04T15:34:22.831209,-9.796215,-1.052841,1.981257,-0.059864,0.019547,0.028099
2026-01-04T15:34:22.840209,-9.791430,-1.110269,2.115255,-0.053756,-0.012217,0.023212
2026-01-04T15:34:22.850209,-9.791430,-1.220339,2.196611,-0.021991,-0.036651,0.018325
2026-01-04T15:34:22.860209,-9.671788,-1.134197,2.258824,0.032986,-0.063529,0.017104
2026-01-04T15:34:22.869209,-9.552147,-1.004985,2.254038,0.084299,-0.073303,0.021991
2026-01-04T15:34:22.879209,-9.461220,-0.813559,2.000399,0.101403,-0.061086,0.026878
2026-01-04T15:34:22.888209,-9.547362,-0.660419,1.928615,0.067195,-0.032986,0.026878
2026-01-04T15:34:22.898209,-9.542576,-0.660419,2.067398,-0.015882,-0.009773,0.028099
2026-01-04T15:34:22.908209,-9.614361,-0.937986,1.885544,-0.083077,-0.002443,0.026878
2026-01-04T15:34:22.917209,-9.523433,-1.191625,1.818545,-0.087964,0.000000,0.020769
2026-01-04T15:34:22.927209,-9.576076,-1.263410,1.847259,-0.050090,0.018325,0.013439
2026-01-04T15:34:22.936209,-9.729216,-1.048056,1.890329,0.017104,0.043982,0.009773
2026-01-04T15:34:22.946209,-9.710074,-0.837487,2.172682,0.029321,0.048869,0.004886
2026-01-04T15:34:22.956209,-9.748359,-0.808774,2.292324,0.013439,0.019547,0.010995
2026-01-04T15:34:22.965209,-9.614361,-0.847059,2.282752,0.002443,-0.004886,0.019547
2026-01-04T15:34:22.975209,-9.513862,-0.923629,2.091326,-0.004886,-0.010995,0.025656
2026-01-04T15:34:22.985209,-9.437292,-0.957129,2.024327,0.001221,0.003665,0.032986
2026-01-04T15:34:22.994209,-9.480363,-0.981057,1.923829,0.002443,0.037873,0.035430
2026-01-04T15:34:23.004209,-9.537790,-0.961914,1.718046,-0.004886,0.061086,0.029321
2026-01-04T15:34:23.013209,-9.600004,-0.775274,1.727617,-0.028099,0.079412,0.023212
2026-01-04T15:34:23.023209,-9.652646,-0.813559,1.933400,-0.083077,0.085521,0.021991
2026-01-04T15:34:23.033209,-9.667003,-0.861416,1.794616,-0.094073,0.101403,0.018325
2026-01-04T15:34:23.042209,-9.681360,-0.803988,2.005185,-0.109955,0.113620,0.018325
2026-01-04T15:34:23.052209,-9.724431,-0.961914,2.172682,-0.135612,0.103847,0.023212
2026-01-04T15:34:23.061209,-9.700502,-1.067198,2.306680,-0.120951,0.091629,0.028099
2026-01-04T15:34:23.071209,-9.662217,-1.081555,2.100898,-0.079412,0.076969,0.040317
2026-01-04T15:34:23.081209,-9.623932,-1.000199,2.086541,-0.034208,0.072082,0.061086
2026-01-04T15:34:23.090209,-9.748359,-0.937986,2.115255,0.006108,0.080634,0.074525
2026-01-04T15:34:23.100209,-9.734002,-0.808774,1.655833,0.010995,0.063529,0.083077
2026-01-04T15:34:23.110209,-9.686145,-0.832702,1.703689,-0.025656,0.045204,0.080634
2026-01-04T15:34:23.119209,-9.657432,-0.971485,2.062613,-0.064751,0.053756,0.072082
2026-01-04T15:34:23.129209,-9.652646,-1.057627,1.842473,-0.069638,0.053756,0.061086
2026-01-04T15:34:23.138209,-9.671788,-1.076770,1.885544,-0.058643,0.046425,0.043982
2026-01-04T15:34:23.148209,-9.600004,-1.019342,1.976471,-0.046425,0.036651,0.030543
2026-01-04T15:34:23.158209,-9.566504,-0.928415,2.005185,-0.042760,0.030543,0.029321
2026-01-04T15:34:23.167209,-9.571290,-0.904486,1.942971,-0.053756,0.039095,0.023212
2026-01-04T15:34:23.177209,-9.772287,-0.947557,1.962114,-0.050090,0.045204,0.024434
2026-01-04T15:34:23.186209,-9.824929,-1.014556,2.009970,-0.059864,0.025656,0.026878
2026-01-04T15:34:23.196209,-9.738787,-1.095912,1.832902,-0.024434,-0.006108,0.024434
2026-01-04T15:34:23.206209,-9.695717,-0.985842,1.871187,0.013439,-0.028099,0.026878
2026-01-04T15:34:23.215209,-9.547362,-0.957129,1.895115,0.015882,-0.029321,0.024434
2026-01-04T15:34:23.225209,-9.480363,-0.866201,1.847259,0.014660,-0.007330,0.026878
2026-01-04T15:34:23.235209,-9.609575,-0.870987,2.048256,-0.014660,0.008552,0.019547
2026-01-04T15:34:23.244209,-9.743573,-0.942772,1.942971,-0.026878,0.001221,0.018325
2026-01-04T15:34:23.254209,-9.805787,-1.048056,1.895115,-0.036651,-0.014660,0.007330
2026-01-04T15:34:23.263209,-9.714859,-1.000199,1.952543,-0.026878,-0.030543,0.001221
2026-01-04T15:34:23.273209,-9.643075,-0.904486,1.775474,0.003665,-0.034208,-0.001221
2026-01-04T15:34:23.283209,-9.623932,-0.861416,1.871187,0.000000,-0.029321,0.002443
2026-01-04T15:34:23.292209,-9.633503,-0.861416,1.914258,0.003665,-0.023212,0.014660
2026-01-04T15:34:23.302209,-9.633503,-0.784845,1.674975,0.006108,-0.021991,0.024434
2026-01-04T15:34:23.311209,-9.647860,-0.875773,1.727617,-0.028099,-0.024434,0.030543
2026-01-04T15:34:23.321209,-9.580861,-0.803988,1.799402,-0.056199,-0.014660,0.030543
2026-01-04T15:34:23.331209,-9.676574,-0.861416,1.813759,-0.080634,0.006108,0.030543
2026-01-04T15:34:23.340209,-9.767501,-0.947557,1.694118,-0.091629,0.025656,0.028099
2026-01-04T15:34:23.350209,-9.820143,-1.028913,1.842473,-0.095294,0.017104,0.017104
2026-01-04T15:34:23.360209,-9.777073,-1.115055,2.081755,-0.078190,-0.019547,0.014660
2026-01-04T15:34:23.369209,-9.628718,-1.067198,2.038684,-0.041538,-0.043982,0.013439
2026-01-04T15:34:23.379209,-9.547362,-0.995414,1.919043,-0.006108,-0.030543,0.012217
2026-01-04T15:34:23.388209,-9.590432,-0.837487,1.933400,-0.006108,-0.012217,0.019547
2026-01-04T15:34:23.398209,-9.580861,-0.894915,1.842473,-0.014660,0.000000,0.030543
2026-01-04T15:34:23.408209,-9.590432,-0.856630,1.828116,-0.025656,-0.001221,0.045204
2026-01-04T15:34:23.417209,-9.552147,-0.947557,1.560120,-0.042760,0.012217,0.047647
2026-01-04T15:34:23.427209,-9.566504,-0.880558,1.641476,-0.057421,0.043982,0.039095
2026-01-04T15:34:23.436209,-9.700502,-1.038485,1.828116,-0.098960,0.064751,0.024434
2026-01-04T15:34:23.446209,-9.772287,-1.105484,1.871187,-0.119729,0.051312,0.008552
2026-01-04T15:34:23.456209,-9.724431,-1.081555,1.828116,-0.098960,0.015882,-0.004886
2026-01-04T15:34:23.465209,-9.609575,-1.095912,1.909472,-0.073303,0.002443,-0.008552
2026-01-04T15:34:23.475209,-9.643075,-1.115055,2.210968,-0.037873,0.014660,-0.009773
2026-01-04T15:34:23.485209,-9.686145,-0.904486,2.091326,0.002443,0.017104,0.006108
2026-01-04T15:34:23.494209,-9.738787,-0.885344,1.765903,0.018325,0.010995,0.018325
2026-01-04T15:34:23.504209,-9.719645,-0.851844,1.780260,0.002443,-0.006108,0.024434
2026-01-04T15:34:23.513209,-9.710074,-0.914058,1.875972,-0.025656,-0.021991,0.021991
2026-01-04T15:34:23.523209,-9.767501,-1.028913,1.617548,-0.052534,0.007330,0.009773
2026-01-04T15:34:23.533209,-9.690931,-1.071984,1.540977,-0.025656,0.004886,-0.003665
2026-01-04T15:34:23.542209,-9.623932,-1.033699,1.751546,-0.043982,-0.009773,-0.017104
2026-01-04T15:34:23.552209,-9.643075,-1.004985,1.780260,-0.051312,-0.003665,-0.036651
2026-01-04T15:34:23.561209,-9.590432,-0.866201,2.062613,-0.061086,0.006108,-0.043982
2026-01-04T15:34:23.571209,-9.590432,-0.947557,1.923829,-0.083077,0.012217,-0.024434
2026-01-04T15:34:23.581209,-9.690931,-1.062413,1.852044,-0.064751,0.023212,-0.008552
2026-01-04T15:34:23.590209,-9.690931,-1.115055,1.832902,-0.034208,0.012217,0.008552
2026-01-04T15:34:23.600209,-9.724431,-1.071984,1.722832,0.007330,0.003665,0.014660
2026-01-04T15:34:23.610209,-9.705288,-0.937986,1.622333,0.029321,0.002443,0.013439
2026-01-04T15:34:23.619209,-9.757930,-0.961914,1.708475,-0.023212,0.001221,0.007330
2026-01-04T15:34:23.629209,-9.686145,-1.081555,1.741974,-0.036651,-0.002443,-0.002443
2026-01-04T15:34:23.638209,-9.695717,-0.990628,1.698904,-0.014660,-0.003665,-0.001221
2026-01-04T15:34:23.648209,-9.652646,-0.870987,1.598405,-0.014660,0.002443,0.000000
2026-01-04T15:34:23.658209,-9.628718,-0.870987,1.741974,-0.029321,0.007330,0.000000
2026-01-04T15:34:23.667209,-9.705288,-0.827916,1.765903,-0.057421,0.009773,0.006108
2026-01-04T15:34:23.677209,-9.695717,-0.966700,2.062613,-0.090408,0.019547,0.023212
2026-01-04T15:34:23.686209,-9.686145,-1.249053,1.923829,-0.064751,0.007330,0.031764
2026-01-04T15:34:23.696209,-9.700502,-1.277767,1.852044,-0.010995,-0.007330,0.040317
2026-01-04T15:34:23.706209,-9.662217,-1.215553,1.842473,0.023212,-0.012217,0.037873
2026-01-04T15:34:23.715209,-9.695717,-1.119840,1.722832,0.053756,-0.015882,0.019547
2026-01-04T15:34:23.725209,-9.748359,-0.952343,1.646261,0.048869,-0.015882,-0.002443
2026-01-04T15:34:23.735209,-9.901499,-0.899701,1.450050,0.017104,-0.018325,-0.030543
2026-01-04T15:34:23.744209,-9.872786,-0.808774,1.703689,-0.025656,-0.042760,-0.048869
2026-01-04T15:34:23.754209,-9.729216,-0.823130,1.765903,-0.078190,-0.053756,-0.061086
2026-01-04T15:34:23.763209,-9.604789,-0.842273,1.765903,-0.105068,-0.054977,-0.062308
2026-01-04T15:34:23.773209,-9.643075,-1.004985,1.842473,-0.129503,-0.043982,-0.051312
2026-01-04T15:34:23.783209,-9.700502,-1.272981,1.971685,-0.112399,-0.045204,-0.046425
2026-01-04T15:34:23.792209,-9.839286,-1.440479,2.019542,-0.057421,-0.056199,-0.041538
2026-01-04T15:34:23.802209,-10.001998,-1.502692,1.655833,0.026878,-0.079412,-0.059864
2026-01-04T15:34:23.811209,-10.135996,-1.363908,1.607976,0.073303,-0.117286,-0.096516
2026-01-04T15:34:23.821209,-10.202995,-1.435693,1.976471,0.075747,-0.161268,-0.150272
2026-01-04T15:34:23.831209,-10.006784,-1.416550,1.880758,0.107512,-0.228463,-0.207694
2026-01-04T15:34:23.840209,-9.958927,-1.411765,2.163111,0.094073,-0.273667,-0.254119
2026-01-04T15:34:23.850209,-9.901499,-1.426122,2.478964,0.045204,-0.306654,-0.294436
2026-01-04T15:34:23.860209,-9.815358,-1.421336,2.340180,0.057421,-0.351858,-0.309097
2026-01-04T15:34:23.869209,-9.738787,-1.378265,2.201396,0.095294,-0.378736,-0.307876
2026-01-04T15:34:23.879209,-9.643075,-1.397408,2.254038,0.106290,-0.373849,-0.296880
2026-01-04T15:34:23.888209,-9.820143,-1.521835,1.775474,0.136833,-0.332310,-0.270002
2026-01-04T15:34:23.898209,-10.064211,-1.526620,1.904686,0.193033,-0.310319,-0.274889
2026-01-04T15:34:23.908209,-10.092925,-1.296909,1.947757,0.222354,-0.366519,-0.277332
2026-01-04T15:34:23.917209,-9.690931,-1.105484,1.363908,0.178372,-0.426383,-0.293215
2026-01-04T15:34:23.927209,-9.202795,-0.947557,2.048256,0.102625,-0.416610,-0.322536
2026-01-04T15:34:23.936209,-8.824729,-0.851844,2.301895,-0.030543,-0.354301,-0.318871
2026-01-04T15:34:23.946209,-8.776873,-0.952343,1.708475,-0.146607,-0.239459,-0.298102
2026-01-04T15:34:23.956209,-8.973084,-1.100698,2.541177,-0.252898,-0.151494,-0.245567
2026-01-04T15:34:23.965209,-9.111868,-1.502692,2.388036,-0.283441,-0.097738,-0.177150
2026-01-04T15:34:23.975209,-9.159724,-1.607976,2.282752,-0.158824,-0.057421,-0.086742
2026-01-04T15:34:23.985209,-9.078368,-1.344766,2.005185,-0.032986,-0.024434,-0.002443
2026-01-04T15:34:23.994209,-8.963513,-1.014556,1.603191,0.026878,0.012217,0.079412
2026-01-04T15:34:24.004209,-8.891728,-0.689132,1.947757,-0.015882,0.083077,0.129503
2026-01-04T15:34:24.013209,-9.049655,-0.569491,1.732403,-0.095294,0.162490,0.167377
2026-01-04T15:34:24.023209,-9.198010,-0.368494,1.512263,-0.219911,0.201585,0.200363
2026-01-04T15:34:24.033209,-9.346365,-0.167497,1.737189,-0.361632,0.186924,0.240680
2026-01-04T15:34:24.042209,-9.183653,-0.215354,2.048256,-0.547335,0.171042,0.267558
2026-01-04T15:34:24.052209,-8.824729,-0.885344,2.191825,-0.755029,0.168598,0.304210
2026-01-04T15:34:24.061209,-8.484948,-1.545763,1.942971,-0.797789,0.219911,0.371405
2026-01-04T15:34:24.071209,-8.408378,-1.708475,1.464407,-0.647517,0.329867,0.443488
2026-01-04T15:34:24.081209,-8.331808,-1.406979,1.306481,-0.486248,0.408057,0.531452
2026-01-04T15:34:24.090209,-8.312665,-1.062413,1.421336,-0.410501,0.476474,0.629191
2026-01-04T15:34:24.100209,-8.403592,-0.760917,1.440479,-0.361632,0.594982,0.692721
2026-01-04T15:34:24.110209,-8.614161,-0.445065,1.473978,-0.328645,0.707381,0.735481
2026-01-04T15:34:24.119209,-8.930013,-0.282353,1.306481,-0.397062,0.763581,0.775798
2026-01-04T15:34:24.129209,-9.016155,-0.406779,1.225125,-0.487470,0.794124,0.796568
2026-01-04T15:34:24.138209,-9.001798,-0.478564,1.464407,-0.533896,0.783129,0.814894
2026-01-04T15:34:24.148209,-8.633303,-0.612562,1.584048,-0.551000,0.748920,0.845437
2026-01-04T15:34:24.158209,-8.274380,-0.583848,0.890130,-0.515570,0.742811,0.904080
2026-01-04T15:34:24.167209,-8.030312,-0.382851,0.507278,-0.496022,0.811228,0.959058
2026-01-04T15:34:24.177209,-7.963313,-0.492921,1.057627,-0.577878,0.948062,0.974940
2026-01-04T15:34:24.186209,-8.489734,-0.780060,1.162911,-0.585208,1.109331,0.960279
2026-01-04T15:34:24.196209,-9.365507,-0.813559,1.411765,-0.485026,1.203404,0.896749
2026-01-04T15:34:24.206209,-10.179067,-0.626919,1.201196,-0.419053,1.132543,0.810007
2026-01-04T15:34:24.215209,-10.504491,-0.531206,0.717846,-0.350636,0.899193,0.737925
2026-01-04T15:34:24.225209,-10.059426,-0.354137,0.631705,-0.320093,0.594982,0.669508
2026-01-04T15:34:24.235209,-9.236295,-0.234496,0.870987,-0.361632,0.365297,0.643851
2026-01-04T15:34:24.244209,-8.307880,-0.363709,0.497707,-0.351858,0.311541,0.631634
2026-01-04T15:34:24.254209,-7.633104,-0.114855,0.315852,-0.312762,0.416610,0.640186
2026-01-04T15:34:24.263209,-7.221538,0.081355,0.957129,-0.334754,0.598647,0.678060
2026-01-04T15:34:24.273209,-7.408178,0.229710,1.028913,-0.340862,0.845437,0.764803
2026-01-04T15:34:24.283209,-8.221738,0.512064,0.196211,-0.267558,1.093448,0.856432
2026-01-04T15:34:24.292209,-9.169296,0.569491,0.617348,-0.326201,1.196073,0.928514
2026-01-04T15:34:24.302209,-9.877571,0.038285,0.923629,-0.384845,1.141096,0.954171
2026-01-04T15:34:24.311209,-10.298708,-0.086141,0.052642,-0.230907,0.968832,0.957836
2026-01-04T15:34:24.321209,-10.279565,0.157926,0.047856,-0.150272,0.733038,0.916297
2026-01-04T15:34:24.331209,-9.791430,0.401994,-0.339780,-0.153938,0.526565,0.836885
2026-01-04T15:34:24.340209,-9.188438,0.650847,-0.535992,-0.133168,0.404392,0.785572
2026-01-04T15:34:24.350209,-8.504091,0.756131,-0.483350,-0.235793,0.361632,0.725707
2026-01-04T15:34:24.360209,-7.872386,0.660419,-0.186640,-0.350636,0.427605,0.693942
2026-01-04T15:34:24.369209,-7.848458,0.478564,0.095712,-0.329867,0.669508,0.678060
2026-01-04T15:34:24.379209,-8.451449,0.555134,-0.775274,-0.284663,0.929736,0.664621
2026-01-04T15:34:24.388209,-9.174081,0.497707,-1.138983,-0.259006,1.029918,0.653625
2026-01-04T15:34:24.398209,-9.705288,0.378065,-0.655633,-0.265115,0.938288,0.592539
2026-01-04T15:34:24.408209,-9.738787,0.358923,-0.421136,-0.246789,0.763581,0.546113
2026-01-04T15:34:24.417209,-9.408578,0.574277,-0.507278,-0.237015,0.599869,0.509461
2026-01-04T15:34:24.427209,-8.896514,0.847059,-0.382851,-0.278554,0.520457,0.465479
2026-01-04T15:34:24.436209,-8.504091,1.100698,-0.081355,-0.310319,0.560774,0.444709
2026-01-04T15:34:24.446209,-8.379664,1.354337,-0.449850,-0.323758,0.684168,0.443488
2026-01-04T15:34:24.456209,-8.695517,1.588834,-0.990628,-0.365297,0.822224,0.469144
2026-01-04T15:34:24.465209,-9.245866,1.698904,-1.110269,-0.386066,0.934623,0.487470
2026-01-04T15:34:24.475209,-9.791430,1.588834,-0.995414,-0.411723,0.941954,0.494800
2026-01-04T15:34:24.485209,-10.121639,1.201196,-0.933200,-0.450818,0.824667,0.510683
2026-01-04T15:34:24.494209,-10.092925,0.765703,-1.043270,-0.455705,0.659734,0.493579
2026-01-04T15:34:24.504209,-9.667003,0.602991,-1.493121,-0.409279,0.502131,0.452040
2026-01-04T15:34:24.513209,-9.064012,0.693918,-1.593619,-0.329867,0.430049,0.401949
2026-01-04T15:34:24.523209,-8.547162,0.880558,-1.225125,-0.239459,0.439822,0.350636
2026-01-04T15:34:24.533209,-8.322237,1.263410,-0.808774,-0.206472,0.535117,0.350636
2026-01-04T15:34:24.542209,-8.647660,1.440479,-1.095912,-0.179594,0.737925,0.387288
2026-01-04T15:34:24.552209,-9.207581,1.679761,-0.947557,-0.128281,0.890641,0.384845
2026-01-04T15:34:24.561209,-9.714859,1.751546,-0.775274,-0.135612,0.841772,0.403170
2026-01-04T15:34:24.571209,-9.815358,1.718046,-1.052841,-0.172263,0.684168,0.442266
2026-01-04T15:34:24.581209,-9.681360,1.674975,-1.751546,-0.193033,0.564439,0.425162
2026-01-04T15:34:24.590209,-9.466006,1.813759,-2.053041,-0.217467,0.511904,0.381179
2026-01-04T15:34:24.600209,-9.221938,1.823330,-1.947757,-0.288328,0.507018,0.334754
2026-01-04T15:34:24.610209,-8.997012,1.799402,-1.808973,-0.362853,0.500909,0.310319
2026-01-04T15:34:24.619209,-8.944370,1.761117,-1.933400,-0.381179,0.527787,0.323758
2026-01-04T15:34:24.629209,-9.035298,1.775474,-1.694118,-0.340862,0.610865,0.355523
2026-01-04T15:34:24.638209,-9.346365,1.593619,-1.182054,-0.278554,0.687834,0.387288
2026-01-04T15:34:24.648209,-9.671788,1.301695,-1.378265,-0.169820,0.689055,0.420275
2026-01-04T15:34:24.658209,-9.930213,1.316052,-1.990828,-0.040317,0.610865,0.426383
2026-01-04T15:34:24.667209,-9.887142,1.536192,-2.474178,0.056199,0.509461,0.386066
2026-01-04T15:34:24.677209,-9.690931,1.871187,-2.196611,0.102625,0.416610,0.329867
2026-01-04T15:34:24.686209,-9.131011,2.163111,-2.239681,0.057421,0.301767,0.309097
2026-01-04T15:34:24.696209,-8.729016,2.316252,-2.636890,-0.078190,0.261450,0.304210
2026-01-04T15:34:24.706209,-8.685946,2.244467,-2.301895,-0.174707,0.411723,0.298102
2026-01-04T15:34:24.715209,-9.006584,2.239681,-1.775474,-0.157603,0.583987,0.287106
2026-01-04T15:34:24.725209,-9.523433,2.340180,-1.938186,-0.151494,0.588873,0.328645
2026-01-04T15:34:24.735209,-10.021141,2.297109,-2.440679,-0.141720,0.542448,0.370184
2026-01-04T15:34:24.744209,-10.322636,2.029113,-2.392822,-0.058643,0.480139,0.362853
2026-01-04T15:34:24.754209,-10.255637,2.014756,-2.215753,0.000000,0.342084,0.340862
2026-01-04T15:34:24.763209,-10.025926,1.990828,-2.167897,0.031764,0.202807,0.338419
2026-01-04T15:34:24.773209,-9.657432,2.182254,-2.392822,0.072082,0.130725,0.318871
2026-01-04T15:34:24.783209,-9.178867,2.440679,-2.766102,0.036651,0.072082,0.304210
2026-01-04T15:34:24.792209,-8.839086,2.493321,-2.708675,-0.062308,0.051312,0.296880
2026-01-04T15:34:24.802209,-8.819944,2.426322,-2.421536,-0.129503,0.139277,0.279776
2026-01-04T15:34:24.811209,-9.236295,2.507678,-2.890529,-0.129503,0.300545,0.274889
2026-01-04T15:34:24.821209,-9.987641,2.579462,-3.019742,-0.075747,0.430049,0.266337
2026-01-04T15:34:24.831209,-10.504491,2.531606,-2.220539,-0.080634,0.362853,0.270002
2026-01-04T15:34:24.840209,-10.542776,2.182254,-2.182254,-0.113620,0.094073,0.313984
2026-01-04T15:34:24.850209,-10.021141,2.105683,-2.833101,-0.025656,-0.128281,0.338419
2026-01-04T15:34:24.860209,-9.466006,2.421536,-3.144168,0.078190,-0.139277,0.301767
2026-01-04T15:34:24.869209,-9.274580,2.498106,-2.488535,0.035430,-0.046425,0.245567
2026-01-04T15:34:24.879209,-9.116654,2.565105,-2.321037,0.020769,-0.017104,0.217467
2026-01-04T15:34:24.888209,-9.102297,2.761317,-3.010170,0.041538,-0.024434,0.237015
2026-01-04T15:34:24.898209,-9.274580,2.890529,-3.129811,-0.051312,0.028099,0.217467
2026-01-04T15:34:24.908209,-9.796215,2.617747,-2.890529,-0.134390,0.145385,0.173485
2026-01-04T15:34:24.917209,-10.308279,2.493321,-3.105883,-0.086742,0.185702,0.172263
2026-01-04T15:34:24.927209,-10.384850,2.364108,-2.976671,-0.112399,0.024434,0.182037
2026-01-04T15:34:24.936209,-9.872786,2.177468,-3.144168,-0.113620,-0.171042,0.162490
2026-01-04T15:34:24.946209,-9.293722,2.292324,-3.081955,0.026878,-0.189368,0.133168
2026-01-04T15:34:24.956209,-9.116654,2.593819,-2.890529,0.064751,-0.072082,0.072082
2026-01-04T15:34:24.965209,-9.164510,2.665604,-2.617747,0.052534,0.029321,0.023212
2026-01-04T15:34:24.975209,-9.408578,2.837887,-2.785245,0.075747,0.067195,-0.017104
2026-01-04T15:34:24.985209,-9.719645,2.986242,-2.828316,0.035430,0.095294,-0.046425
2026-01-04T15:34:24.994209,-10.059426,3.048455,-2.421536,0.020769,0.092851,-0.048869
2026-01-04T15:34:25.004209,-10.265208,3.115455,-2.684746,0.019547,0.042760,0.003665
2026-01-04T15:34:25.013209,-10.494919,2.947957,-2.818745,-0.076969,-0.013439,0.041538
2026-01-04T15:34:25.023209,-10.662417,2.517249,-2.928814,-0.098960,-0.043982,0.026878
2026-01-04T15:34:25.033209,-10.561918,2.440679,-2.938386,-0.003665,-0.140498,0.017104
2026-01-04T15:34:25.042209,-9.997212,2.435893,-3.048455,0.007330,-0.315206,0.012217
2026-01-04T15:34:25.052209,-9.221938,2.321037,-3.153740,0.054977,-0.419053,-0.010995
2026-01-04T15:34:25.061209,-8.762516,2.569891,-3.354737,0.169820,-0.318871,-0.058643
2026-01-04T15:34:25.071209,-8.958727,2.900100,-3.010170,0.149051,-0.076969,-0.107512
2026-01-04T15:34:25.081209,-9.614361,2.900100,-2.584248,0.120951,0.112399,-0.162490
2026-01-04T15:34:25.090209,-10.193424,3.230310,-2.670390,0.164933,0.092851,-0.124616
2026-01-04T15:34:25.100209,-10.456634,3.536591,-3.019742,0.091629,-0.043982,-0.048869
2026-01-04T15:34:25.110209,-10.437492,3.273381,-3.010170,-0.047647,-0.161268,-0.012217
2026-01-04T15:34:25.119209,-10.451849,2.971885,-2.478964,-0.084299,-0.210137,0.015882
2026-01-04T15:34:25.129209,-10.552347,2.742174,-2.301895,-0.091629,-0.233350,0.058643
2026-01-04T15:34:25.138209,-10.657631,2.402393,-2.230110,-0.094073,-0.326201,0.087964
2026-01-04T15:34:25.148209,-10.442277,2.330609,-2.249253,0.026878,-0.458148,0.073303
2026-01-04T15:34:25.158209,-10.308279,2.871387,-4.522434,0.199142,-0.531452,0.074525
2026-01-04T15:34:25.167209,-12.356535,4.340580,-9.585647,0.445931,-0.063529,0.054977
2026-01-04T15:34:25.177209,-18.482161,5.958128,-8.341379,0.614530,1.474628,-0.098960
2026-01-04T15:34:25.186209,-23.028524,4.704289,-0.756131,0.346971,1.938885,-0.086742
2026-01-04T15:34:25.196209,-19.898712,3.818944,-2.483749,-0.191811,-0.919962,0.324980
2026-01-04T15:34:25.206209,-11.566904,2.000399,-1.450050,-0.248011,-3.054325,0.558330
2026-01-04T15:34:25.215209,-5.125426,1.698904,-4.484149,0.135612,-3.307223,0.565661
2026-01-04T15:34:25.225209,-1.421336,3.254238,-5.465206,0.294436,-2.667037,0.537561
2026-01-04T15:34:25.235209,-1.167697,3.742374,-3.373879,0.428827,-0.983492,0.163711
2026-01-04T15:34:25.244209,-4.728217,3.091526,1.316052,0.392175,1.298699,0.045204
2026-01-04T15:34:25.254209,-10.068997,3.043670,-3.349951,0.166155,2.147801,0.318871
2026-01-04T15:34:25.263209,-13.859228,3.321237,-3.684946,0.107512,1.193630,0.243124
2026-01-04T15:34:25.273209,-14.615360,2.421536,1.110269,-0.145385,0.116064,0.035430
2026-01-04T15:34:25.283209,-12.509676,1.579262,-3.072384,-0.067195,-0.737925,0.340862
2026-01-04T15:34:25.292209,-9.934999,2.306680,-5.642275,0.161268,-1.232725,0.376292
2026-01-04T15:34:25.302209,-7.623532,2.411965,-3.172882,0.073303,-1.226617,0.131946
2026-01-04T15:34:25.311209,-6.843472,2.301895,-0.942772,0.215024,-0.670729,0.184481
2026-01-04T15:34:25.321209,-7.365107,2.890529,-0.464207,0.432492,-0.124616,0.274889
2026-01-04T15:34:25.331209,-8.413164,3.148954,-2.301895,0.274889,0.097738,0.299323
2026-01-04T15:34:25.340209,-9.308079,3.498306,-4.244867,0.175929,0.023212,0.353080
2026-01-04T15:34:25.350209,-10.155139,4.412364,-2.220539,0.103847,-0.001221,0.186924
2026-01-04T15:34:25.360209,-11.217552,4.249652,-2.584248,-0.074525,0.204028,0.171042
2026-01-04T15:34:25.369209,-12.117253,3.838087,-3.613162,-0.180816,0.210137,0.315206
2026-01-04T15:34:25.379209,-11.734402,3.278166,-1.426122,-0.276111,-0.293215,0.149051
2026-01-04T15:34:25.388209,-10.317851,2.445464,-1.378265,-0.249232,-0.566882,0.234572
2026-01-04T15:34:25.398209,-9.250652,2.569891,-2.947957,0.019547,-0.588873,0.337197
2026-01-04T15:34:25.408209,-8.561519,3.005385,-2.890529,0.100181,-0.422718,0.219911
2026-01-04T15:34:25.417209,-8.992227,3.125026,-2.354537,0.128281,-0.031764,0.202807
2026-01-04T15:34:25.427209,-10.212566,3.402593,-1.373480,0.144164,0.256563,0.219911
2026-01-04T15:34:25.436209,-10.973484,3.326023,-1.679761,0.024434,0.173485,0.251676
2026-01-04T15:34:25.446209,-10.920842,3.211167,-2.407179,0.051312,-0.227241,0.299323
2026-01-04T15:34:25.456209,-10.102497,3.340380,-1.895115,-0.004886,-0.431270,0.288328
2026-01-04T15:34:25.465209,-9.547362,3.115455,-1.818545,0.046425,-0.359188,0.262671
2026-01-04T15:34:25.475209,-9.422935,3.407379,-2.277967,0.120951,-0.262671,0.282219
2026-01-04T15:34:25.485209,-9.753144,3.426521,-2.589034,0.009773,-0.164933,0.270002
2026-01-04T15:34:25.494209,-10.145567,3.053241,-2.239681,-0.029321,-0.090408,0.268780
2026-01-04T15:34:25.504209,-10.322636,3.158525,-0.813559,0.076969,-0.217467,0.227241
2026-01-04T15:34:25.513209,-10.188638,3.072384,-1.292124,0.111177,-0.321315,0.260228
2026-01-04T15:34:25.523209,-10.011569,3.206382,-3.058027,0.239459,-0.317649,0.288328
2026-01-04T15:34:25.533209,-9.844072,3.589233,-2.478964,0.256563,-0.324980,0.168598
2026-01-04T15:34:25.542209,-9.767501,3.656232,-1.962114,0.145385,-0.320093,0.147829
2026-01-04T15:34:25.552209,-9.614361,3.594019,-1.890329,0.122173,-0.310319,0.158824
2026-01-04T15:34:25.561209,-9.518648,3.622733,-1.990828,0.075747,-0.296880,0.156381
2026-01-04T15:34:25.571209,-9.734002,3.517449,-2.024327,0.042760,-0.270002,0.156381
2026-01-04T15:34:25.581209,-10.236495,3.608376,-1.517049,0.078190,-0.194255,0.144164
2026-01-04T15:34:25.590209,-10.604989,3.550948,-1.847259,0.118507,-0.200363,0.163711
2026-01-04T15:34:25.600209,-10.662417,3.469592,-2.660818,0.139277,-0.309097,0.190589
2026-01-04T15:34:25.610209,-10.403992,3.483949,-2.067398,0.151494,-0.454483,0.150272
2026-01-04T15:34:25.619209,-9.872786,3.565305,-1.430907,0.184481,-0.533896,0.135612
2026-01-04T15:34:25.629209,-9.427721,3.814159,-1.808973,0.254119,-0.513126,0.140498
2026-01-04T15:34:25.638209,-9.427721,3.972085,-2.416750,0.224798,-0.408057,0.122173
2026-01-04T15:34:25.648209,-9.848857,3.862015,-1.732403,0.075747,-0.324980,0.074525
2026-01-04T15:34:25.658209,-10.250852,3.469592,-1.182054,0.024434,-0.328645,0.045204
2026-01-04T15:34:25.667209,-10.470991,3.311666,-1.536192,0.050090,-0.419053,0.094073
2026-01-04T15:34:25.677209,-10.561918,3.091526,-1.818545,0.067195,-0.486248,0.084299
2026-01-04T15:34:25.686209,-10.494919,3.024527,-1.210768,0.188146,-0.524122,0.047647
2026-01-04T15:34:25.696209,-10.131210,3.187239,-1.220339,0.316428,-0.591317,0.053756
2026-01-04T15:34:25.706209,-9.801001,3.450450,-1.727617,0.343306,-0.625525,0.065973
2026-01-04T15:34:25.715209,-9.681360,3.589233,-1.808973,0.354301,-0.593760,0.023212
2026-01-04T15:34:25.725209,-9.796215,3.976871,-1.239482,0.339641,-0.541226,-0.017104
2026-01-04T15:34:25.735209,-9.882357,4.024727,-1.000199,0.273667,-0.538783,-0.039095
2026-01-04T15:34:25.744209,-10.025926,3.780659,-1.296909,0.144164,-0.547335,-0.037873
2026-01-04T15:34:25.754209,-10.179067,3.393022,-1.263410,0.057421,-0.504574,-0.086742
2026-01-04T15:34:25.763209,-10.370493,3.115455,-0.870987,0.080634,-0.555887,-0.125838
2026-01-04T15:34:25.773209,-10.418349,2.914457,-1.028913,0.102625,-0.607199,-0.112399
2026-01-04T15:34:25.783209,-10.447063,2.751745,-0.995414,0.183259,-0.615752,-0.117286
2026-01-04T15:34:25.792209,-10.255637,2.895315,-0.722632,0.333532,-0.676838,-0.152716
2026-01-04T15:34:25.802209,-9.987641,3.043670,-1.339980,0.398284,-0.735481,-0.113620
2026-01-04T15:34:25.811209,-9.810572,3.278166,-1.445264,0.476474,-0.746477,-0.180816
2026-01-04T15:34:25.821209,-9.662217,3.613162,-0.976271,0.467922,-0.720820,-0.221133
2026-01-04T15:34:25.831209,-9.466006,3.699303,-0.636490,0.399505,-0.759916,-0.261450
2026-01-04T15:34:25.840209,-9.274580,3.589233,-0.751346,0.290771,-0.764803,-0.284663
2026-01-04T15:34:25.850209,-9.375078,3.249453,-0.607776,0.127059,-0.659734,-0.331088
2026-01-04T15:34:25.860209,-9.614361,2.861815,-0.732203,0.090408,-0.582765,-0.404392
2026-01-04T15:34:25.869209,-9.786644,2.502892,-0.612562,0.102625,-0.596204,-0.428827
2026-01-04T15:34:25.879209,-9.595218,2.392822,-0.358923,0.172263,-0.692721,-0.472809
2026-01-04T15:34:25.888209,-9.456434,2.522035,-0.516849,0.384845,-0.762359,-0.475253
2026-01-04T15:34:25.898209,-9.489934,2.947957,-0.167497,0.438601,-0.741590,-0.488692
2026-01-04T15:34:25.908209,-9.556933,3.101098,0.148355,0.459370,-0.703716,-0.520457
2026-01-04T15:34:25.917209,-9.566504,3.345165,-0.363709,0.452040,-0.762359,-0.491135
2026-01-04T15:34:25.927209,-9.207581,3.244667,-0.995414,0.309097,-0.856432,-0.509461
2026-01-04T15:34:25.936209,-8.891728,2.967100,-0.626919,0.178372,-0.884532,-0.597426
2026-01-04T15:34:25.946209,-8.824729,2.498106,0.421136,0.031764,-0.797789,-0.687834
2026-01-04T15:34:25.956209,-8.891728,2.115255,0.119641,0.001221,-0.673173,-0.748920
2026-01-04T15:34:25.965209,-9.097511,2.009970,0.004785,0.056199,-0.653625,-0.769690
2026-01-04T15:34:25.975209,-9.212367,1.871187,0.488135,0.094073,-0.702494,-0.783129
2026-01-04T15:34:25.985209,-9.293722,1.785045,0.157926,0.224798,-0.702494,-0.761137
2026-01-04T15:34:25.994209,-9.308079,1.875972,0.837487,0.299323,-0.755029,-0.747698
2026-01-04T15:34:26.004209,-8.949156,1.880758,0.952343,0.340862,-0.847880,-0.746477
2026-01-04T15:34:26.013209,-8.863014,2.249253,0.105284,0.445931,-0.813672,-0.725707
2026-01-04T15:34:26.023209,-8.973084,2.330609,-0.780060,0.283441,-0.724486,-0.795346
2026-01-04T15:34:26.033209,-8.867800,1.847259,0.641276,0.040317,-0.736703,-0.895528
2026-01-04T15:34:26.042209,-8.585447,1.641476,0.531206,0.028099,-0.757472,-0.917519
2026-01-04T15:34:26.052209,-8.508877,1.622333,0.732203,0.019547,-0.658512,-0.924849
2026-01-04T15:34:26.061209,-8.590233,1.172483,1.239482,-0.004886,-0.572991,-0.974940
2026-01-04T15:34:26.071209,-8.810372,1.138983,0.904486,0.141720,-0.601091,-0.937067
2026-01-04T15:34:26.081209,-8.973084,1.430907,1.134197,0.221133,-0.663399,-0.938288
2026-01-04T15:34:26.090209,-9.126225,1.220339,1.191625,0.207694,-0.696386,-0.919962
2026-01-04T15:34:26.100209,-9.265009,1.622333,0.832702,0.279776,-0.707381,-0.949284
2026-01-04T15:34:26.110209,-9.609575,1.885544,0.057427,0.234572,-0.684168,-0.989601
2026-01-04T15:34:26.119209,-9.537790,1.593619,1.182054,-0.032986,-0.746477,-1.080009
2026-01-04T15:34:26.129209,-9.174081,1.167697,0.875773,-0.105068,-0.879645,-1.134987
2026-01-04T15:34:26.138209,-8.767302,1.038485,1.469193,-0.098960,-0.901636,-1.175304
2026-01-04T15:34:26.148209,-8.422735,0.459421,1.904686,-0.150272,-0.864984,-1.193630
2026-01-04T15:34:26.158209,-8.341379,0.148355,2.502892,-0.069638,-0.802676,-1.167974
2026-01-04T15:34:26.167209,-8.633303,0.263210,2.086541,0.114842,-0.726929,-1.137430
2026-01-04T15:34:26.177209,-9.193224,0.569491,1.555334,0.226020,-0.709825,-1.103222
2026-01-04T15:34:26.186209,-9.643075,1.004985,1.004985,0.248011,-0.762359,-1.117883
2026-01-04T15:34:26.196209,-9.614361,1.124626,0.933200,0.140498,-0.874758,-1.141096
2026-01-04T15:34:26.206209,-9.087940,0.976271,0.732203,-0.039095,-1.039692,-1.210734
2026-01-04T15:34:26.215209,-8.245666,0.354137,0.914058,-0.227241,-1.078787,-1.276708
2026-01-04T15:34:26.225209,-7.465606,-0.406779,2.072184,-0.417831,-1.040914,-1.379333
2026-01-04T15:34:26.235209,-7.092326,-1.033699,2.340180,-0.368962,-0.912632,-1.372003
2026-01-04T15:34:26.244209,-7.049255,-0.808774,2.249253,-0.111177,-0.789237,-1.336572
2026-01-04T15:34:26.254209,-7.044469,-0.315852,2.373680,0.059864,-0.713490,-1.218065
2026-01-04T15:34:26.263209,-7.030112,0.263210,2.143969,0.179594,-0.669508,-1.050687
2026-01-04T15:34:26.273209,-7.034898,1.153340,1.531406,0.233350,-0.577878,-0.866206
2026-01-04T15:34:26.283209,-7.183253,1.808973,1.469193,0.095294,-0.431270,-0.701273
2026-01-04T15:34:26.292209,-7.412964,2.057827,0.861416,-0.106290,-0.283441,-0.559552
2026-01-04T15:34:26.302209,-7.633104,1.655833,0.966700,-0.406836,-0.189368,-0.426383
2026-01-04T15:34:26.311209,-7.685746,0.531206,2.206182,-0.752585,-0.081855,-0.359188
2026-01-04T15:34:26.321209,-7.795816,-0.684347,2.206182,-0.718377,-0.014660,-0.296880
2026-01-04T15:34:26.331209,-7.709674,-1.000199,1.196411,-0.496022,-0.061086,-0.206472
2026-01-04T15:34:26.340209,-7.207181,-0.961914,1.636690,-0.329867,-0.124616,-0.117286
2026-01-04T15:34:26.350209,-6.800401,-0.330209,2.057827,-0.089186,-0.073303,-0.025656
2026-01-04T15:34:26.360209,-6.575476,0.674775,1.966900,0.003665,0.072082,0.089186
2026-01-04T15:34:26.369209,-6.685546,1.052841,1.540977,-0.235793,0.210137,0.207694
2026-01-04T15:34:26.379209,-6.896114,0.626919,1.636690,-0.524122,0.339641,0.317649
2026-01-04T15:34:26.388209,-7.350751,-0.224925,1.904686,-0.728151,0.491135,0.434935
2026-01-04T15:34:26.398209,-8.164310,-1.105484,1.933400,-0.781907,0.663399,0.535117
2026-01-04T15:34:26.408209,-9.150153,-1.430907,1.148554,-0.486248,0.758694,0.565661
2026-01-04T15:34:26.417209,-9.839286,-0.971485,1.048056,-0.168598,0.651182,0.614530
2026-01-04T15:34:26.427209,-9.686145,-0.339780,1.493121,-0.056199,0.395840,0.682947
2026-01-04T15:34:26.436209,-8.934799,0.387637,1.574477,0.075747,0.221133,0.756251
2026-01-04T15:34:26.446209,-8.111668,0.866201,1.660618,0.026878,0.210137,0.790459
2026-01-04T15:34:26.456209,-7.671389,0.607776,1.856830,-0.255341,0.310319,0.807563
2026-01-04T15:34:26.465209,-7.685746,-0.110069,1.875972,-0.420275,0.509461,0.790459
2026-01-04T15:34:26.475209,-8.154739,-0.363709,1.919043,-0.438601,0.691499,0.735481
2026-01-04T15:34:26.485209,-8.800801,-0.626919,1.674975,-0.422718,0.701273,0.693942
2026-01-04T15:34:26.494209,-9.020941,-0.507278,1.660618,-0.357966,0.583987,0.674395
2026-01-04T15:34:26.504209,-9.087940,-0.133998,1.124626,-0.300545,0.464257,0.676838
2026-01-04T15:34:26.513209,-8.810372,0.191425,1.134197,-0.280997,0.414166,0.696386
2026-01-04T15:34:26.523209,-8.590233,0.373280,1.555334,-0.299323,0.453261,0.773355
2026-01-04T15:34:26.533209,-8.657232,0.430708,1.765903,-0.228463,0.548556,0.875980
2026-01-04T15:34:26.542209,-8.724231,0.267996,2.076970,-0.138055,0.568104,0.963945
2026-01-04T15:34:26.552209,-8.652446,0.200997,1.641476,-0.109955,0.489913,1.062905
2026-01-04T15:34:26.561209,-8.623732,0.210568,1.234696,-0.094073,0.497244,1.104444
2026-01-04T15:34:26.571209,-8.709874,0.387637,1.186840,-0.063529,0.587652,1.051909
2026-01-04T15:34:26.581209,-8.757730,0.516849,1.627119,-0.084299,0.638964,1.004262
2026-01-04T15:34:26.590209,-8.705088,0.583848,1.617548,-0.164933,0.601091,0.993266
2026-01-04T15:34:26.600209,-8.312665,0.583848,0.464207,-0.227241,0.532674,1.022588
2026-01-04T15:34:26.610209,-8.025527,0.612562,-0.114855,-0.279776,0.574213,1.016479
2026-01-04T15:34:26.619209,-8.116454,0.583848,0.215354,-0.320093,0.779463,0.955393
2026-01-04T15:34:26.629209,-8.819944,0.550349,0.789631,-0.274889,1.038470,0.877202
2026-01-04T15:34:26.638209,-9.853643,0.473778,1.100698,-0.195476,1.119104,0.800233
2026-01-04T15:34:26.648209,-10.279565,0.521635,1.430907,-0.169820,0.896749,0.759916
2026-01-04T15:34:26.658209,-10.001998,0.674775,1.392622,-0.113620,0.587652,0.762359
2026-01-04T15:34:26.667209,-9.236295,0.952343,0.746560,0.026878,0.408057,0.746477
2026-01-04T15:34:26.677209,-8.384450,1.392622,0.636490,0.075747,0.356745,0.718377
2026-01-04T15:34:26.686209,-7.762316,1.698904,0.669990,-0.006108,0.433714,0.717155
2026-01-04T15:34:26.696209,-7.637889,2.033899,-0.090927,-0.085521,0.630412,0.742811
2026-01-04T15:34:26.706209,-8.116454,2.368894,-0.808774,-0.188146,0.885754,0.772133
2026-01-04T15:34:26.715209,-9.044869,2.258824,-0.449850,-0.362853,1.091005,0.757472
2026-01-04T15:34:26.725209,-10.030712,1.871187,0.138783,-0.472809,1.137430,0.747698
2026-01-04T15:34:26.735209,-10.767701,1.450050,0.129212,-0.449596,1.007927,0.746477
2026-01-04T15:34:26.744209,-10.762916,1.033699,0.095712,-0.399505,0.753807,0.715933
2026-01-04T15:34:26.754209,-10.164710,0.722632,0.153140,-0.294436,0.455705,0.662177
2026-01-04T15:34:26.763209,-9.087940,1.052841,0.181854,-0.138055,0.255341,0.619417
2026-01-04T15:34:26.773209,-8.216952,1.603191,0.033499,-0.050090,0.273667,0.594982
2026-01-04T15:34:26.783209,-7.929814,1.995614,-0.334995,-0.052534,0.454483,0.575434
2026-01-04T15:34:26.792209,-8.025527,2.321037,-0.478564,-0.119729,0.663399,0.559552
2026-01-04T15:34:26.802209,-8.604590,2.282752,-0.052642,-0.222354,0.829554,0.551000
2026-01-04T15:34:26.811209,-9.346365,2.086541,0.186640,-0.305432,0.924849,0.542448
2026-01-04T15:34:26.821209,-10.198209,1.789831,-0.162711,-0.316428,0.950506,0.538783
2026-01-04T15:34:26.831209,-10.585847,1.473978,-0.301495,-0.274889,0.800233,0.527787
2026-01-04T15:34:26.840209,-10.222138,1.507478,-0.220139,-0.145385,0.498465,0.486248
2026-01-04T15:34:26.850209,-9.456434,1.837687,-0.693918,-0.008552,0.282219,0.489913
2026-01-04T15:34:26.860209,-8.709874,2.244467,-0.899701,0.030543,0.262671,0.477696
2026-01-04T15:34:26.869209,-8.260023,2.579462,-0.665204,-0.028099,0.376292,0.427605
2026-01-04T15:34:26.879209,-8.298308,2.799602,-0.626919,-0.112399,0.581543,0.420275
2026-01-04T15:34:26.888209,-8.891728,2.732603,-0.512064,-0.199142,0.796568,0.419053
2026-01-04T15:34:26.898209,-9.580861,2.541177,-0.516849,-0.233350,0.855211,0.432492
2026-01-04T15:34:26.908209,-10.313065,2.498106,-0.650847,-0.216246,0.766024,0.466700
2026-01-04T15:34:26.917209,-10.700702,2.311466,-0.593420,-0.157603,0.638964,0.472809
2026-01-04T15:34:26.927209,-10.652846,2.115255,-0.464207,-0.079412,0.434935,0.496022
2026-01-04T15:34:26.936209,-10.059426,2.225325,-0.574277,0.013439,0.186924,0.511904
2026-01-04T15:34:26.946209,-9.174081,2.579462,-0.770488,0.111177,0.062308,0.520457
2026-01-04T15:34:26.956209,-8.365307,2.909672,-0.866201,0.128281,0.087964,0.527787
2026-01-04T15:34:26.965209,-8.149953,3.263810,-1.177268,0.039095,0.212581,0.521678
2026-01-04T15:34:26.975209,-8.394021,3.302095,-1.316052,-0.086742,0.437379,0.492357
2026-01-04T15:34:26.985209,-9.250652,3.081955,-1.493121,-0.210137,0.649960,0.478918
2026-01-04T15:34:26.994209,-10.217352,2.900100,-1.517049,-0.235793,0.668286,0.442266
2026-01-04T15:34:27.004209,-10.748559,2.517249,-0.851844,-0.241902,0.477696,0.394618
2026-01-04T15:34:27.013209,-10.585847,2.110469,-0.918843,-0.221133,0.221133,0.412944
2026-01-04T15:34:27.023209,-10.001998,2.158325,-1.191625,-0.043982,-0.003665,0.395840
2026-01-04T15:34:27.033209,-9.375078,2.737389,-1.014556,0.107512,-0.100181,0.342084
2026-01-04T15:34:27.042209,-8.858229,3.139383,-1.311266,0.129503,-0.032986,0.357966
2026-01-04T15:34:27.052209,-8.633303,3.440878,-1.316052,0.134390,0.058643,0.355523
2026-01-04T15:34:27.061209,-8.609375,3.828516,-1.239482,0.053756,0.128281,0.335975
2026-01-04T15:34:27.071209,-8.973084,3.742374,-1.579262,-0.100181,0.245567,0.365297
2026-01-04T15:34:27.081209,-9.480363,3.512663,-1.593619,-0.196698,0.342084,0.349414
2026-01-04T15:34:27.090209,-10.179067,3.460021,-1.741974,-0.240680,0.356745,0.313984
2026-01-04T15:34:27.100209,-10.839486,3.091526,-1.966900,-0.237015,0.305432,0.305432
2026-01-04T15:34:27.110209,-10.930413,2.641676,-0.995414,-0.241902,0.114842,0.289550
2026-01-04T15:34:27.119209,-10.332207,2.292324,-0.296710,-0.164933,-0.161268,0.271224
2026-01-04T15:34:27.129209,-9.399007,2.507678,-0.473778,0.063529,-0.304210,0.283441
2026-01-04T15:34:27.138209,-8.671589,3.081955,-1.636690,0.249232,-0.216246,0.273667
2026-01-04T15:34:27.148209,-8.413164,3.675375,-2.191825,0.206472,-0.045204,0.232128
2026-01-04T15:34:27.158209,-8.743373,3.924229,-1.718046,0.050090,0.111177,0.172263
2026-01-04T15:34:27.167209,-9.399007,4.019941,-1.435693,-0.032986,0.240680,0.120951
2026-01-04T15:34:27.177209,-10.303494,3.938585,-1.880758,-0.125838,0.320093,0.123394
2026-01-04T15:34:27.186209,-11.045269,3.570091,-2.139183,-0.213802,0.241902,0.107512
2026-01-04T15:34:27.196209,-11.117053,3.120240,-1.392622,-0.228463,0.014660,0.069638
2026-01-04T15:34:27.206209,-10.480562,2.723032,-1.014556,-0.166155,-0.233350,0.098960
2026-01-04T15:34:27.215209,-9.418149,2.708675,-0.890130,0.024434,-0.375071,0.107512
2026-01-04T15:34:27.225209,-8.537591,3.077169,-1.162911,0.184481,-0.311541,0.091629
2026-01-04T15:34:27.235209,-8.288737,3.603590,-1.981257,0.244346,-0.087964,0.075747
2026-01-04T15:34:27.244209,-8.762516,4.091726,-2.464607,0.188146,0.151494,0.017104
2026-01-04T15:34:27.254209,-9.566504,4.302295,-2.105683,0.036651,0.323758,-0.034208
2026-01-04T15:34:27.263209,-10.327422,4.201796,-1.339980,-0.135612,0.306654,-0.064751
2026-01-04T15:34:27.273209,-10.552347,3.857230,-1.856830,-0.278554,0.155159,-0.048869
2026-01-04T15:34:27.283209,-10.614561,3.354737,-1.895115,-0.318871,0.057421,-0.047647
2026-01-04T15:34:27.292209,-10.456634,2.813959,-0.799202,-0.251676,-0.004886,-0.078190
2026-01-04T15:34:27.302209,-10.021141,2.660818,-0.751346,-0.025656,-0.117286,-0.041538
2026-01-04T15:34:27.311209,-9.686145,3.077169,-1.301695,0.240680,-0.200363,0.001221
2026-01-04T15:34:27.321209,-9.451649,3.656232,-1.550549,0.355523,-0.169820,0.000000
2026-01-04T15:34:27.331209,-9.456434,4.177868,-1.612762,0.334754,-0.111177,-0.001221
2026-01-04T15:34:27.340209,-9.719645,4.618147,-1.823330,0.244346,-0.122173,-0.008552
2026-01-04T15:34:27.350209,-9.978070,4.718646,-2.014756,0.023212,-0.101403,0.002443
2026-01-04T15:34:27.360209,-10.423135,4.230510,-1.727617,-0.221133,-0.045204,-0.034208
2026-01-04T15:34:27.369209,-10.743773,3.579662,-1.670190,-0.333532,-0.068416,-0.032986
2026-01-04T15:34:27.379209,-10.729416,2.971885,-1.464407,-0.263893,-0.184481,-0.018325
2026-01-04T15:34:27.388209,-10.504491,2.536391,-1.134197,-0.103847,-0.300545,-0.018325
2026-01-04T15:34:27.398209,-10.112068,2.455035,-1.071984,0.124616,-0.372627,0.014660
2026-01-04T15:34:27.408209,-9.681360,3.091526,-1.459621,0.376292,-0.353080,0.006108
2026-01-04T15:34:27.417209,-9.652646,3.967299,-1.986042,0.423940,-0.219911,0.001221
2026-01-04T15:34:27.427209,-9.767501,4.536791,-2.311466,0.310319,-0.120951,-0.035430
2026-01-04T15:34:27.436209,-9.820143,4.737788,-1.976471,0.078190,-0.106290,-0.085521
2026-01-04T15:34:27.446209,-9.705288,4.378865,-1.899901,-0.199142,-0.108733,-0.129503
2026-01-04T15:34:27.456209,-9.633503,3.699303,-2.033899,-0.438601,-0.032986,-0.172263
2026-01-04T15:34:27.465209,-9.724431,3.000599,-1.971685,-0.576656,0.098960,-0.222354
2026-01-04T15:34:27.475209,-9.820143,2.522035,-1.473978,-0.538783,0.164933,-0.278554
2026-01-04T15:34:27.485209,-10.490134,2.775674,-2.847458,-0.234572,0.301767,-0.279776
2026-01-04T15:34:27.494209,-12.662817,4.182653,-4.197010,0.216246,0.750142,-0.298102
2026-01-04T15:34:27.504209,-16.319050,5.560919,-1.430907,0.432492,1.303586,-0.335975
2026-01-04T15:34:27.513209,-17.769100,5.130211,-1.703689,0.414166,0.976162,-0.008552
2026-01-04T15:34:27.523209,-14.916856,4.771288,-1.019342,0.080634,-0.695164,0.338419
2026-01-04T15:34:27.533209,-9.772287,3.895515,0.397208,-0.001221,-1.777617,0.268780
2026-01-04T15:34:27.542209,-6.948756,4.474578,-3.321237,0.287106,-1.297477,0.471587
2026-01-04T15:34:27.552209,-6.829115,5.048855,-1.971685,0.239459,-0.289550,0.332310
2026-01-04T15:34:27.561209,-8.044669,3.708875,-0.296710,-0.243124,0.151494,0.216246
2026-01-04T15:34:27.571209,-9.652646,1.957328,0.315852,-0.309097,0.076969,0.360410
2026-01-04T15:34:27.581209,-10.762916,1.507478,-0.909272,0.087964,-0.239459,0.349414
2026-01-04T15:34:27.590209,-11.375478,2.263610,-1.124626,0.563217,-0.453261,0.290771
2026-01-04T15:34:27.600209,-11.973684,3.168097,-1.990828,0.897971,-0.434935,0.398284
2026-01-04T15:34:27.610209,-11.590832,4.115654,-1.727617,0.927293,-0.736703,0.431270
2026-01-04T15:34:27.619209,-10.107282,4.876572,-1.277767,0.829554,-1.158200,0.447153
2026-01-04T15:34:27.629209,-8.843872,5.355136,-2.033899,0.603534,-1.105665,0.542448
2026-01-04T15:34:27.638209,-8.499305,5.024927,-2.785245,0.119729,-0.724486,0.575434
2026-01-04T15:34:27.648209,-9.078368,4.321437,-0.765703,-0.100181,-0.400727,0.419053
2026-01-04T15:34:27.658209,-10.135996,3.895515,-1.287338,-0.086742,-0.155159,0.444709
2026-01-04T15:34:27.667209,-10.925627,3.608376,-2.689532,-0.087964,-0.177150,0.452040
2026-01-04T15:34:27.677209,-11.217552,3.469592,-1.287338,0.017104,-0.299323,0.293215
2026-01-04T15:34:27.686209,-11.160124,3.751945,-1.105484,0.193033,-0.223576,0.302989
2026-01-04T15:34:27.696209,-10.758130,4.048655,-1.430907,0.288328,-0.301767,0.284663
2026-01-04T15:34:27.706209,-9.738787,4.273581,-1.761117,0.271224,-0.471587,0.249232
2026-01-04T15:34:27.715209,-9.542576,4.627718,-1.402194,0.199142,-0.261450,0.215024
2026-01-04T15:34:27.725209,-10.107282,4.675575,-1.177268,0.153938,0.079412,0.153938
2026-01-04T15:34:27.735209,-10.882557,4.594219,-0.756131,-0.037873,0.091629,0.194255
2026-01-04T15:34:27.744209,-11.059626,3.943371,-0.468993,-0.133168,-0.003665,0.157603
2026-01-04T15:34:27.754209,-10.628917,3.747160,-1.933400,-0.031764,-0.147829,0.237015
2026-01-04T15:34:27.763209,-10.112068,3.862015,-1.191625,0.023212,-0.257785,0.158824
2026-01-04T15:34:27.773209,-9.853643,3.699303,-0.526420,0.045204,-0.188146,0.153938
2026-01-04T15:34:27.783209,-9.657432,3.924229,0.133998,0.210137,-0.155159,0.119729
2026-01-04T15:34:27.792209,-9.461220,4.244867,-1.631905,0.223576,-0.111177,0.131946
2026-01-04T15:34:27.802209,-9.623932,4.302295,-1.785045,0.123394,-0.047647,0.120951
2026-01-04T15:34:27.811209,-9.891928,4.302295,-0.334995,0.056199,-0.087964,0.014660
2026-01-04T15:34:27.821209,-10.088140,4.125226,-0.330209,0.012217,-0.089186,0.051312
2026-01-04T15:34:27.831209,-10.049854,3.881158,-1.344766,0.010995,-0.123394,0.056199
2026-01-04T15:34:27.840209,-9.920642,3.684946,-1.445264,0.006108,-0.205250,0.039095
2026-01-04T15:34:27.850209,-9.710074,3.541377,-0.258424,0.101403,-0.289550,0.018325
2026-01-04T15:34:27.860209,-9.303294,3.651447,-0.277567,0.268780,-0.344527,0.043982
2026-01-04T15:34:27.869209,-9.087940,3.967299,-0.875773,0.353080,-0.345749,0.063529
2026-01-04T15:34:27.879209,-9.131011,4.206582,-0.617348,0.339641,-0.289550,0.002443
2026-01-04T15:34:27.888209,-9.604789,4.460221,-0.808774,0.261450,-0.219911,0.007330
2026-01-04T15:34:27.898209,-9.978070,4.292723,-0.952343,0.146607,-0.256563,-0.010995
2026-01-04T15:34:27.908209,-9.891928,4.058227,-1.249053,0.041538,-0.382401,-0.017104
2026-01-04T15:34:27.917209,-9.504291,3.751945,-0.894915,0.003665,-0.527787,-0.037873
2026-01-04T15:34:27.927209,-8.915657,3.464807,-0.272781,0.034208,-0.576656,-0.074525
2026-01-04T15:34:27.936209,-8.504091,3.493520,-0.741775,0.127059,-0.487470,-0.064751
2026-01-04T15:34:27.946209,-8.623732,3.579662,-1.167697,0.177150,-0.348193,-0.107512
2026-01-04T15:34:27.956209,-8.834301,3.617947,-0.856630,0.138055,-0.265115,-0.167377
2026-01-04T15:34:27.965209,-9.250652,3.594019,-0.052642,0.150272,-0.261450,-0.228463
2026-01-04T15:34:27.975209,-9.375078,3.756731,-0.052642,0.194255,-0.278554,-0.239459
2026-01-04T15:34:27.985209,-9.485148,3.756731,-0.598205,0.196698,-0.272445,-0.238237
2026-01-04T15:34:27.994209,-9.700502,3.761517,-0.894915,0.194255,-0.279776,-0.243124
2026-01-04T15:34:28.004209,-9.633503,3.747160,-0.693918,0.196698,-0.353080,-0.235793
2026-01-04T15:34:28.013209,-9.418149,3.617947,-0.301495,0.169820,-0.415388,-0.251676
2026-01-04T15:34:28.023209,-9.288937,3.321237,-0.502492,0.123394,-0.423940,-0.260228
2026-01-04T15:34:28.033209,-8.973084,3.192025,-0.287138,0.112399,-0.448374,-0.331088
2026-01-04T15:34:28.042209,-8.705088,3.249453,-0.512064,0.112399,-0.455705,-0.359188
2026-01-04T15:34:28.052209,-8.604590,3.330809,-0.200997,0.087964,-0.394618,-0.400727
2026-01-04T15:34:28.061209,-8.886943,3.651447,-0.488135,0.162490,-0.255341,-0.425162
2026-01-04T15:34:28.071209,-9.346365,3.929014,-0.162711,0.215024,-0.150272,-0.425162
2026-01-04T15:34:28.081209,-9.714859,3.924229,-0.157926,0.162490,-0.183259,-0.438601
2026-01-04T15:34:28.090209,-9.796215,3.833301,-0.665204,0.134390,-0.244346,-0.420275
2026-01-04T15:34:28.100209,-9.738787,3.646661,-0.330209,-0.026878,-0.313984,-0.450818
2026-01-04T15:34:28.110209,-9.762716,2.938386,-0.095712,-0.177150,-0.335975,-0.485026
2026-01-04T15:34:28.119209,-9.815358,2.550748,-0.038285,-0.090408,-0.346971,-0.510683
2026-01-04T15:34:28.129209,-9.638289,2.512463,0.387637,0.000000,-0.439822,-0.527787
2026-01-04T15:34:28.138209,-9.466006,2.569891,0.200997,0.156381,-0.489913,-0.547335
2026-01-04T15:34:28.148209,-9.523433,2.928814,0.100498,0.307876,-0.382401,-0.560774
2026-01-04T15:34:28.158209,-9.628718,3.273381,0.287138,0.349414,-0.371405,-0.577878
2026-01-04T15:34:28.167209,-9.389435,3.388236,0.564706,0.305432,-0.504574,-0.549778
2026-01-04T15:34:28.177209,-9.059226,3.311666,0.583848,0.223576,-0.555887,-0.547335
2026-01-04T15:34:28.186209,-9.035298,3.019742,0.215354,0.128281,-0.494800,-0.554665
2026-01-04T15:34:28.196209,-9.322436,2.660818,0.167497,0.046425,-0.464257,-0.564439
2026-01-04T15:34:28.206209,-9.757930,2.354537,0.301495,0.080634,-0.450818,-0.581543
2026-01-04T15:34:28.215209,-9.992427,2.344966,-0.196211,0.216246,-0.527787,-0.579100
2026-01-04T15:34:28.225209,-9.676574,2.536391,-0.110069,0.288328,-0.719599,-0.616973
2026-01-04T15:34:28.235209,-9.135796,2.569891,1.076770,0.243124,-0.844215,-0.653625
2026-01-04T15:34:28.244209,-8.709874,2.689532,0.636490,0.254119,-0.763581,-0.689055
2026-01-04T15:34:28.254209,-8.810372,2.708675,0.430708,0.200363,-0.625525,-0.718377
2026-01-04T15:34:28.263209,-8.915657,2.507678,0.564706,0.092851,-0.623082,-0.723264
2026-01-04T15:34:28.273209,-8.997012,2.254038,0.167497,0.086742,-0.618195,-0.679282
2026-01-04T15:34:28.283209,-9.049655,1.871187,0.832702,0.050090,-0.576656,-0.684168
2026-01-04T15:34:28.292209,-8.958727,1.469193,0.631705,0.097738,-0.574213,-0.690277
2026-01-04T15:34:28.302209,-8.925228,1.665404,0.339780,0.260228,-0.570548,-0.711046
2026-01-04T15:34:28.311209,-8.958727,1.938186,0.545563,0.235793,-0.543669,-0.759916
2026-01-04T15:34:28.321209,-9.322436,2.143969,0.263210,0.223576,-0.449596,-0.806341
2026-01-04T15:34:28.331209,-9.552147,2.254038,0.387637,0.205250,-0.438601,-0.874758
2026-01-04T15:34:28.340209,-9.384650,2.014756,1.229910,0.021991,-0.582765,-0.893084
2026-01-04T15:34:28.350209,-8.925228,1.588834,0.875773,-0.026878,-0.664621,-0.891863
2026-01-04T15:34:28.360209,-8.494520,1.426122,1.550549,0.001221,-0.624304,-0.913854
2026-01-04T15:34:28.369209,-8.379664,1.282552,1.564905,-0.001221,-0.514348,-0.904080
2026-01-04T15:34:28.379209,-8.508877,1.244267,0.713061,0.070860,-0.394618,-0.875980
2026-01-04T15:34:28.388209,-8.891728,1.564905,0.315852,0.068416,-0.311541,-0.882089
2026-01-04T15:34:28.398209,-9.351150,1.631905,0.646062,0.053756,-0.256563,-0.932180
2026-01-04T15:34:28.408209,-9.719645,1.689332,0.947557,-0.001221,-0.255341,-0.957836
2026-01-04T15:34:28.417209,-10.073783,1.722832,0.440279,-0.146607,-0.312762,-1.014036
2026-01-04T15:34:28.427209,-10.274780,1.153340,1.201196,-0.255341,-0.367740,-1.051909
2026-01-04T15:34:28.436209,-9.791430,0.837487,2.474178,-0.167377,-0.544891,-1.056796
2026-01-04T15:34:28.446209,-9.245866,0.904486,1.794616,-0.048869,-0.643851,-0.941954
2026-01-04T15:34:28.456209,-9.001798,0.827916,1.483550,0.029321,-0.599869,-0.910189
2026-01-04T15:34:28.465209,-8.896514,0.961914,1.852044,0.116064,-0.574213,-0.906523
2026-01-04T15:34:28.475209,-8.733802,1.205982,2.201396,0.040317,-0.571769,-0.853989
2026-01-04T15:34:28.485209,-8.882157,1.153340,0.923629,-0.034208,-0.469144,-0.866206
2026-01-04T15:34:28.494209,-9.097511,0.713061,-0.114855,-0.228463,-0.461814,-0.869871
2026-01-04T15:34:28.504209,-9.198010,-0.330209,2.163111,-0.572991,-0.516791,-0.923628
2026-01-04T15:34:28.513209,-9.111868,-1.459621,2.249253,-0.355523,-0.497244,-0.981049
2026-01-04T15:34:28.523209,-9.073583,-0.914058,0.277567,0.068416,-0.537561,-0.966388
2026-01-04T15:34:28.533209,-8.561519,-0.713061,1.976471,0.120951,-0.646295,-1.016479
2026-01-04T15:34:28.542209,-7.599604,-0.492921,3.589233,0.276111,-0.729372,-0.998153
2026-01-04T15:34:28.552209,-7.140182,0.756131,2.163111,0.525343,-0.653625,-0.911410
2026-01-04T15:34:28.561209,-7.034898,1.722832,1.670190,0.398284,-0.467922,-0.839328
2026-01-04T15:34:28.571209,-7.403393,1.923829,2.924029,0.108733,-0.305432,-0.761137
2026-01-04T15:34:28.581209,-8.202595,1.670190,2.053041,-0.145385,-0.145385,-0.648738
2026-01-04T15:34:28.590209,-9.375078,0.445065,0.081355,-0.536339,-0.095294,-0.552222
2026-01-04T15:34:28.600209,-9.738787,-1.517049,1.411765,-0.630412,-0.223576,-0.614530
2026-01-04T15:34:28.610209,-9.188438,-2.129612,2.268395,-0.226020,-0.491135,-0.616973
2026-01-04T15:34:28.619209,-7.834101,-1.555334,1.670190,0.216246,-0.698829,-0.607199
2026-01-04T15:34:28.629209,-6.671189,-0.325423,1.043270,0.456927,-0.667064,-0.572991
2026-01-04T15:34:28.638209,-5.934200,1.301695,1.397408,0.447153,-0.482583,-0.515570
2026-01-04T15:34:28.648209,-6.039484,2.306680,2.139183,0.117286,-0.142942,-0.384845
2026-01-04T15:34:28.658209,-7.456035,2.579462,1.684547,-0.272445,0.306654,-0.234572
2026-01-04T15:34:28.667209,-9.470791,2.239681,1.483550,-0.575434,0.593760,-0.135612
2026-01-04T15:34:28.677209,-10.585847,0.832702,1.899901,-0.866206,0.437379,-0.040317
2026-01-04T15:34:28.686209,-10.011569,-0.923629,1.454836,-0.921184,-0.025656,0.074525
2026-01-04T15:34:28.696209,-8.379664,-1.842473,0.760917,-0.668286,-0.364075,0.172263
2026-01-04T15:34:28.706209,-6.723831,-1.631905,0.914058,-0.337197,-0.372627,0.238237
2026-01-04T15:34:28.715209,-5.828915,-0.918843,1.564905,-0.134390,-0.138055,0.323758
2026-01-04T15:34:28.725209,-5.852844,0.066999,2.282752,-0.125838,0.287106,0.430049
2026-01-04T15:34:28.735209,-7.298108,0.679561,2.158325,-0.207694,0.781907,0.499687
2026-01-04T15:34:28.744209,-9.489934,0.894915,1.703689,-0.332310,1.094670,0.548556
2026-01-04T15:34:28.754209,-11.643474,0.378065,1.024128,-0.449596,1.066570,0.564439
2026-01-04T15:34:28.763209,-12.165110,-0.516849,1.196411,-0.532674,0.618195,0.535117
2026-01-04T15:34:28.773209,-10.920842,-1.330409,0.665204,-0.414166,0.025656,0.483805
2026-01-04T15:34:28.783209,-8.733802,-1.268195,1.622333,-0.245567,-0.334754,0.450818
2026-01-04T15:34:28.792209,-6.991827,-0.856630,1.488335,-0.120951,-0.239459,0.432492
2026-01-04T15:34:28.802209,-6.412764,0.086141,1.000199,-0.039095,0.163711,0.455705
2026-01-04T15:34:28.811209,-6.910471,0.760917,1.325623,-0.169820,0.629191,0.491135
2026-01-04T15:34:28.821209,-8.006384,0.789631,2.134397,-0.400727,0.915075,0.561995
2026-01-04T15:34:28.831209,-9.164510,0.368494,3.005385,-0.568104,0.939510,0.662177
2026-01-04T15:34:28.840209,-10.212566,-0.124426,2.100898,-0.594982,0.835663,0.764803
2026-01-04T15:34:28.850209,-10.935199,-0.468993,1.100698,-0.438601,0.698829,0.784350
2026-01-04T15:34:28.860209,-11.064411,-0.488135,1.359123,-0.205250,0.531452,0.729372
2026-01-04T15:34:28.869209,-10.490134,-0.358923,1.124626,0.006108,0.265115,0.697607
2026-01-04T15:34:28.879209,-9.231509,-0.014356,0.617348,0.091629,-0.001221,0.702494
2026-01-04T15:34:28.888209,-7.824529,0.253639,0.521635,-0.026878,-0.074525,0.690277
2026-01-04T15:34:28.898209,-6.857829,0.167497,0.789631,-0.252898,0.101403,0.681725
2026-01-04T15:34:28.908209,-6.814758,0.090927,1.210768,-0.426383,0.463035,0.657290
2026-01-04T15:34:28.917209,-7.594818,-0.090927,1.560120,-0.509461,0.824667,0.632856
2026-01-04T15:34:28.927209,-9.073583,-0.167497,1.411765,-0.456927,1.082452,0.619417
2026-01-04T15:34:28.936209,-10.461420,-0.038285,1.320838,-0.299323,1.086118,0.604756
2026-01-04T15:34:28.946209,-11.212766,0.272781,1.383051,-0.120951,0.827111,0.620638
2026-01-04T15:34:28.956209,-10.968698,0.588634,0.880558,0.061086,0.476474,0.651182
2026-01-04T15:34:28.965209,-9.954142,1.134197,0.550349,0.122173,0.175929,0.660956
2026-01-04T15:34:28.975209,-8.604590,1.373480,0.512064,0.025656,0.053756,0.675616
2026-01-04T15:34:28.985209,-7.695317,1.507478,0.311066,-0.127059,0.169820,0.696386
2026-01-04T15:34:28.994209,-7.317251,1.607976,0.215354,-0.313984,0.441044,0.703716
2026-01-04T15:34:29.004209,-7.805387,1.469193,0.296710,-0.547335,0.764803,0.706160
2026-01-04T15:34:29.013209,-8.910871,0.847059,0.464207,-0.717155,1.010370,0.682947
2026-01-04T15:34:29.023209,-10.073783,0.248853,1.134197,-0.704938,1.050687,0.657290
2026-01-04T15:34:29.033209,-10.695917,-0.009571,1.555334,-0.516791,0.869871,0.654847
2026-01-04T15:34:29.042209,-10.600204,0.119641,0.966700,-0.246789,0.546113,0.696386
2026-01-04T15:34:29.052209,-9.676574,0.602991,0.579063,-0.032986,0.240680,0.720820
2026-01-04T15:34:29.061209,-8.470592,1.062413,0.555134,0.054977,0.120951,0.724486
2026-01-04T15:34:29.071209,-7.594818,1.612762,0.636490,0.037873,0.199142,0.728151
2026-01-04T15:34:29.081209,-7.216752,2.153540,0.229710,-0.089186,0.410501,0.748920
2026-01-04T15:34:29.090209,-7.470392,2.545963,-0.526420,-0.312762,0.679282,0.773355
2026-01-04T15:34:29.100209,-8.307880,2.794816,-1.335195,-0.557108,0.951727,0.780685
2026-01-04T15:34:29.110209,-9.671788,2.708675,-1.258624,-0.713490,1.183856,0.709825
2026-01-04T15:34:29.119209,-11.270194,2.091326,-0.665204,-0.810007,1.260825,0.635299
2026-01-04T15:34:29.129209,-12.217752,0.923629,0.287138,-0.893084,1.020144,0.612086
2026-01-04T15:34:29.138209,-11.983255,-0.272781,0.832702,-0.789237,0.532674,0.590095
2026-01-04T15:34:29.148209,-10.748559,-0.904486,0.746560,-0.433714,0.035430,0.580321
2026-01-04T15:34:29.158209,-8.973084,-0.507278,0.421136,-0.024434,-0.240680,0.588873
2026-01-04T15:34:29.167209,-7.575676,0.392422,0.143569,0.313984,-0.190589,0.580321
2026-01-04T15:34:29.177209,-6.876972,1.560120,-0.401994,0.520457,0.111177,0.582765
2026-01-04T15:34:29.186209,-7.278966,2.727817,-0.923629,0.547335,0.527787,0.576656
2026-01-04T15:34:29.196209,-8.547162,3.378665,-1.091127,0.444709,0.908967,0.544891
2026-01-04T15:34:29.206209,-10.040283,3.675375,-0.339780,0.222354,1.010370,0.533896
2026-01-04T15:34:29.215209,-10.954341,3.330809,-0.205782,-0.063529,0.796568,0.537561
2026-01-04T15:34:29.225209,-11.131410,2.670390,-0.157926,-0.289550,0.504574,0.548556
2026-01-04T15:34:29.235209,-10.399207,1.823330,-0.339780,-0.439822,0.230907,0.536339
2026-01-04T15:34:29.244209,-9.169296,1.196411,0.038285,-0.481361,-0.009773,0.516791
2026-01-04T15:34:29.254209,-8.044669,1.091127,0.009571,-0.383623,-0.054977,0.509461
2026-01-04T15:34:29.263209,-7.537391,1.349551,-0.890130,-0.223576,0.169820,0.533896
2026-01-04T15:34:29.273209,-7.862815,1.904686,-1.344766,-0.086742,0.507018,0.520457
2026-01-04T15:34:29.283209,-8.872586,2.359323,-1.086341,-0.013439,0.785572,0.508239
2026-01-04T15:34:29.292209,-10.073783,2.641676,-1.019342,0.039095,0.884532,0.515570
2026-01-04T15:34:29.302209,-10.949556,2.593819,-1.138983,0.095294,0.722042,0.504574
2026-01-04T15:34:29.311209,-10.939984,2.541177,-0.751346,0.036651,0.384845,0.492357
2026-01-04T15:34:29.321209,-10.250852,2.340180,-0.416351,-0.018325,0.096516,0.467922
2026-01-04T15:34:29.331209,-9.375078,2.488535,-0.148355,0.007330,-0.012217,0.444709
2026-01-04T15:34:29.340209,-8.532805,2.699103,-0.574277,-0.014660,0.023212,0.443488
2026-01-04T15:34:29.350209,-8.039883,2.746960,-0.847059,-0.085521,0.119729,0.442266
2026-01-04T15:34:29.360209,-7.925028,2.857030,-0.914058,-0.122173,0.277332,0.426383
2026-01-04T15:34:29.369209,-8.508877,2.962314,-1.024128,-0.135612,0.531452,0.426383
2026-01-04T15:34:29.379209,-9.509077,3.038884,-1.612762,-0.149051,0.740368,0.423940
2026-01-04T15:34:29.388209,-10.360921,3.067598,-1.919043,-0.097738,0.695164,0.376292
2026-01-04T15:34:29.398209,-10.719845,3.000599,-1.210768,-0.151494,0.448374,0.357966
2026-01-04T15:34:29.408209,-10.308279,2.421536,-0.507278,-0.244346,0.174707,0.356745
2026-01-04T15:34:29.417209,-9.585647,2.244467,-0.631705,-0.153938,0.001221,0.343306
2026-01-04T15:34:29.427209,-8.681160,2.608176,-0.847059,-0.059864,-0.001221,0.322536
2026-01-04T15:34:29.436209,-8.149953,2.756531,-1.306481,-0.057421,0.127059,0.309097
2026-01-04T15:34:29.446209,-8.183453,3.043670,-1.550549,-0.059864,0.291993,0.298102
2026-01-04T15:34:29.456209,-8.528019,3.244667,-1.335195,-0.097738,0.442266,0.278554
2026-01-04T15:34:29.465209,-9.245866,3.345165,-1.574477,-0.152716,0.563217,0.274889
2026-01-04T15:34:29.475209,-10.207781,3.235096,-1.928615,-0.119729,0.647517,0.266337
2026-01-04T15:34:29.485209,-10.930413,3.134597,-1.579262,-0.108733,0.560774,0.252898
2026-01-04T15:34:29.494209,-10.834700,2.799602,-1.110269,-0.081855,0.254119,0.249232
2026-01-04T15:34:29.504209,-9.968498,2.689532,-0.904486,0.008552,-0.053756,0.268780
2026-01-04T15:34:29.513209,-8.987441,2.967100,-1.028913,0.089186,-0.138055,0.260228
2026-01-04T15:34:29.523209,-8.379664,3.230310,-1.316052,0.098960,0.014660,0.240680
2026-01-04T15:34:29.533209,-8.355736,3.455235,-1.727617,0.041538,0.227241,0.216246
2026-01-04T15:34:29.542209,-8.815158,3.440878,-2.029113,-0.080634,0.377514,0.204028
2026-01-04T15:34:29.552209,-9.394221,3.306880,-1.507478,-0.177150,0.420275,0.166155
2026-01-04T15:34:29.561209,-9.906285,3.445664,-1.641476,-0.146607,0.371405,0.136833
2026-01-04T15:34:29.571209,-10.494919,3.436093,-2.383251,-0.091629,0.365297,0.151494
2026-01-04T15:34:29.581209,-10.734202,3.201596,-1.718046,-0.062308,0.261450,0.138055
2026-01-04T15:34:29.590209,-10.370493,3.062812,-0.861416,0.004886,-0.015882,0.125838
2026-01-04T15:34:29.600209,-9.466006,3.081955,-0.746560,0.065973,-0.215024,0.169820
2026-01-04T15:34:29.610209,-8.657232,3.129811,-1.765903,0.100181,-0.183259,0.188146
2026-01-04T15:34:29.619209,-8.422735,3.622733,-2.191825,0.128281,-0.002443,0.125838
2026-01-04T15:34:29.629209,-8.786444,3.852444,-1.694118,0.043982,0.212581,0.072082
2026-01-04T15:34:29.638209,-9.466006,3.785445,-1.311266,-0.105068,0.324980,0.069638
2026-01-04T15:34:29.648209,-10.212566,3.574876,-1.813759,-0.202807,0.300545,0.095294
2026-01-04T15:34:29.658209,-10.810772,3.574876,-2.239681,-0.103847,0.227241,0.083077
2026-01-04T15:34:29.667209,-11.217552,3.536591,-1.517049,-0.006108,0.054977,0.096516
2026-01-04T15:34:29.677209,-11.064411,3.091526,-0.454636,-0.025656,-0.205250,0.152716
2026-01-04T15:34:29.686209,-10.384850,2.679961,-1.048056,0.127059,-0.427605,0.228463
2026-01-04T15:34:29.696209,-9.533005,3.125026,-1.698904,0.362853,-0.519235,0.257785
2026-01-04T15:34:29.706209,-8.992227,3.694518,-1.842473,0.414166,-0.459370,0.250454
2026-01-04T15:34:29.715209,-8.824729,4.153940,-1.885544,0.359188,-0.337197,0.251676
2026-01-04T15:34:29.725209,-8.910871,4.498506,-1.818545,0.202807,-0.241902,0.234572
2026-01-04T15:34:29.735209,-9.279366,4.326223,-1.923829,-0.048869,-0.149051,0.228463
2026-01-04T15:34:29.744209,-9.820143,3.909872,-1.775474,-0.162490,-0.050090,0.210137
2026-01-04T15:34:29.754209,-10.159924,3.455235,-1.502692,-0.177150,-0.107512,0.183259
2026-01-04T15:34:29.763209,-10.145567,2.991028,-1.741974,-0.193033,-0.248011,0.190589
2026-01-04T15:34:29.773209,-9.891928,2.785245,-1.789831,-0.040317,-0.326201,0.152716
2026-01-04T15:34:29.783209,-9.614361,3.067598,-1.186840,0.128281,-0.345749,0.094073
2026-01-04T15:34:29.792209,-9.437292,3.273381,-1.392622,0.163711,-0.348193,0.081855
2026-01-04T15:34:29.802209,-9.231509,3.589233,-1.674975,0.174707,-0.329867,0.051312
2026-01-04T15:34:29.811209,-9.121439,3.766302,-1.861615,0.139277,-0.272445,0.004886
2026-01-04T15:34:29.821209,-9.159724,4.005585,-2.210968,0.046425,-0.216246,-0.004886
2026-01-04T15:34:29.831209,-9.365507,3.976871,-2.268395,-0.034208,-0.133168,-0.006108
2026-01-04T15:34:29.840209,-9.820143,3.847658,-1.263410,-0.056199,-0.074525,-0.026878
2026-01-04T15:34:29.850209,-9.982855,3.646661,-1.033699,-0.040317,-0.096516,-0.001221
2026-01-04T15:34:29.860209,-9.973284,3.460021,-1.775474,0.037873,-0.151494,0.057421
2026-01-04T15:34:29.869209,-9.915856,3.440878,-1.780260,0.107512,-0.210137,0.026878
2026-01-04T15:34:29.879209,-9.705288,3.330809,-1.378265,0.147829,-0.245567,-0.006108
2026-01-04T15:34:29.888209,-9.518648,3.550948,-1.402194,0.235793,-0.210137,-0.020769
2026-01-04T15:34:29.898209,-9.408578,3.933800,-1.808973,0.230907,-0.124616,-0.058643
2026-01-04T15:34:29.908209,-9.260223,4.110869,-2.191825,0.119729,-0.067195,-0.100181
2026-01-04T15:34:29.917209,-9.083154,4.120440,-2.115255,-0.036651,-0.034208,-0.157603
2026-01-04T15:34:29.927209,-9.011369,3.881158,-1.799402,-0.243124,0.073303,-0.217467
2026-01-04T15:34:29.936209,-9.183653,3.393022,-1.928615,-0.378736,0.232128,-0.257785
2026-01-04T15:34:29.946209,-9.494720,3.163311,-2.177468,-0.410501,0.343306,-0.289550
2026-01-04T15:34:29.956209,-9.824929,3.081955,-1.914258,-0.353080,0.373849,-0.294436
2026-01-04T15:34:29.965209,-10.078568,3.158525,-1.282552,-0.191811,0.356745,-0.262671
2026-01-04T15:34:29.975209,-10.097711,3.445664,-1.110269,-0.002443,0.285884,-0.194255
2026-01-04T15:34:29.985209,-10.212566,4.130011,-1.478764,0.155159,0.243124,-0.144164
2026-01-04T15:34:29.994209,-11.380264,5.130211,-3.158525,0.405614,0.500909,-0.162490
2026-01-04T15:34:30.004209,-14.366506,6.058626,-3.436093,0.364075,1.042135,-0.171042
2026-01-04T15:34:30.013209,-17.003397,5.106283,-0.861416,-0.002443,1.094670,-0.113620
2026-01-04T15:34:30.023209,-16.558332,4.039084,-0.899701,-0.138055,-0.023212,0.087964
2026-01-04T15:34:30.033209,-13.002598,3.656232,-0.062213,-0.030543,-1.185078,0.179594
2026-01-04T15:34:30.042209,-9.169296,3.211167,-2.641676,0.074525,-1.429424,0.368962
2026-01-04T15:34:30.052209,-7.073183,3.550948,-2.981456,0.331088,-1.175304,0.372627
2026-01-04T15:34:30.061209,-6.278766,3.809373,-0.320638,0.332310,-0.687834,0.216246
2026-01-04T15:34:30.071209,-6.833901,3.182454,-0.827916,0.169820,-0.119729,0.395840
2026-01-04T15:34:30.081209,-8.126025,3.699303,-2.134397,0.373849,0.003665,0.301767
2026-01-04T15:34:30.090209,-9.442077,4.369294,-1.751546,0.307876,0.147829,0.158824
2026-01-04T15:34:30.100209,-11.322836,4.144368,-2.277967,-0.008552,0.291993,0.215024
2026-01-04T15:34:30.110209,-12.313465,3.771088,-1.584048,-0.140498,0.039095,0.130725
2026-01-04T15:34:30.119209,-11.887542,3.407379,-0.277567,-0.153938,-0.456927,0.114842
2026-01-04T15:34:30.129209,-10.408778,2.880958,-1.473978,-0.045204,-0.747698,0.219911
2026-01-04T15:34:30.138209,-9.140582,2.933600,-3.139383,0.142942,-0.770911,0.266337
2026-01-04T15:34:30.148209,-8.719445,3.397808,-1.708475,0.287106,-0.518013,0.171042
2026-01-04T15:34:30.158209,-9.020941,3.684946,-1.004985,0.405614,-0.150272,0.175929
2026-01-04T15:34:30.167209,-9.676574,4.675575,-2.086541,0.498465,-0.113620,0.223576
2026-01-04T15:34:30.177209,-10.576275,5.283352,-1.856830,0.322536,-0.007330,0.161268
2026-01-04T15:34:30.186209,-11.633903,4.814359,-1.947757,0.037873,0.188146,0.221133
2026-01-04T15:34:30.196209,-11.844471,4.560719,-1.110269,0.014660,-0.117286,0.139277
2026-01-04T15:34:30.206209,-11.126625,4.101297,-2.321037,-0.124616,-0.340862,0.248011
2026-01-04T15:34:30.215209,-10.609775,3.646661,-1.818545,-0.065973,-0.368962,0.178372
2026-01-04T15:34:30.225209,-10.198209,3.718446,-1.488335,0.103847,-0.272445,0.125838
2026-01-04T15:34:30.235209,-10.217352,3.790230,-1.205982,0.120951,-0.218689,0.197920
2026-01-04T15:34:30.244209,-10.025926,3.584448,-0.454636,0.124616,-0.261450,0.157603
2026-01-04T15:34:30.254209,-9.939785,3.914657,-1.718046,0.298102,-0.211359,0.227241
2026-01-04T15:34:30.263209,-10.336993,4.297509,-2.340180,0.218689,-0.116064,0.222354
2026-01-04T15:34:30.273209,-10.676774,4.244867,-1.593619,0.124616,-0.169820,0.129503
2026-01-04T15:34:30.283209,-10.571490,4.173082,-0.449850,0.047647,-0.200363,0.145385
2026-01-04T15:34:30.292209,-10.169496,3.799802,-1.196411,0.001221,-0.259006,0.146607
2026-01-04T15:34:30.302209,-9.600004,3.622733,-1.301695,0.045204,-0.376292,0.114842
2026-01-04T15:34:30.311209,-9.135796,3.713660,-0.808774,0.076969,-0.409279,0.092851
2026-01-04T15:34:30.321209,-9.341579,3.823730,-0.894915,0.202807,-0.186924,0.083077
2026-01-04T15:34:30.331209,-10.140782,4.067798,-1.713260,0.305432,-0.008552,0.125838
2026-01-04T15:34:30.340209,-10.590632,4.082155,-1.359123,0.207694,-0.175929,0.130725
2026-01-04T15:34:30.350209,-10.274780,3.795016,-0.914058,0.196698,-0.400727,0.120951
2026-01-04T15:34:30.360209,-9.743573,3.866801,-0.885344,0.212581,-0.442266,0.118507
2026-01-04T15:34:30.369209,-9.370293,4.043870,-1.512263,0.150272,-0.414166,0.087964
2026-01-04T15:34:30.379209,-9.193224,4.072584,-0.880558,0.102625,-0.409279,0.020769
2026-01-04T15:34:30.388209,-9.183653,4.048655,-0.454636,0.034208,-0.345749,-0.018325
2026-01-04T15:34:30.398209,-9.470791,3.890729,-1.162911,0.035430,-0.218689,-0.024434
2026-01-04T15:34:30.408209,-10.064211,3.838087,-0.880558,0.087964,-0.196698,-0.031764
2026-01-04T15:34:30.417209,-10.169496,3.479164,-1.071984,0.059864,-0.368962,0.018325
2026-01-04T15:34:30.427209,-9.777073,3.282952,-1.397408,0.169820,-0.553443,0.029321
2026-01-04T15:34:30.436209,-9.351150,3.574876,-0.129212,0.327423,-0.575434,-0.019547
2026-01-04T15:34:30.446209,-8.987441,3.742374,-0.847059,0.351858,-0.504574,0.001221
2026-01-04T15:34:30.456209,-8.752945,3.991228,-1.205982,0.322536,-0.467922,-0.048869
2026-01-04T15:34:30.465209,-8.719445,4.072584,-1.009771,0.228463,-0.404392,-0.136833
2026-01-04T15:34:30.475209,-9.150153,4.053441,-1.057627,0.108733,-0.266337,-0.168598
2026-01-04T15:34:30.485209,-9.753144,3.780659,-0.330209,0.008552,-0.219911,-0.254119
2026-01-04T15:34:30.494209,-9.973284,3.450450,-0.564706,-0.026878,-0.301767,-0.263893
2026-01-04T15:34:30.504209,-9.868000,3.282952,-0.789631,0.012217,-0.420275,-0.263893
2026-01-04T15:34:30.513209,-9.657432,3.067598,-0.803988,0.069638,-0.503352,-0.271224
2026-01-04T15:34:30.523209,-9.427721,3.048455,-0.119641,0.273667,-0.543669,-0.289550
2026-01-04T15:34:30.533209,-9.288937,3.436093,0.320638,0.464257,-0.555887,-0.255341
2026-01-04T15:34:30.542209,-9.164510,3.929014,-0.124426,0.531452,-0.597426,-0.228463
2026-01-04T15:34:30.552209,-9.092725,4.292723,-0.526420,0.497244,-0.552222,-0.245567
2026-01-04T15:34:30.561209,-9.351150,4.216153,-0.368494,0.246789,-0.474031,-0.284663
2026-01-04T15:34:30.571209,-9.566504,3.570091,-0.502492,-0.039095,-0.444709,-0.342084
2026-01-04T15:34:30.581209,-9.638289,2.976671,-0.808774,-0.117286,-0.437379,-0.387288
2026-01-04T15:34:30.590209,-9.820143,2.541177,-0.373280,-0.090408,-0.482583,-0.443488
2026-01-04T15:34:30.600209,-9.714859,2.287538,-0.244067,0.039095,-0.554665,-0.469144
2026-01-04T15:34:30.610209,-9.537790,2.306680,-0.105284,0.246789,-0.581543,-0.487470
2026-01-04T15:34:30.619209,-9.317651,2.483749,-0.263210,0.367740,-0.625525,-0.486248
2026-01-04T15:34:30.629209,-9.135796,3.024527,0.291924,0.525343,-0.706160,-0.521678
2026-01-04T15:34:30.638209,-9.193224,3.637090,0.674775,0.530230,-0.629191,-0.496022
2026-01-04T15:34:30.648209,-9.241080,3.665804,-0.110069,0.411723,-0.566882,-0.485026
2026-01-04T15:34:30.658209,-9.260223,3.594019,-0.191425,0.296880,-0.625525,-0.518013
2026-01-04T15:34:30.667209,-9.078368,3.340380,0.344566,0.092851,-0.657290,-0.537561
2026-01-04T15:34:30.677209,-8.906085,2.809173,-0.129212,-0.012217,-0.654847,-0.575434
2026-01-04T15:34:30.686209,-9.025726,2.574677,-0.306281,-0.029321,-0.571769,-0.613308
2026-01-04T15:34:30.696209,-9.375078,2.292324,-0.009571,-0.036651,-0.492357,-0.675616
2026-01-04T15:34:30.706209,-9.614361,2.048256,0.698704,0.051312,-0.558330,-0.679282
2026-01-04T15:34:30.715209,-9.284151,2.124826,0.885344,0.180816,-0.758694,-0.654847
2026-01-04T15:34:30.725209,-8.676374,2.225325,0.588634,0.273667,-0.817337,-0.614530
2026-01-04T15:34:30.735209,-8.403592,2.335394,0.583848,0.316428,-0.679282,-0.631634
2026-01-04T15:34:30.744209,-8.580661,2.555534,0.535992,0.381179,-0.522900,-0.667064
2026-01-04T15:34:30.754209,-8.733802,2.804388,0.583848,0.288328,-0.509461,-0.667064
2026-01-04T15:34:30.763209,-8.815158,2.847458,-0.579063,0.140498,-0.502131,-0.686612
2026-01-04T15:34:30.773209,-9.288937,2.770888,-0.655633,0.000000,-0.375071,-0.756251
2026-01-04T15:34:30.783209,-9.614361,2.110469,0.856630,-0.259006,-0.371405,-0.842993
2026-01-04T15:34:30.792209,-9.528219,1.464407,0.660419,-0.215024,-0.510683,-0.874758
2026-01-04T15:34:30.802209,-9.293722,1.493121,0.894915,-0.061086,-0.574213,-0.875980
2026-01-04T15:34:30.811209,-9.059226,1.301695,1.598405,-0.030543,-0.588873,-0.905302
2026-01-04T15:34:30.821209,-8.575876,1.268195,2.105683,0.194255,-0.626747,-0.872315
2026-01-04T15:34:30.831209,-8.255237,1.923829,1.698904,0.375071,-0.668286,-0.819780
2026-01-04T15:34:30.840209,-8.216952,2.388036,0.492921,0.351858,-0.577878,-0.810007
2026-01-04T15:34:30.850209,-8.829515,2.723032,0.421136,0.207694,-0.361632,-0.868650
2026-01-04T15:34:30.860209,-9.729216,2.488535,0.000000,-0.032986,-0.243124,-0.959058
2026-01-04T15:34:30.869209,-9.896714,1.933400,0.133998,-0.335975,-0.411723,-1.001818
2026-01-04T15:34:30.879209,-9.604789,1.215553,0.583848,-0.478918,-0.563217,-1.036027
2026-01-04T15:34:30.888209,-9.298508,0.497707,1.564905,-0.438601,-0.547335,-1.055574
2026-01-04T15:34:30.898209,-9.288937,0.354137,1.373480,-0.217467,-0.488692,-1.048244
2026-01-04T15:34:30.908209,-9.724431,0.224925,2.871387,-0.030543,-0.448374,-1.031140
2026-01-04T15:34:30.917209,-9.738787,-0.181854,3.450450,0.129503,-0.596204,-0.993266
2026-01-04T15:34:30.927209,-9.327222,0.574277,1.708475,0.553443,-0.853989,-0.927293
2026-01-04T15:34:30.936209,-8.901300,1.933400,1.732403,0.718377,-0.890641,-0.895528
2026-01-04T15:34:30.946209,-8.858229,2.354537,1.531406,0.481361,-0.775798,-0.897971
2026-01-04T15:34:30.956209,-8.953942,2.325823,-0.727418,0.222354,-0.740368,-0.897971
2026-01-04T15:34:30.965209,-9.064012,2.000399,-0.468993,-0.340862,-0.709825,-0.937067
2026-01-04T15:34:30.975209,-9.092725,-0.066999,1.823330,-0.792902,-0.585208,-1.033583
2026-01-04T15:34:30.985209,-8.925228,-1.325623,2.397608,-0.529009,-0.581543,-1.058018
2026-01-04T15:34:30.994209,-8.585447,-1.445264,1.832902,-0.172263,-0.690277,-1.022588
2026-01-04T15:34:31.004209,-8.207381,-1.612762,2.053041,0.177150,-0.713490,-1.011592
2026-01-04T15:34:31.013209,-8.130811,-0.512064,1.727617,0.632856,-0.671951,-1.032362
2026-01-04T15:34:31.023209,-8.461020,1.071984,2.148754,0.712268,-0.566882,-1.056796
2026-01-04T15:34:31.033209,-8.896514,2.000399,2.033899,0.470366,-0.540004,-1.112996
2026-01-04T15:34:31.042209,-8.915657,2.641676,2.062613,0.134390,-0.631634,-1.133765
2026-01-04T15:34:31.052209,-8.145168,2.105683,2.053041,-0.430049,-0.781907,-1.120326
2026-01-04T15:34:31.061209,-7.063612,0.157926,2.158325,-0.922406,-0.834441,-1.053131
2026-01-04T15:34:31.071209,-6.149554,-1.560120,1.794616,-0.938288,-0.695164,-0.965166
2026-01-04T15:34:31.081209,-6.072983,-2.024327,1.335195,-0.532674,-0.377514,-0.842993
2026-01-04T15:34:31.090209,-6.719045,-1.378265,1.421336,-0.052534,-0.039095,-0.696386
2026-01-04T15:34:31.100209,-7.776673,-0.105284,1.751546,0.237015,0.166155,-0.543669
2026-01-04T15:34:31.110209,-8.695517,1.119840,2.344966,0.224798,0.147829,-0.400727
2026-01-04T15:34:31.119209,-8.925228,1.665404,2.172682,0.046425,0.015882,-0.252898
2026-01-04T15:34:31.129209,-8.590233,1.928615,1.440479,-0.147829,-0.101403,-0.122173
2026-01-04T15:34:31.138209,-8.011170,1.933400,1.028913,-0.444709,-0.144164,-0.017104
2026-01-04T15:34:31.148209,-7.527819,1.091127,1.110269,-0.828333,-0.069638,0.076969
2026-01-04T15:34:31.158209,-7.345965,-0.066999,1.105484,-1.016479,0.114842,0.140498
2026-01-04T15:34:31.167209,-7.580461,-1.000199,1.057627,-1.001818,0.304210,0.171042
2026-01-04T15:34:31.177209,-7.996813,-1.497906,1.823330,-0.906523,0.382401,0.183259
2026-01-04T15:34:31.186209,-8.336593,-1.718046,2.703889,-0.745255,0.357966,0.210137
2026-01-04T15:34:31.196209,-8.729016,-1.569691,3.024527,-0.542448,0.331088,0.246789
2026-01-04T15:34:31.206209,-9.059226,-1.167697,2.407179,-0.298102,0.291993,0.261450
2026-01-04T15:34:31.215209,-9.059226,-0.555134,2.187039,-0.095294,0.199142,0.293215
2026-01-04T15:34:31.225209,-8.781658,0.052642,2.024327,-0.042760,0.097738,0.379958
2026-01-04T15:34:31.235209,-8.475377,0.392422,1.292124,-0.041538,0.106290,0.492357
2026-01-04T15:34:31.244209,-8.145168,0.832702,0.981057,-0.053756,0.188146,0.605978
2026-01-04T15:34:31.254209,-7.905885,0.808774,1.052841,-0.182037,0.313984,0.735481
2026-01-04T15:34:31.263209,-7.762316,0.378065,0.823130,-0.367740,0.437379,0.861319
2026-01-04T15:34:31.273209,-7.968099,-0.258424,0.827916,-0.509461,0.576656,0.933401
2026-01-04T15:34:31.283209,-8.264809,-0.808774,1.641476,-0.552222,0.703716,0.902858
2026-01-04T15:34:31.292209,-8.815158,-1.048056,2.392822,-0.489913,0.755029,0.847880
2026-01-04T15:34:31.302209,-9.269794,-0.961914,2.244467,-0.360410,0.681725,0.795346
2026-01-04T15:34:31.311209,-9.384650,-0.593420,2.014756,-0.240680,0.520457,0.735481
2026-01-04T15:34:31.321209,-9.025726,-0.028713,1.871187,-0.191811,0.353080,0.682947
2026-01-04T15:34:31.331209,-8.417949,0.368494,1.593619,-0.224798,0.284663,0.670729
2026-01-04T15:34:31.340209,-8.111668,0.760917,1.354337,-0.270002,0.371405,0.691499
2026-01-04T15:34:31.350209,-8.470592,0.861416,0.971485,-0.351858,0.575434,0.750142
2026-01-04T15:34:31.360209,-9.030512,0.660419,0.923629,-0.432492,0.757472,0.797789
2026-01-04T15:34:31.369209,-9.676574,0.133998,1.115055,-0.450818,0.779463,0.846659
2026-01-04T15:34:31.379209,-9.939785,-0.531206,1.301695,-0.378736,0.626747,0.883310
2026-01-04T15:34:31.388209,-9.533005,-0.665204,1.631905,-0.210137,0.412944,0.896749
2026-01-04T15:34:31.398209,-8.791230,-0.258424,1.550549,0.010995,0.267558,0.901636
2026-01-04T15:34:31.408209,-7.915457,0.574277,1.296909,0.144164,0.226020,0.911410
2026-01-04T15:34:31.417209,-7.173682,1.196411,0.799202,0.107512,0.300545,0.944397
2026-01-04T15:34:31.427209,-7.001398,1.756331,0.646062,-0.065973,0.516791,0.983492
2026-01-04T15:34:31.436209,-7.484749,1.828116,1.019342,-0.288328,0.883310,0.972497
2026-01-04T15:34:31.446209,-8.729016,1.493121,0.732203,-0.459370,1.232725,0.915075
2026-01-04T15:34:31.456209,-10.097711,0.708275,0.894915,-0.623082,1.303586,0.838106
2026-01-04T15:34:31.465209,-11.054840,-0.119641,1.100698,-0.700051,1.114217,0.746477
2026-01-04T15:34:31.475209,-11.198409,-0.660419,0.287138,-0.516791,0.780685,0.674395
2026-01-04T15:34:31.485209,-10.351350,-0.406779,0.114855,-0.239459,0.379958,0.605978
2026-01-04T15:34:31.494209,-8.944370,0.287138,0.535992,-0.048869,0.123394,0.564439
2026-01-04T15:34:31.504209,-7.752745,1.048056,0.368494,0.102625,0.167377,0.557108
2026-01-04T15:34:31.513209,-7.087540,1.842473,0.291924,0.157603,0.397062,0.586430
2026-01-04T15:34:31.523209,-7.197610,2.450250,0.306281,0.026878,0.684168,0.656069
2026-01-04T15:34:31.533209,-7.776673,2.746960,0.153140,-0.162490,0.960279,0.737925
2026-01-04T15:34:31.542209,-8.939585,2.718246,-0.287138,-0.346971,1.182634,0.780685
2026-01-04T15:34:31.552209,-10.346564,2.234896,-0.306281,-0.524122,1.302364,0.770911
2026-01-04T15:34:31.561209,-11.365907,1.201196,0.004785,-0.629191,1.204625,0.700051
2026-01-04T15:34:31.571209,-11.528619,0.287138,0.602991,-0.590095,0.849102,0.623082
2026-01-04T15:34:31.581209,-10.868200,-0.095712,0.473778,-0.405614,0.471587,0.570548
2026-01-04T15:34:31.590209,-9.824929,0.033499,-0.133998,-0.134390,0.256563,0.531452
2026-01-04T15:34:31.600209,-8.494520,0.803988,-0.157926,0.118507,0.166155,0.482583
2026-01-04T15:34:31.610209,-7.479963,1.823330,0.220139,0.224798,0.201585,0.476474
2026-01-04T15:34:31.619209,-7.192824,2.675175,0.038285,0.175929,0.450818,0.530230
2026-01-04T15:34:31.629209,-7.767102,3.072384,-0.933200,0.054977,0.858876,0.568104
2026-01-04T15:34:31.638209,-9.040083,3.225524,-1.411765,-0.098960,1.191186,0.538783
2026-01-04T15:34:31.648209,-10.499705,2.756531,-0.837487,-0.329867,1.237612,0.511904
2026-01-04T15:34:31.658209,-11.337193,1.852044,-0.392422,-0.505796,0.988379,0.503352
2026-01-04T15:34:31.667209,-11.236694,1.119840,-0.339780,-0.533896,0.612086,0.482583
2026-01-04T15:34:31.677209,-10.552347,0.794417,-0.076570,-0.432492,0.320093,0.432492
2026-01-04T15:34:31.686209,-9.537790,0.794417,-0.133998,-0.226020,0.201585,0.401949
2026-01-04T15:34:31.696209,-8.709874,1.344766,-0.296710,0.014660,0.193033,0.405614
2026-01-04T15:34:31.706209,-8.102097,2.249253,-0.406779,0.149051,0.268780,0.415388
2026-01-04T15:34:31.715209,-8.130811,3.010170,-0.282353,0.136833,0.465479,0.450818
2026-01-04T15:34:31.725209,-8.949156,3.488735,-0.756131,0.068416,0.758694,0.459370
2026-01-04T15:34:31.735209,-10.140782,3.431307,-1.416550,-0.070860,0.930958,0.460592
2026-01-04T15:34:31.744209,-11.054840,2.852244,-0.933200,-0.285884,0.818559,0.450818
2026-01-04T15:34:31.754209,-11.389835,1.971685,-0.387637,-0.376292,0.513126,0.427605
2026-01-04T15:34:31.763209,-10.916056,1.646261,-0.679561,-0.266337,0.212581,0.431270
2026-01-04T15:34:31.773209,-9.906285,1.660618,-0.914058,-0.169820,-0.020769,0.427605
2026-01-04T15:34:31.783209,-8.848657,1.890329,-0.923629,-0.046425,-0.111177,0.420275
2026-01-04T15:34:31.792209,-8.346165,2.440679,-0.976271,0.114842,-0.009773,0.442266
2026-01-04T15:34:31.802209,-8.307880,2.871387,-0.985842,0.105068,0.191811,0.476474
2026-01-04T15:34:31.811209,-8.877371,3.000599,-1.225125,0.052534,0.393397,0.476474
2026-01-04T15:34:31.821209,-9.877571,3.101098,-1.497906,0.091629,0.533896,0.461814
2026-01-04T15:34:31.831209,-10.686345,2.967100,-1.019342,0.029321,0.464257,0.438601
2026-01-04T15:34:31.840209,-10.786844,2.656033,-0.818345,-0.089186,0.157603,0.420275
2026-01-04T15:34:31.850209,-10.322636,2.411965,-1.000199,-0.043982,-0.113620,0.397062
2026-01-04T15:34:31.860209,-9.738787,2.612962,-0.990628,0.008552,-0.158824,0.375071
2026-01-04T15:34:31.869209,-9.293722,2.718246,-1.354337,-0.015882,-0.113620,0.372627
2026-01-04T15:34:31.879209,-9.073583,2.842673,-1.450050,0.014660,-0.096516,0.377514
2026-01-04T15:34:31.888209,-8.853443,3.077169,-1.115055,0.021991,-0.073303,0.382401
2026-01-04T15:34:31.898209,-9.154939,3.306880,-1.545763,0.013439,0.014660,0.405614
2026-01-04T15:34:31.908209,-9.700502,3.306880,-1.383051,0.036651,0.150272,0.393397
2026-01-04T15:34:31.917209,-10.327422,3.139383,-1.292124,0.018325,0.190589,0.375071
2026-01-04T15:34:31.927209,-10.600204,2.842673,-1.569691,0.006108,0.042760,0.376292
2026-01-04T15:34:31.936209,-10.169496,2.737389,-1.205982,0.064751,-0.193033,0.327423
2026-01-04T15:34:31.946209,-9.336793,2.876172,-1.292124,0.102625,-0.328645,0.290771
2026-01-04T15:34:31.956209,-8.748159,3.062812,-1.646261,0.062308,-0.254119,0.285884
2026-01-04T15:34:31.965209,-8.618947,3.201596,-1.320838,0.006108,-0.043982,0.244346
2026-01-04T15:34:31.975209,-8.752945,3.330809,-1.249053,-0.050090,0.130725,0.228463
2026-01-04T15:34:31.985209,-9.250652,3.402593,-2.091326,-0.092851,0.224798,0.241902
2026-01-04T15:34:31.994209,-9.882357,3.397808,-1.818545,-0.095294,0.284663,0.197920
2026-01-04T15:34:32.004209,-10.408778,3.201596,-1.105484,-0.100181,0.246789,0.135612
2026-01-04T15:34:32.013209,-10.581061,2.981456,-1.167697,-0.092851,0.119729,0.139277
2026-01-04T15:34:32.023209,-10.432706,2.780459,-1.373480,-0.035430,0.000000,0.125838
2026-01-04T15:34:32.033209,-9.839286,2.861815,-1.153340,0.036651,-0.102625,0.080634
2026-01-04T15:34:32.042209,-9.250652,3.125026,-1.095912,0.109955,-0.141720,0.068416
2026-01-04T15:34:32.052209,-8.863014,3.512663,-1.660618,0.179594,-0.073303,0.061086
2026-01-04T15:34:32.061209,-8.896514,3.847658,-1.761117,0.116064,0.076969,0.039095
2026-01-04T15:34:32.071209,-9.217152,3.924229,-2.277967,-0.067195,0.215024,0.035430
2026-01-04T15:34:32.081209,-10.088140,3.818944,-2.244467,-0.141720,0.348193,0.002443
2026-01-04T15:34:32.090209,-10.906485,3.742374,-1.316052,-0.175929,0.334754,-0.046425
2026-01-04T15:34:32.100209,-11.078768,3.268595,-0.875773,-0.245567,0.094073,-0.012217
2026-01-04T15:34:32.110209,-10.633703,2.962314,-1.311266,-0.129503,-0.127059,0.017104
2026-01-04T15:34:32.119209,-10.135996,3.125026,-1.689332,0.078190,-0.177150,-0.001221
2026-01-04T15:34:32.129209,-9.738787,3.326023,-1.095912,0.092851,-0.174707,-0.014660
2026-01-04T15:34:32.138209,-9.494720,3.412165,-0.957129,0.142942,-0.157603,-0.021991
2026-01-04T15:34:32.148209,-9.489934,3.818944,-1.469193,0.166155,-0.070860,0.009773
2026-01-04T15:34:32.158209,-9.686145,3.866801,-1.885544,0.039095,0.042760,0.021991
2026-01-04T15:34:32.167209,-9.992427,3.684946,-1.866401,-0.073303,0.070860,-0.007330
2026-01-04T15:34:32.177209,-10.308279,3.555734,-1.445264,-0.151494,0.072082,-0.010995
2026-01-04T15:34:32.186209,-10.351350,3.235096,-1.301695,-0.191811,0.030543,-0.015882
2026-01-04T15:34:32.196209,-10.135996,3.086741,-1.430907,-0.138055,-0.075747,-0.012217
2026-01-04T15:34:32.206209,-9.858429,3.101098,-1.521835,-0.059864,-0.107512,-0.006108
2026-01-04T15:34:32.215209,-9.791430,3.282952,-1.574477,0.028099,-0.064751,-0.013439
2026-01-04T15:34:32.225209,-9.934999,3.617947,-1.191625,0.106290,-0.014660,-0.023212
2026-01-04T15:34:32.235209,-10.231709,3.790230,-1.009771,0.096516,-0.003665,-0.002443
2026-01-04T15:34:32.244209,-10.461420,3.818944,-1.593619,0.048869,-0.076969,0.012217
2026-01-04T15:34:32.254209,-10.571490,3.522234,-1.488335,-0.061086,-0.161268,0.017104
2026-01-04T15:34:32.263209,-10.509276,3.077169,-0.942772,-0.096516,-0.212581,-0.015882
2026-01-04T15:34:32.273209,-10.365707,2.904886,-1.138983,0.004886,-0.283441,0.004886
2026-01-04T15:34:32.283209,-10.231709,3.129811,-1.483550,0.128281,-0.362853,0.037873
2026-01-04T15:34:32.292209,-10.049854,3.144168,-1.124626,0.229685,-0.410501,0.042760
2026-01-04T15:34:32.302209,-9.901499,3.445664,-1.057627,0.315206,-0.427605,0.091629
2026-01-04T15:34:32.311209,-9.777073,3.919443,-1.617548,0.370184,-0.412944,0.105068
2026-01-04T15:34:32.321209,-9.724431,4.240081,-1.727617,0.300545,-0.359188,0.105068
2026-01-04T15:34:32.331209,-9.762716,4.340580,-1.737189,0.119729,-0.335975,0.087964
2026-01-04T15:34:32.340209,-9.777073,4.096512,-1.694118,-0.080634,-0.334754,0.072082
2026-01-04T15:34:32.350209,-9.767501,3.651447,-1.493121,-0.260228,-0.328645,0.051312
2026-01-04T15:34:32.360209,-9.638289,3.091526,-1.028913,-0.381179,-0.311541,0.010995
2026-01-04T15:34:32.369209,-9.499505,2.689532,-1.100698,-0.364075,-0.274889,-0.018325
2026-01-04T15:34:32.379209,-9.489934,2.579462,-1.469193,-0.200363,-0.186924,-0.004886
2026-01-04T15:34:32.388209,-9.676574,2.799602,-0.909272,-0.002443,-0.111177,0.001221
2026-01-04T15:34:32.398209,-9.815358,2.991028,-0.124426,0.171042,-0.095294,0.031764
2026-01-04T15:34:32.408209,-9.973284,3.144168,-0.803988,0.296880,-0.139277,0.091629
2026-01-04T15:34:32.417209,-9.891928,3.479164,-1.938186,0.393397,-0.184481,0.111177
2026-01-04T15:34:32.427209,-10.423135,4.230510,-3.005385,0.437379,-0.078190,0.075747
2026-01-04T15:34:32.436209,-11.452048,4.800002,-2.656033,0.367740,0.141720,0.010995
2026-01-04T15:34:32.446209,-12.404392,4.656432,-0.464207,0.119729,0.157603,-0.012217
2026-01-04T15:34:32.456209,-12.155538,3.900300,-1.287338,-0.075747,-0.136833,0.102625
2026-01-04T15:34:32.465209,-11.131410,3.584448,-1.904686,-0.003665,-0.467922,0.128281
2026-01-04T15:34:32.475209,-9.829715,2.909672,-0.401994,-0.020769,-0.538783,0.164933
2026-01-04T15:34:32.485209,-9.020941,2.550748,0.186640,0.109955,-0.530230,0.222354
2026-01-04T15:34:32.494209,-8.633303,2.579462,-1.727617,0.422718,-0.348193,0.307876
2026-01-04T15:34:32.504209,-8.906085,3.268595,-1.359123,0.569326,-0.307876,0.309097
2026-01-04T15:34:32.513209,-9.274580,3.929014,0.837487,0.555887,-0.226020,0.180816
2026-01-04T15:34:32.523209,-10.068997,4.833501,-0.468993,0.612086,-0.014660,0.248011
2026-01-04T15:34:32.533209,-11.026126,5.398207,-2.560320,0.344527,0.080634,0.276111
2026-01-04T15:34:32.542209,-11.389835,4.795216,-2.579462,-0.183259,-0.109955,0.233350
2026-01-04T15:34:32.552209,-11.198409,3.737588,0.507278,-0.307876,-0.367740,0.135612
2026-01-04T15:34:32.561209,-10.480562,3.086741,-0.449850,-0.195476,-0.434935,0.252898
2026-01-04T15:34:32.571209,-9.781858,2.900100,-2.737389,-0.048869,-0.510683,0.302989
2026-01-04T15:34:32.581209,-9.533005,3.144168,-1.564905,0.120951,-0.379958,0.218689
2026-01-04T15:34:32.590209,-10.279565,3.426521,-0.119641,0.289550,-0.048869,0.217467
2026-01-04T15:34:32.600209,-10.676774,3.972085,-0.942772,0.447153,-0.081855,0.254119
2026-01-04T15:34:32.610209,-10.786844,4.886143,-0.937986,0.431270,-0.244346,0.251676
2026-01-04T15:34:32.619209,-11.016555,4.905286,-1.359123,0.279776,-0.001221,0.262671
2026-01-04T15:34:32.629209,-11.069197,4.919643,-1.603191,0.163711,-0.149051,0.226020
2026-01-04T15:34:32.638209,-10.585847,4.560719,-0.784845,-0.097738,-0.339641,0.212581
2026-01-04T15:34:32.648209,-10.633703,3.751945,-1.167697,-0.140498,-0.106290,0.230907
2026-01-04T15:34:32.658209,-10.753344,3.416950,-1.205982,-0.063529,-0.063529,0.185702
2026-01-04T15:34:32.667209,-10.576275,3.287738,-0.885344,-0.026878,-0.238237,0.178372
2026-01-04T15:34:32.677209,-10.518848,3.431307,-1.435693,0.173485,-0.149051,0.199142
2026-01-04T15:34:32.686209,-10.652846,3.967299,-1.153340,0.255341,-0.095294,0.184481
2026-01-04T15:34:32.696209,-10.604989,4.197010,-0.344566,0.246789,-0.221133,0.138055
2026-01-04T15:34:32.706209,-10.408778,4.283152,-1.478764,0.208915,-0.182037,0.205250
2026-01-04T15:34:32.715209,-10.269994,4.086941,-0.918843,0.079412,-0.171042,0.112399
2026-01-04T15:34:32.725209,-9.738787,3.627519,0.397208,0.051312,-0.260228,0.035430
2026-01-04T15:34:32.735209,-9.422935,3.876372,-1.182054,0.145385,-0.200363,0.069638
2026-01-04T15:34:32.744209,-9.365507,3.962514,-2.196611,0.084299,-0.063529,0.028099
2026-01-04T15:34:32.754209,-9.657432,3.933800,0.119641,0.040317,-0.052534,-0.087964
2026-01-04T15:34:32.763209,-10.131210,4.053441,-0.751346,0.098960,0.068416,-0.030543
2026-01-04T15:34:32.773209,-10.528419,4.192225,-1.387837,0.103847,0.045204,-0.013439
2026-01-04T15:34:32.783209,-10.571490,3.924229,-0.071784,0.036651,-0.157603,-0.062308
2026-01-04T15:34:32.792209,-10.241280,3.637090,0.062213,0.076969,-0.238237,0.006108
2026-01-04T15:34:32.802209,-10.011569,3.617947,-0.492921,0.178372,-0.257785,-0.002443
2026-01-04T15:34:32.811209,-9.801001,3.646661,-1.100698,0.128281,-0.248011,-0.003665
2026-01-04T15:34:32.821209,-9.753144,3.603590,-0.703489,0.130725,-0.271224,-0.067195
2026-01-04T15:34:32.831209,-9.600004,3.780659,-0.636490,0.171042,-0.276111,-0.083077
2026-01-04T15:34:32.840209,-9.298508,3.905086,-0.866201,0.168598,-0.318871,-0.108733
2026-01-04T15:34:32.850209,-9.202795,4.039084,-0.617348,0.102625,-0.299323,-0.160046
2026-01-04T15:34:32.860209,-9.456434,4.086941,-0.287138,0.079412,-0.183259,-0.188146
2026-01-04T15:34:32.869209,-9.968498,4.010370,-0.535992,0.007330,-0.146607,-0.188146
2026-01-04T15:34:32.879209,-10.198209,3.584448,-0.665204,-0.034208,-0.224798,-0.196698
2026-01-04T15:34:32.888209,-9.982855,3.163311,-0.349352,-0.029321,-0.359188,-0.205250
2026-01-04T15:34:32.898209,-9.623932,2.928814,-1.000199,0.034208,-0.461814,-0.211359
2026-01-04T15:34:32.908209,-9.174081,2.928814,-0.449850,0.136833,-0.470366,-0.263893
2026-01-04T15:34:32.917209,-8.953942,3.005385,0.052642,0.174707,-0.444709,-0.294436
2026-01-04T15:34:32.927209,-8.910871,3.287738,-0.564706,0.261450,-0.384845,-0.302989
2026-01-04T15:34:32.936209,-9.140582,3.694518,-0.028713,0.311541,-0.335975,-0.323758
2026-01-04T15:34:32.946209,-9.164510,3.833301,0.808774,0.262671,-0.433714,-0.327423
2026-01-04T15:34:32.956209,-9.006584,4.015156,-0.057427,0.311541,-0.513126,-0.295658
2026-01-04T15:34:32.965209,-9.274580,4.278366,-0.545563,0.293215,-0.458148,-0.326201
2026-01-04T15:34:32.975209,-9.628718,4.005585,0.272781,0.062308,-0.447153,-0.360410
2026-01-04T15:34:32.985209,-9.571290,3.369094,0.244067,-0.085521,-0.546113,-0.327423
2026-01-04T15:34:32.994209,-9.236295,2.536391,-1.177268,-0.167377,-0.629191,-0.289550
2026-01-04T15:34:33.004209,-8.858229,1.957328,-0.263210,-0.184481,-0.660956,-0.390953
2026-01-04T15:34:33.013209,-8.767302,1.454836,0.885344,-0.106290,-0.587652,-0.428827
2026-01-04T15:34:33.023209,-8.920442,1.387837,0.392422,0.142942,-0.529009,-0.456927
2026-01-04T15:34:33.033209,-9.145367,1.986042,0.473778,0.387288,-0.551000,-0.510683
2026-01-04T15:34:33.042209,-9.442077,2.603390,0.033499,0.509461,-0.587652,-0.511904
2026-01-04T15:34:33.052209,-9.738787,3.125026,0.052642,0.532674,-0.603534,-0.554665
2026-01-04T15:34:33.061209,-9.729216,3.416950,-0.602991,0.459370,-0.669508,-0.580321
2026-01-04T15:34:33.071209,-9.226723,3.187239,-0.047856,0.287106,-0.747698,-0.652403
2026-01-04T15:34:33.081209,-8.609375,2.842673,-0.019142,0.188146,-0.780685,-0.692721
2026-01-04T15:34:33.090209,-8.135596,2.723032,0.081355,0.130725,-0.687834,-0.719599
2026-01-04T15:34:33.100209,-8.432306,2.545963,1.296909,0.037873,-0.532674,-0.740368
2026-01-04T15:34:33.110209,-9.140582,2.459821,0.885344,0.212581,-0.414166,-0.729372
2026-01-04T15:34:33.119209,-9.872786,2.502892,1.435693,0.149051,-0.452040,-0.679282
2026-01-04T15:34:33.129209,-9.939785,1.866401,0.421136,0.117286,-0.638964,-0.686612
2026-01-04T15:34:33.138209,-9.695717,1.919043,0.014356,0.267558,-0.693942,-0.692721
2026-01-04T15:34:33.148209,-9.470791,1.770688,0.598205,0.168598,-0.678060,-0.780685
2026-01-04T15:34:33.158209,-9.107082,1.627119,-0.191425,0.255341,-0.649960,-0.796568
2026-01-04T15:34:33.167209,-8.815158,2.076970,0.808774,0.317649,-0.654847,-0.851545
2026-01-04T15:34:33.177209,-8.791230,2.344966,0.942772,0.251676,-0.560774,-0.873537
2026-01-04T15:34:33.186209,-9.073583,2.522035,0.985842,0.265115,-0.393397,-0.867428
2026-01-04T15:34:33.196209,-9.528219,2.263610,1.746760,0.118507,-0.397062,-0.855211
2026-01-04T15:34:33.206209,-9.480363,1.914258,0.818345,0.114842,-0.516791,-0.803898
2026-01-04T15:34:33.215209,-9.585647,2.148754,0.751346,0.221133,-0.508239,-0.801455
2026-01-04T15:34:33.225209,-9.690931,1.919043,1.828116,0.065973,-0.496022,-0.827111
2026-01-04T15:34:33.235209,-9.528219,2.019542,-0.148355,0.191811,-0.552222,-0.839328
2026-01-04T15:34:33.244209,-9.418149,2.531606,-0.138783,0.150272,-0.583987,-0.871093
2026-01-04T15:34:33.254209,-8.992227,1.847259,1.617548,-0.254119,-0.642630,-0.972497
2026-01-04T15:34:33.263209,-8.786444,1.335195,1.316052,-0.250454,-0.553443,-1.000597
2026-01-04T15:34:33.273209,-9.064012,1.196411,1.569691,-0.305432,-0.427605,-1.059240
2026-01-04T15:34:33.283209,-9.236295,0.306281,2.062613,-0.452040,-0.474031,-1.092226
2026-01-04T15:34:33.292209,-9.355936,0.028713,2.397608,-0.211359,-0.546113,-1.061683
2026-01-04T15:34:33.302209,-9.260223,0.354137,2.550748,0.061086,-0.618195,-1.011592
2026-01-04T15:34:33.311209,-9.379864,1.134197,1.124626,0.284663,-0.675616,-0.972497
2026-01-04T15:34:33.321209,-9.930213,2.388036,0.593420,0.441044,-0.615752,-1.031140
2026-01-04T15:34:33.331209,-10.183852,2.713460,2.665604,0.074525,-0.689055,-1.137430
2026-01-04T15:34:33.340209,-9.623932,1.765903,2.167897,-0.342084,-0.972497,-1.187521
2026-01-04T15:34:33.350209,-8.532805,0.885344,1.229910,-0.637743,-1.137430,-1.262047
2026-01-04T15:34:33.360209,-7.527819,-0.756131,1.411765,-1.058018,-1.138652,-1.334129
2026-01-04T15:34:33.369209,-6.857829,-2.330609,1.062413,-1.056796,-0.992044,-1.374446
2026-01-04T15:34:33.379209,-6.599404,-2.622533,1.775474,-0.601091,-0.790459,-1.317025
2026-01-04T15:34:33.388209,-6.766902,-1.938186,2.675175,-0.156381,-0.587652,-1.187521
2026-01-04T15:34:33.398209,-7.274180,-0.894915,2.196611,0.311541,-0.447153,-1.029918
2026-01-04T15:34:33.408209,-7.312465,0.789631,2.215753,0.653625,-0.483805,-0.875980
2026-01-04T15:34:33.417209,-7.039684,2.383251,2.416750,0.601091,-0.536339,-0.703716
2026-01-04T15:34:33.427209,-6.575476,3.139383,1.847259,0.280997,-0.504574,-0.568104
2026-01-04T15:34:33.436209,-6.264409,3.273381,1.698904,-0.199142,-0.373849,-0.465479
2026-01-04T15:34:33.446209,-6.077769,2.292324,1.741974,-0.750142,-0.163711,-0.373849
2026-01-04T15:34:33.456209,-6.513263,1.138983,0.708275,-1.077566,0.087964,-0.285884
2026-01-04T15:34:33.465209,-7.408178,-0.019142,1.028913,-1.211956,0.305432,-0.233350
2026-01-04T15:34:33.475209,-8.513662,-1.287338,1.301695,-1.178969,0.421496,-0.188146
2026-01-04T15:34:33.485209,-9.332008,-1.981257,1.057627,-0.791681,0.375071,-0.144164
2026-01-04T15:34:33.494209,-9.614361,-1.737189,1.215553,-0.313984,0.155159,-0.111177
2026-01-04T15:34:33.504209,-9.073583,-1.067198,1.540977,0.040317,-0.125838,-0.045204
2026-01-04T15:34:33.513209,-7.896314,0.047856,1.387837,0.346971,-0.305432,0.036651
2026-01-04T15:34:33.523209,-6.733402,1.287338,1.344766,0.390953,-0.278554,0.139277
2026-01-04T15:34:33.533209,-5.929414,1.947757,2.033899,0.080634,-0.059864,0.290771
2026-01-04T15:34:33.542209,-5.876772,2.029113,2.230110,-0.290771,0.339641,0.460592
2026-01-04T15:34:33.552209,-6.556333,1.617548,2.163111,-0.594982,0.728151,0.612086
2026-01-04T15:34:33.561209,-7.341179,0.870987,1.837687,-0.864984,0.915075,0.788015
2026-01-04T15:34:33.571209,-7.948956,0.086141,1.694118,-1.020144,0.901636,0.967610
2026-01-04T15:34:33.581209,-8.193024,-0.363709,1.268195,-1.022588,0.852767,1.061683
2026-01-04T15:34:33.590209,-8.819944,-0.631705,0.612562,-0.962723,0.867428,1.083674
2026-01-04T15:34:33.600209,-9.824929,-0.933200,1.043270,-0.900415,0.939510,1.006705
2026-01-04T15:34:33.610209,-10.944770,-1.526620,1.813759,-0.750142,0.944397,0.857654
2026-01-04T15:34:33.619209,-11.633903,-1.507478,2.416750,-0.454483,0.764803,0.696386
2026-01-04T15:34:33.629209,-11.294122,-1.105484,2.301895,-0.152716,0.404392,0.561995
2026-01-04T15:34:33.638209,-9.877571,-0.421136,1.454836,0.045204,0.010995,0.489913
2026-01-04T15:34:33.648209,-8.312665,0.239282,0.626919,0.123394,-0.150272,0.460592
2026-01-04T15:34:33.658209,-7.231109,0.770488,0.540777,0.074525,0.004886,0.447153
2026-01-04T15:34:33.667209,-7.025327,0.818345,1.028913,-0.059864,0.338419,0.483805
2026-01-04T15:34:33.677209,-7.604390,0.540777,1.450050,-0.193033,0.645073,0.586430
2026-01-04T15:34:33.686209,-8.556733,0.105284,1.588834,-0.191811,0.781907,0.681725
2026-01-04T15:34:33.696209,-9.236295,0.038285,1.569691,-0.054977,0.730594,0.755029
2026-01-04T15:34:33.706209,-9.384650,0.440279,1.383051,0.102625,0.543669,0.823446
2026-01-04T15:34:33.715209,-8.958727,0.985842,1.119840,0.149051,0.340862,0.867428
2026-01-04T15:34:33.725209,-8.221738,1.493121,1.115055,0.035430,0.246789,0.890641
2026-01-04T15:34:33.735209,-7.532605,1.789831,1.000199,-0.157603,0.333532,0.902858
2026-01-04T15:34:33.744209,-7.484749,1.775474,0.564706,-0.359188,0.602312,0.885754
2026-01-04T15:34:33.754209,-8.212167,1.311266,0.138783,-0.586430,0.951727,0.842993
2026-01-04T15:34:33.763209,-9.303294,0.277567,0.430708,-0.747698,1.165530,0.777020
2026-01-04T15:34:33.773209,-10.298708,-0.617348,0.851844,-0.695164,1.134987,0.712268
2026-01-04T15:34:33.783209,-10.695917,-0.866201,0.545563,-0.443488,0.879645,0.689055
2026-01-04T15:34:33.792209,-10.222138,-0.507278,0.540777,-0.145385,0.540004,0.671951
2026-01-04T15:34:33.802209,-9.169296,0.210568,0.947557,0.089186,0.307876,0.651182
2026-01-04T15:34:33.811209,-8.054240,1.196411,0.952343,0.222354,0.259006,0.647517
2026-01-04T15:34:33.821209,-7.336394,2.019542,0.693918,0.147829,0.372627,0.678060
2026-01-04T15:34:33.831209,-7.326822,2.407179,0.406779,-0.079412,0.667064,0.673173
2026-01-04T15:34:33.840209,-8.240881,2.282752,0.172283,-0.307876,1.099557,0.647517
2026-01-04T15:34:33.850209,-9.676574,1.737189,0.162711,-0.475253,1.369559,0.593760
2026-01-04T15:34:33.860209,-10.762916,1.215553,0.291924,-0.533896,1.244943,0.570548
2026-01-04T15:34:33.869209,-10.906485,0.952343,0.282353,-0.485026,0.866206,0.601091
2026-01-04T15:34:33.879209,-10.131210,1.000199,0.038285,-0.375071,0.492357,0.621860
2026-01-04T15:34:33.888209,-8.901300,1.258624,0.062213,-0.263893,0.299323,0.638964
2026-01-04T15:34:33.898209,-7.968099,1.593619,0.287138,-0.221133,0.327423,0.652403
2026-01-04T15:34:33.908209,-7.575676,1.789831,0.406779,-0.249232,0.554665,0.631634
2026-01-04T15:34:33.917209,-7.843672,1.785045,-0.205782,-0.310319,0.889419,0.575434
2026-01-04T15:34:33.927209,-8.575876,1.517049,-0.942772,-0.432492,1.130100,0.510683
2026-01-04T15:34:33.936209,-9.379864,1.138983,-1.191625,-0.548556,1.182634,0.443488
2026-01-04T15:34:33.946209,-10.121639,0.952343,-0.540777,-0.522900,1.123991,0.392175
2026-01-04T15:34:33.956209,-10.303494,1.062413,-0.200997,-0.382401,0.951727,0.371405
2026-01-04T15:34:33.965209,-10.150353,1.440479,-0.287138,-0.234572,0.687834,0.389731
2026-01-04T15:34:33.975209,-9.643075,1.751546,-0.430708,-0.112399,0.508239,0.403170
2026-01-04T15:34:33.985209,-9.054440,1.986042,-0.339780,-0.039095,0.471587,0.393397
2026-01-04T15:34:33.994209,-8.700302,2.191825,-0.478564,-0.018325,0.503352,0.367740
2026-01-04T15:34:34.004209,-8.595018,2.478964,-0.741775,-0.073303,0.594982,0.349414
2026-01-04T15:34:34.013209,-9.025726,2.598605,-0.727418,-0.169820,0.746477,0.327423
2026-01-04T15:34:34.023209,-9.772287,2.708675,-0.464207,-0.195476,0.890641,0.311541
2026-01-04T15:34:34.033209,-10.437492,2.675175,-0.579063,-0.188146,0.899193,0.345749
2026-01-04T15:34:34.042209,-10.561918,2.641676,-0.957129,-0.206472,0.675616,0.399505
2026-01-04T15:34:34.052209,-10.116853,2.282752,-1.138983,-0.237015,0.370184,0.439822
2026-01-04T15:34:34.061209,-9.600004,2.033899,-1.215553,-0.219911,0.212581,0.465479
2026-01-04T15:34:34.071209,-9.274580,1.775474,-1.158126,-0.134390,0.222354,0.464257
2026-01-04T15:34:34.081209,-9.145367,1.670190,-0.521635,-0.015882,0.265115,0.444709
2026-01-04T15:34:34.090209,-9.040083,1.799402,0.043070,0.106290,0.284663,0.455705
2026-01-04T15:34:34.100209,-9.092725,2.234896,-0.492921,0.215024,0.296880,0.489913
2026-01-04T15:34:34.110209,-9.365507,2.880958,-1.215553,0.251676,0.332310,0.510683
2026-01-04T15:34:34.119209,-9.724431,3.096312,-1.292124,0.135612,0.381179,0.504574
2026-01-04T15:34:34.129209,-9.868000,3.038884,-1.507478,0.024434,0.334754,0.485026
2026-01-04T15:34:34.138209,-10.049854,2.995813,-2.000399,-0.062308,0.200363,0.469144
2026-01-04T15:34:34.148209,-10.298708,2.679961,-2.378465,-0.127059,0.142942,0.448374
2026-01-04T15:34:34.158209,-10.399207,2.057827,-1.296909,-0.124616,0.131946,0.400727
2026-01-04T15:34:34.167209,-10.107282,1.765903,-0.593420,0.018325,-0.026878,0.387288
2026-01-04T15:34:34.177209,-9.580861,1.938186,-0.669990,0.249232,-0.230907,0.458148
2026-01-04T15:34:34.186209,-8.939585,2.335394,-0.832702,0.354301,-0.273667,0.491135
2026-01-04T15:34:34.196209,-8.523234,2.785245,-1.440479,0.395840,-0.134390,0.485026
2026-01-04T15:34:34.206209,-8.738588,3.187239,-1.909472,0.346971,0.083077,0.497244
2026-01-04T15:34:34.215209,-9.308079,3.235096,-1.899901,0.139277,0.218689,0.465479
2026-01-04T15:34:34.225209,-9.676574,3.177668,-1.569691,0.019547,0.152716,0.404392
2026-01-04T15:34:34.235209,-9.858429,3.493520,-2.072184,0.072082,0.090408,0.373849
2026-01-04T15:34:34.244209,-10.006784,3.737588,-2.335394,-0.002443,0.112399,0.349414
2026-01-04T15:34:34.254209,-9.934999,3.211167,-1.957328,-0.216246,0.059864,0.310319
2026-01-04T15:34:34.263209,-9.719645,2.679961,-1.172483,-0.268780,-0.026878,0.296880
2026-01-04T15:34:34.273209,-9.466006,2.455035,-1.028913,-0.135612,-0.002443,0.296880
2026-01-04T15:34:34.283209,-9.284151,2.569891,-1.426122,-0.009773,0.057421,0.288328
2026-01-04T15:34:34.292209,-9.504291,2.675175,-1.670190,0.048869,0.122173,0.266337
2026-01-04T15:34:34.302209,-9.719645,2.732603,-1.435693,0.117286,0.210137,0.229685
2026-01-04T15:34:34.311209,-9.844072,3.034099,-1.325623,0.219911,0.173485,0.190589
2026-01-04T15:34:34.321209,-9.686145,3.531806,-1.962114,0.246789,0.039095,0.160046
2026-01-04T15:34:34.331209,-9.681360,3.909872,-2.531606,0.189368,0.062308,0.125838
2026-01-04T15:34:34.340209,-10.049854,4.010370,-2.096112,0.070860,0.201585,0.072082
2026-01-04T15:34:34.350209,-10.317851,3.732803,-1.622333,-0.117286,0.177150,0.036651
2026-01-04T15:34:34.360209,-10.389635,3.163311,-1.794616,-0.255341,0.068416,0.063529
2026-01-04T15:34:34.369209,-10.317851,2.603390,-1.737189,-0.213802,0.025656,0.036651
2026-01-04T15:34:34.379209,-9.973284,2.450250,-1.354337,-0.061086,-0.046425,-0.021991
2026-01-04T15:34:34.388209,-9.753144,2.545963,-1.325623,0.073303,-0.114842,-0.023212
2026-01-04T15:34:34.398209,-9.757930,2.727817,-1.306481,0.207694,-0.045204,-0.031764
2026-01-04T15:34:34.408209,-9.958927,3.206382,-1.703689,0.332310,0.062308,-0.036651
2026-01-04T15:34:34.417209,-10.131210,3.929014,-2.062613,0.327423,0.023212,-0.035430
2026-01-04T15:34:34.427209,-10.341779,4.345365,-2.426322,0.249232,-0.017104,-0.037873
2026-01-04T15:34:34.436209,-10.576275,4.407579,-2.062613,0.091629,-0.041538,-0.040317
2026-01-04T15:34:34.446209,-10.681560,4.019941,-1.670190,-0.142942,-0.102625,-0.031764
2026-01-04T15:34:34.456209,-10.662417,3.483949,-1.473978,-0.240680,-0.156381,-0.021991
2026-01-04T15:34:34.465209,-10.437492,3.024527,-1.330409,-0.217467,-0.233350,-0.012217
2026-01-04T15:34:34.475209,-9.987641,2.828316,-1.287338,-0.140498,-0.344527,-0.012217
2026-01-04T15:34:34.485209,-9.676574,3.014956,-1.593619,0.063529,-0.346971,-0.004886
2026-01-04T15:34:34.494209,-9.906285,3.527020,-1.588834,0.205250,-0.193033,0.024434
2026-01-04T15:34:34.504209,-10.432706,3.761517,-1.741974,0.190589,-0.065973,0.037873
2026-01-04T15:34:34.513209,-10.939984,3.795016,-2.043470,0.168598,-0.100181,0.054977
2026-01-04T15:34:34.523209,-11.073982,3.708875,-2.230110,0.135612,-0.243124,0.075747
2026-01-04T15:34:34.533209,-10.786844,3.646661,-2.416750,0.105068,-0.405614,0.083077
2026-01-04T15:34:34.542209,-11.160124,4.651647,-3.115455,0.323758,-0.343306,-0.024434
2026-01-04T15:34:34.552209,-14.534004,6.417550,-4.398007,0.477696,0.593760,-0.086742
2026-01-04T15:34:34.561209,-19.391434,5.838487,-3.641875,0.162490,1.805717,-0.048869
2026-01-04T15:34:34.571209,-18.673588,4.039084,-4.479363,-0.518013,0.307876,0.215024
2026-01-04T15:34:34.581209,-13.141381,2.876172,0.550349,-0.570548,-2.191784,0.090408
2026-01-04T15:34:34.590209,-7.566105,1.268195,-1.076770,-0.362853,-2.293187,0.450818
2026-01-04T15:34:34.600209,-4.948357,2.139183,-3.321237,0.293215,-1.524719,0.410501
2026-01-04T15:34:34.610209,-4.488935,4.584648,-2.407179,0.943175,-0.728151,-0.120951
2026-01-04T15:34:34.619209,-7.465606,3.967299,0.631705,0.597426,0.968832,0.205250
2026-01-04T15:34:34.629209,-11.298908,2.938386,-2.354537,0.208915,1.194852,0.340862
2026-01-04T15:34:34.638209,-12.878171,3.555734,-0.105284,0.466700,0.127059,0.062308
2026-01-04T15:34:34.648209,-12.624532,4.091726,0.966700,0.547335,-0.351858,0.304210
2026-01-04T15:34:34.658209,-11.016555,4.139583,-2.967100,0.312762,-0.621860,0.437379
2026-01-04T15:34:34.667209,-9.064012,4.034298,-4.445864,-0.007330,-1.003040,0.316428
2026-01-04T15:34:34.677209,-7.685746,3.986442,-0.325423,-0.130725,-0.970053,0.101403
2026-01-04T15:34:34.686209,-7.719245,3.134597,-0.507278,-0.320093,-0.196698,0.252898
2026-01-04T15:34:34.696209,-9.044869,3.034099,-2.751745,-0.152716,0.135612,0.210137
2026-01-04T15:34:34.706209,-10.480562,3.058027,-0.650847,-0.091629,0.219911,0.085521
2026-01-04T15:34:34.715209,-11.093125,2.756531,-0.961914,-0.048869,0.004886,0.280997
2026-01-04T15:34:34.725209,-10.566704,3.847658,-2.282752,0.382401,-0.488692,0.206472
2026-01-04T15:34:34.735209,-10.624132,4.881358,-1.627119,0.483805,-0.255341,0.212581
2026-01-04T15:34:34.744209,-11.485548,4.713860,-1.062413,0.216246,0.083077,0.232128
2026-01-04T15:34:34.754209,-11.265408,4.326223,-1.268195,0.073303,-0.277332,0.204028
2026-01-04T15:34:34.763209,-10.504491,4.101297,-1.081555,0.009773,-0.542448,0.301767
2026-01-04T15:34:34.773209,-9.872786,3.689732,-1.148554,-0.012217,-0.428827,0.238237
2026-01-04T15:34:34.783209,-9.719645,3.656232,-2.297109,0.045204,-0.289550,0.234572
2026-01-04T15:34:34.792209,-10.083354,3.804587,-1.387837,-0.019547,-0.239459,0.178372
2026-01-04T15:34:34.802209,-10.719845,3.421736,-0.062213,-0.079412,-0.045204,0.131946
2026-01-04T15:34:34.811209,-11.030912,3.182454,-2.143969,0.085521,-0.068416,0.272445
2026-01-04T15:34:34.821209,-10.557133,3.665804,-1.512263,0.144164,-0.499687,0.222354
2026-01-04T15:34:34.831209,-9.805787,3.359522,-0.234496,0.155159,-0.531452,0.228463
2026-01-04T15:34:34.840209,-9.561719,3.421736,-0.894915,0.295658,-0.366519,0.306654
2026-01-04T15:34:34.850209,-9.585647,4.053441,-1.545763,0.442266,-0.431270,0.168598
2026-01-04T15:34:34.860209,-9.844072,4.244867,-1.143769,0.200363,-0.248011,0.206472
2026-01-04T15:34:34.869209,-10.121639,3.818944,-0.952343,0.146607,-0.163711,0.178372
2026-01-04T15:34:34.879209,-9.647860,4.058227,-0.622133,0.217467,-0.442266,0.112399
2026-01-04T15:34:34.888209,-9.279366,4.000799,-0.823130,0.073303,-0.441044,0.131946
2026-01-04T15:34:34.898209,-9.279366,3.584448,-1.765903,0.061086,-0.161268,0.076969
2026-01-04T15:34:34.908209,-9.509077,3.885943,-1.445264,0.052534,-0.188146,0.029321
2026-01-04T15:34:34.917209,-9.585647,3.661018,-0.052642,-0.017104,-0.250454,-0.025656
2026-01-04T15:34:34.927209,-9.853643,3.421736,-0.129212,0.079412,-0.114842,0.007330
2026-01-04T15:34:34.936209,-10.001998,3.627519,-1.421336,0.169820,-0.161268,0.037873
2026-01-04T15:34:34.946209,-9.853643,3.684946,-0.770488,0.163711,-0.339641,0.000000
2026-01-04T15:34:34.956209,-9.676574,3.699303,0.019142,0.219911,-0.339641,-0.004886
2026-01-04T15:34:34.965209,-9.533005,3.895515,-1.550549,0.272445,-0.248011,0.013439
2026-01-04T15:34:34.975209,-9.480363,4.120440,-1.914258,0.226020,-0.276111,-0.052534
2026-01-04T15:34:34.985209,-9.169296,4.058227,-0.746560,0.034208,-0.302989,-0.111177
2026-01-04T15:34:34.994209,-8.939585,3.900300,-0.497707,0.006108,-0.255341,-0.141720
2026-01-04T15:34:35.004209,-8.858229,3.799802,-0.445065,-0.003665,-0.188146,-0.141720
