Timestamp,Acceleration_X,Acceleration_Y,Acceleration_Z,Gyro_X,Gyro_Y,Gyro_Z
2026-01-24T19:39:11.931544,9.705288,-2.124826,1.502692,-0.101403,0.035430,0.131946
2026-01-24T19:39:11.941544,9.729216,-2.120040,1.579262,-0.083077,0.122173,0.167377
2026-01-24T19:39:11.950544,9.719645,-2.024327,1.631905,-0.052534,0.219911,0.205250
2026-01-24T19:39:11.960544,9.561719,-1.828116,1.651047,-0.029321,0.310319,0.245567
2026-01-24T19:39:11.969544,9.375078,-1.698904,1.392622,-0.061086,0.392175,0.285884
2026-01-24T19:39:11.979544,9.116654,-1.636690,1.244267,-0.102625,0.453261,0.332310
2026-01-24T19:39:11.989544,8.829515,-1.627119,1.177268,-0.157603,0.467922,0.377514
2026-01-24T19:39:11.998544,8.767302,-1.718046,1.095912,-0.195476,0.455705,0.423940
2026-01-24T19:39:12.008544,8.843872,-1.741974,1.167697,-0.202807,0.427605,0.475253
2026-01-24T19:39:12.018544,9.016155,-1.741974,1.373480,-0.193033,0.412944,0.520457
2026-01-24T19:39:12.027544,9.303294,-1.856830,1.584048,-0.199142,0.426383,0.552222
2026-01-24T19:39:12.037544,9.303294,-1.957328,1.775474,-0.166155,0.463035,0.566882
2026-01-24T19:39:12.046544,9.308079,-1.966900,1.957328,-0.085521,0.489913,0.575434
2026-01-24T19:39:12.056544,9.279366,-1.808973,2.014756,-0.024434,0.508239,0.577878
2026-01-24T19:39:12.066544,9.284151,-1.861615,1.856830,-0.014660,0.516791,0.593760
2026-01-24T19:39:12.075544,9.317651,-2.024327,1.775474,0.007330,0.521678,0.615752
2026-01-24T19:39:12.085544,9.351150,-2.062613,1.526620,0.059864,0.529009,0.627969
2026-01-24T19:39:12.094544,9.375078,-1.995614,1.550549,0.065973,0.518013,0.659734
2026-01-24T19:39:12.104544,9.451649,-2.163111,1.698904,0.007330,0.498465,0.700051
2026-01-24T19:39:12.114544,9.647860,-2.378465,1.976471,-0.009773,0.497244,0.733038
2026-01-24T19:39:12.123544,9.772287,-2.440679,2.402393,0.024434,0.530230,0.752585
2026-01-24T19:39:12.133544,9.585647,-2.426322,2.694318,0.047647,0.605978,0.773355
2026-01-24T19:39:12.143544,9.236295,-2.565105,2.809173,0.040317,0.690277,0.786794
2026-01-24T19:39:12.152544,8.872586,-2.665604,2.885744,0.031764,0.737925,0.797789
2026-01-24T19:39:12.162544,8.575876,-2.885744,2.852244,0.021991,0.731816,0.807563
2026-01-24T19:39:12.171544,8.398807,-3.077169,2.732603,0.030543,0.693942,0.823446
2026-01-24T19:39:12.181544,8.341379,-3.282952,2.761317,0.050090,0.651182,0.839328
2026-01-24T19:39:12.191544,8.288737,-3.479164,2.852244,0.068416,0.620638,0.862541
2026-01-24T19:39:12.200544,8.255237,-3.756731,2.723032,0.116064,0.598647,0.889419
2026-01-24T19:39:12.210544,8.355736,-3.881158,2.723032,0.205250,0.585208,0.905302
2026-01-24T19:39:12.219544,8.365307,-3.943371,2.775674,0.302989,0.577878,0.916297
2026-01-24T19:39:12.229544,8.355736,-3.948157,2.732603,0.433714,0.581543,0.927293
2026-01-24T19:39:12.239544,8.504091,-3.852444,2.737389,0.559552,0.590095,0.930958
2026-01-24T19:39:12.248544,8.441878,-3.675375,2.651247,0.612086,0.616973,0.937067
2026-01-24T19:39:12.258544,8.403592,-3.651447,2.560320,0.619417,0.637743,0.938288
2026-01-24T19:39:12.268544,8.389236,-3.527020,2.589034,0.601091,0.638964,0.941954
2026-01-24T19:39:12.277544,8.183453,-3.512663,2.603390,0.555887,0.624304,0.963945
2026-01-24T19:39:12.287544,8.030312,-3.373879,2.699103,0.510683,0.591317,0.993266
2026-01-24T19:39:12.296544,7.925028,-3.196810,2.904886,0.447153,0.546113,1.023809
2026-01-24T19:39:12.306544,8.020741,-3.239881,2.976671,0.348193,0.509461,1.044579
2026-01-24T19:39:12.316544,8.111668,-3.330809,3.000599,0.226020,0.482583,1.075122
2026-01-24T19:39:12.325544,8.279166,-3.814159,2.818745,0.091629,0.485026,1.089783
2026-01-24T19:39:12.335544,8.312665,-4.388436,2.541177,0.052534,0.510683,1.093448
2026-01-24T19:39:12.344544,8.264809,-4.632504,2.574677,0.105068,0.530230,1.112996
2026-01-24T19:39:12.354544,8.350950,-4.833501,2.699103,0.169820,0.548556,1.137430
2026-01-24T19:39:12.364544,8.518448,-5.101497,2.857030,0.249232,0.570548,1.147204
2026-01-24T19:39:12.373544,8.800801,-5.316851,3.139383,0.334754,0.599869,1.170417
2026-01-24T19:39:12.383544,9.159724,-5.417350,3.469592,0.409279,0.631634,1.215621
2026-01-24T19:39:12.393544,9.451649,-5.493920,3.670589,0.443488,0.658512,1.263269
2026-01-24T19:39:12.402544,9.891928,-5.407779,4.072584,0.420275,0.693942,1.329242
2026-01-24T19:39:12.412544,10.423135,-5.479563,4.421936,0.287106,0.731816,1.440419
2026-01-24T19:39:12.421544,10.820343,-5.637490,4.689932,0.117286,0.795346,1.598023
2026-01-24T19:39:12.431544,10.868200,-5.852844,4.934000,-0.070860,0.877202,1.814269
2026-01-24T19:39:12.441544,10.877771,-6.393621,5.101497,-0.348193,0.902858,2.064724
2026-01-24T19:39:12.450544,11.327622,-7.456035,5.675775,-0.706160,0.871093,2.333504
2026-01-24T19:39:12.460544,11.868400,-8.839086,6.264409,-1.091005,0.803898,2.649932
2026-01-24T19:39:12.469544,12.342178,-10.202995,6.417550,-1.298699,0.779463,2.960252
2026-01-24T19:39:12.479544,13.615160,-11.949756,5.201996,-1.308473,0.894306,3.112968
2026-01-24T19:39:12.489544,13.892728,-13.160524,3.464807,-0.792902,1.270599,3.159394
2026-01-24T19:39:12.498544,12.734601,-12.648460,2.431107,0.205250,1.764178,3.178942
2026-01-24T19:39:12.508544,10.652846,-10.380064,1.785045,1.188743,2.219883,3.225367
2026-01-24T19:39:12.518544,8.422735,-7.508677,1.981257,1.513723,2.395812,3.356092
2026-01-24T19:39:12.527544,6.551548,-6.101697,1.698904,1.004262,2.188118,3.574782
2026-01-24T19:39:12.537544,5.972485,-6.288337,1.225125,0.487470,1.953546,3.734829
2026-01-24T19:39:12.546544,5.307280,-6.206981,1.942971,0.338419,1.843590,3.805689
2026-01-24T19:39:12.556544,4.670789,-6.082555,2.646461,0.091629,1.742187,3.882658
2026-01-24T19:39:12.566544,3.919443,-6.541976,2.947957,-0.124616,1.589471,3.870441
2026-01-24T19:39:12.575544,3.431307,-6.642475,3.637090,-0.073303,1.387885,3.687181
2026-01-24T19:39:12.585544,3.388236,-6.417550,4.187439,0.010995,1.185078,3.468492
2026-01-24T19:39:12.594544,3.541377,-6.144768,4.522434,0.019547,1.053131,3.247358
2026-01-24T19:39:12.604544,3.153740,-5.618347,4.957928,0.140498,0.971275,3.050660
2026-01-24T19:39:12.614544,2.861815,-4.733003,5.350351,0.150272,0.869871,2.932152
2026-01-24T19:39:12.623544,3.192025,-4.474578,5.436492,-0.204028,0.697607,2.869844
2026-01-24T19:39:12.633544,5.881557,-4.632504,5.326423,-0.450818,0.372627,2.861292
2026-01-24T19:39:12.643544,9.135796,-2.502892,8.341379,-0.613308,0.007330,2.549750
2026-01-24T19:39:12.652544,14.620146,-1.095912,13.122239,-0.885754,-0.283441,1.791056
2026-01-24T19:39:12.662544,16.548761,-1.464407,19.535004,-2.024406,0.078190,1.189965
2026-01-24T19:39:12.671544,14.797214,-5.398207,18.625731,-3.352427,0.748920,0.945619
2026-01-24T19:39:12.681544,10.313065,-9.231509,12.634103,-4.257729,1.473406,1.295034
2026-01-24T19:39:12.691544,4.086941,-12.524033,6.451049,-4.227186,2.366491,1.761734
2026-01-24T19:39:12.700544,-1.665404,-12.801600,2.904886,-3.083647,2.643824,1.372003
2026-01-24T19:39:12.710544,-3.948157,-12.279965,-0.559920,-2.299296,1.952324,0.786794
2026-01-24T19:39:12.719544,-3.646661,-13.950155,-4.053441,-2.048841,0.834441,0.452040
2026-01-24T19:39:12.729544,-2.072184,-15.878770,-4.981856,-1.508836,-0.196698,0.188146
2026-01-24T19:39:12.739544,0.416351,-16.218552,-3.225524,-0.571769,-0.890641,0.001221
2026-01-24T19:39:12.748544,2.665604,-14.998212,-0.679561,0.420275,-1.120326,-0.182037
2026-01-24T19:39:12.758544,4.268795,-12.854243,1.115055,1.271821,-0.802676,-0.587652
2026-01-24T19:39:12.768544,4.575076,-10.451849,2.426322,1.549153,-0.202807,-1.095892
2026-01-24T19:39:12.777544,3.795016,-9.470791,2.904886,1.150869,0.293215,-1.514945
2026-01-24T19:39:12.787544,2.153540,-9.518648,4.551148,0.538783,0.383623,-1.780060
2026-01-24T19:39:12.796544,1.497906,-10.662417,6.728617,-0.010995,0.032986,-1.753182
2026-01-24T19:39:12.806544,2.258824,-12.059825,7.996813,-0.234572,-0.428827,-1.512502
2026-01-24T19:39:12.816544,3.814159,-12.739387,7.700103,-0.031764,-0.651182,-1.361007
2026-01-24T19:39:12.825544,4.804787,-12.270394,6.915257,0.351858,-0.537561,-1.364672
2026-01-24T19:39:12.835544,4.326223,-10.820343,6.029912,0.707381,-0.288328,-1.478293
2026-01-24T19:39:12.844544,3.148954,-9.064012,4.914857,0.888197,-0.152716,-1.589471
2026-01-24T19:39:12.854544,2.033899,-7.719245,3.862015,0.781907,-0.218689,-1.642005
2026-01-24T19:39:12.864544,1.550549,-7.365107,3.316452,0.453261,-0.465479,-1.700648
2026-01-24T19:39:12.873544,1.947757,-8.236095,3.536591,-0.136833,-0.822224,-1.703091
2026-01-24T19:39:12.883544,3.215953,-10.810772,4.120440,-0.726929,-1.197295,-1.650557
2026-01-24T19:39:12.893544,4.938785,-14.179866,4.522434,-0.781907,-1.406211,-1.703091
2026-01-24T19:39:12.902544,6.412764,-16.194624,4.929214,-0.017104,-1.378111,-1.982868
2026-01-24T19:39:12.912544,7.417750,-16.577475,4.953142,1.134987,-1.153313,-2.320065
2026-01-24T19:39:12.921544,6.661618,-14.500504,4.991427,2.618167,-0.842993,-2.526538
2026-01-24T19:39:12.931544,5.546562,-9.217152,5.005784,3.809354,-0.810007,-2.673145
2026-01-24T19:39:12.941544,5.910271,-4.713860,4.048655,3.870441,-1.082452,-2.701245
2026-01-24T19:39:12.950544,6.608976,-2.598605,4.053441,3.138624,-1.296255,-2.673145
2026-01-24T19:39:12.960544,6.723831,-1.186840,5.393422,2.261422,-1.287703,-2.717128
2026-01-24T19:39:12.969544,6.393621,-0.890130,6.001199,1.180191,-1.270599,-2.787988
2026-01-24T19:39:12.979544,6.384050,-2.129612,6.264409,-0.163711,-1.422093,-2.718349
2026-01-24T19:39:12.989544,7.810172,-5.661418,6.685546,-1.576031,-1.748295,-2.493551
2026-01-24T19:39:12.998544,10.145567,-10.250852,7.168896,-2.377487,-1.982868,-2.356717
2026-01-24T19:39:13.008544,12.026326,-13.591232,6.589833,-2.010967,-1.876577,-2.463008
2026-01-24T19:39:13.018544,12.016755,-14.232508,4.981856,-0.774576,-1.523497,-2.641380
2026-01-24T19:39:13.027544,10.461420,-11.854043,3.948157,0.636521,-1.192408,-2.746449
2026-01-24T19:39:13.037544,9.049655,-8.599804,3.426521,1.494176,-1.188743,-2.718349
2026-01-24T19:39:13.046544,8.441878,-6.269195,3.306880,1.758069,-1.357342,-2.619389
2026-01-24T19:39:13.056544,8.303094,-4.445864,3.737588,1.698205,-1.508836,-2.541198
2026-01-24T19:39:13.066544,8.260023,-3.024527,3.952942,1.354898,-1.572366,-2.478890
2026-01-24T19:39:13.075544,8.274380,-2.244467,3.574876,0.807563,-1.601688,-2.431243
2026-01-24T19:39:13.085544,8.164310,-2.115255,3.464807,0.173485,-1.634675,-2.416582
2026-01-24T19:39:13.094544,8.303094,-2.565105,3.115455,-0.394618,-1.714087,-2.438573
2026-01-24T19:39:13.104544,8.494520,-3.474378,3.077169,-0.750142,-1.800830,-2.487442
2026-01-24T19:39:13.114544,8.752945,-3.905086,3.259024,-0.831998,-1.894903,-2.546085
2026-01-24T19:39:13.123544,9.442077,-3.976871,3.249453,-0.842993,-2.003637,-2.552194
2026-01-24T19:39:13.133544,10.298708,-3.914657,2.632104,-0.846659,-2.069610,-2.538755
2026-01-24T19:39:13.143544,10.748559,-3.708875,2.301895,-0.852767,-2.058615,-2.550972
2026-01-24T19:39:13.152544,11.006983,-3.469592,2.000399,-0.906523,-1.980424,-2.591289
2026-01-24T19:39:13.162544,10.729416,-3.239881,1.339980,-0.950506,-1.855808,-2.625498
2026-01-24T19:39:13.171544,10.341779,-3.139383,0.794417,-1.026253,-1.778839,-2.651154
2026-01-24T19:39:13.181544,10.140782,-3.536591,0.660419,-1.159421,-1.799608,-2.646267
2026-01-24T19:39:13.191544,10.327422,-4.120440,0.602991,-1.226617,-1.881464,-2.636493
2026-01-24T19:39:13.200544,10.758130,-4.541577,0.507278,-1.111774,-1.951103,-2.653598
2026-01-24T19:39:13.210544,11.294122,-4.484149,0.602991,-0.866206,-1.991420,-2.713462
2026-01-24T19:39:13.219544,11.777472,-3.948157,0.598205,-0.658512,-1.992641,-2.767218
2026-01-24T19:39:13.229544,11.954541,-3.369094,0.674775,-0.571769,-1.958433,-2.750114
2026-01-24T19:39:13.239544,12.141181,-3.053241,0.512064,-0.609643,-1.913229,-2.724458
2026-01-24T19:39:13.248544,12.418749,-2.971885,0.449850,-0.635299,-1.855808,-2.715906
2026-01-24T19:39:13.258544,12.552747,-2.866601,0.559920,-0.662177,-1.767843,-2.687806
2026-01-24T19:39:13.268544,12.447463,-2.991028,0.363709,-0.724486,-1.632231,-2.618167
2026-01-24T19:39:13.277544,12.098111,-3.134597,0.339780,-0.762359,-1.506393,-2.521651
2026-01-24T19:39:13.287544,11.830114,-3.383451,0.454636,-0.762359,-1.407433,-2.410473
2026-01-24T19:39:13.296544,11.337193,-3.546163,0.650847,-0.712268,-1.291368,-2.279748
2026-01-24T19:39:13.306544,10.949556,-3.732803,0.722632,-0.612086,-1.160643,-2.133140
2026-01-24T19:39:13.316544,10.260423,-3.627519,0.708275,-0.467922,-1.034805,-1.941329
2026-01-24T19:39:13.325544,9.571290,-3.326023,0.770488,-0.337197,-0.949284,-1.726304
2026-01-24T19:39:13.335544,9.116654,-2.785245,0.933200,-0.243124,-0.908967,-1.510058
2026-01-24T19:39:13.344544,8.834301,-2.038684,1.067198,-0.223576,-0.883310,-1.269377
2026-01-24T19:39:13.354544,9.006584,-1.813759,0.727418,-0.348193,-0.842993,-1.075122
2026-01-24T19:39:13.364544,9.442077,-2.249253,0.421136,-0.502131,-0.746477,-0.951727
2026-01-24T19:39:13.373544,9.504291,-2.900100,0.617348,-0.535117,-0.547335,-0.847880
2026-01-24T19:39:13.383544,8.293523,-2.703889,0.885344,-0.415388,-0.305432,-0.696386
2026-01-24T19:39:13.393544,7.389036,-1.971685,0.435493,-0.304210,-0.229685,-0.525343
2026-01-24T19:39:13.402544,7.058826,-1.320838,0.143569,-0.359188,-0.257785,-0.378736
2026-01-24T19:39:13.412544,7.168896,-1.000199,0.459421,-0.558330,-0.316428,-0.270002
2026-01-24T19:39:13.421544,7.599604,-1.397408,0.478564,-0.731816,-0.272445,-0.244346
2026-01-24T19:39:13.431544,7.532605,-1.727617,0.435493,-0.772133,-0.116064,-0.202807
2026-01-24T19:39:13.441544,7.034898,-1.775474,0.406779,-0.717155,0.018325,-0.152716
2026-01-24T19:39:13.450544,6.532405,-1.526620,0.569491,-0.676838,0.067195,-0.103847
2026-01-24T19:39:13.460544,6.374479,-1.196411,0.751346,-0.687834,0.063529,-0.036651
2026-01-24T19:39:13.469544,6.470192,-1.052841,0.961914,-0.753807,0.070860,0.023212
2026-01-24T19:39:13.479544,6.518048,-0.942772,0.981057,-0.846659,0.134390,0.089186
2026-01-24T19:39:13.489544,6.159125,-0.923629,0.923629,-0.961501,0.238237,0.163711
2026-01-24T19:39:13.498544,5.690132,-0.880558,0.641276,-1.067792,0.305432,0.221133
2026-01-24T19:39:13.508544,5.469992,-0.961914,0.478564,-1.198517,0.333532,0.249232
2026-01-24T19:39:13.518544,5.575276,-1.339980,0.440279,-1.314581,0.351858,0.259006
2026-01-24T19:39:13.527544,5.254638,-1.588834,0.650847,-1.331685,0.420275,0.270002
2026-01-24T19:39:13.537544,5.029713,-1.373480,0.722632,-1.288925,0.432492,0.304210
2026-01-24T19:39:13.546544,5.245067,-1.048056,0.622133,-1.279151,0.394618,0.345749
2026-01-24T19:39:13.556544,5.536991,-0.966700,0.669990,-1.367116,0.386066,0.355523
2026-01-24T19:39:13.566544,5.857629,-1.038485,0.894915,-1.459967,0.439822,0.343306
2026-01-24T19:39:13.575544,5.824130,-1.182054,0.976271,-1.525941,0.546113,0.332310
2026-01-24T19:39:13.585544,5.661418,-1.335195,0.765703,-1.551597,0.645073,0.334754
2026-01-24T19:39:13.594544,5.489135,-1.392622,0.483350,-1.583362,0.695164,0.332310
2026-01-24T19:39:13.604544,5.637490,-1.651047,0.114855,-1.639561,0.696386,0.321315
2026-01-24T19:39:13.614544,6.106483,-2.120040,-0.200997,-1.659109,0.656069,0.315206
2026-01-24T19:39:13.623544,6.738188,-2.273181,-0.531206,-1.589471,0.592539,0.323758
2026-01-24T19:39:13.633544,7.317251,-2.172682,-0.870987,-1.514945,0.518013,0.343306
2026-01-24T19:39:13.643544,7.881957,-2.158325,-1.110269,-1.486845,0.441044,0.340862
2026-01-24T19:39:13.652544,8.398807,-2.258824,-1.095912,-1.461189,0.378736,0.299323
2026-01-24T19:39:13.662544,8.949156,-2.344966,-0.775274,-1.382998,0.321315,0.261450
2026-01-24T19:39:13.671544,9.379864,-2.402393,-0.665204,-1.297477,0.294436,0.234572
2026-01-24T19:39:13.681544,9.485148,-2.507678,-0.674775,-1.209512,0.287106,0.196698
2026-01-24T19:39:13.691544,9.585647,-2.569891,-0.531206,-1.116661,0.254119,0.139277
2026-01-24T19:39:13.700544,9.738787,-2.847458,-0.224925,-0.998153,0.180816,0.090408
2026-01-24T19:39:13.710544,9.791430,-3.259024,0.066999,-0.842993,0.117286,0.045204
2026-01-24T19:39:13.719544,9.829715,-3.613162,0.492921,-0.579100,0.085521,-0.004886
2026-01-24T19:39:13.729544,9.542576,-3.632304,0.985842,-0.219911,0.059864,-0.029321
2026-01-24T19:39:13.739544,9.303294,-3.278166,1.368694,0.161268,0.030543,-0.015882
2026-01-24T19:39:13.748544,9.001798,-2.373680,1.588834,0.482583,-0.001221,0.029321
2026-01-24T19:39:13.758544,8.915657,-1.416550,1.598405,0.673173,-0.030543,0.098960
2026-01-24T19:39:13.768544,8.800801,-0.588634,1.545763,0.690277,-0.046425,0.169820
2026-01-24T19:39:13.777544,8.556733,-0.248853,1.493121,0.585208,-0.046425,0.235793
2026-01-24T19:39:13.787544,8.475377,-0.363709,1.344766,0.467922,-0.053756,0.287106
2026-01-24T19:39:13.796544,8.427521,-0.550349,1.201196,0.392175,-0.072082,0.312762
2026-01-24T19:39:13.806544,8.542376,-0.669990,1.172483,0.348193,-0.087964,0.316428
2026-01-24T19:39:13.816544,8.767302,-0.875773,1.105484,0.290771,-0.084299,0.324980
2026-01-24T19:39:13.825544,8.968299,-1.244267,0.933200,0.228463,-0.051312,0.331088
2026-01-24T19:39:13.835544,9.245866,-1.679761,0.746560,0.183259,-0.018325,0.334754
2026-01-24T19:39:13.844544,9.600004,-1.976471,0.497707,0.168598,-0.002443,0.344527
2026-01-24T19:39:13.854544,9.839286,-2.230110,0.205782,0.197920,0.018325,0.351858
2026-01-24T19:39:13.864544,9.801001,-2.254038,0.043070,0.276111,0.040317,0.343306
2026-01-24T19:39:13.873544,9.848857,-1.947757,0.110069,0.353080,0.043982,0.320093
2026-01-24T19:39:13.883544,9.911071,-1.780260,0.177068,0.371405,0.010995,0.304210
2026-01-24T19:39:13.893544,10.260423,-1.847259,0.282353,0.408057,-0.030543,0.282219
2026-01-24T19:39:13.902544,10.633703,-1.770688,0.492921,0.485026,-0.050090,0.260228
2026-01-24T19:39:13.912544,10.858628,-1.406979,0.559920,0.569326,-0.029321,0.243124
2026-01-24T19:39:13.921544,10.786844,-0.947557,0.516849,0.610865,0.003665,0.227241
2026-01-24T19:39:13.931544,10.480562,-0.717846,0.521635,0.593760,0.024434,0.213802
2026-01-24T19:39:13.941544,10.135996,-0.741775,0.646062,0.557108,0.009773,0.204028
2026-01-24T19:39:13.950544,9.901499,-0.928415,0.674775,0.553443,-0.031764,0.195476
2026-01-24T19:39:13.960544,9.705288,-1.129412,0.741775,0.596204,-0.076969,0.191811
2026-01-24T19:39:13.969544,9.595218,-1.172483,0.923629,0.679282,-0.111177,0.195476
2026-01-24T19:39:13.979544,9.442077,-1.148554,0.952343,0.768468,-0.139277,0.191811
2026-01-24T19:39:13.989544,9.394221,-1.043270,1.124626,0.814894,-0.161268,0.190589
2026-01-24T19:39:13.998544,9.485148,-1.110269,1.033699,0.856432,-0.177150,0.182037
2026-01-24T19:39:14.008544,9.686145,-1.115055,0.851844,0.946840,-0.173485,0.162490
2026-01-24T19:39:14.018544,9.556933,-0.880558,0.445065,1.017701,-0.147829,0.142942
2026-01-24T19:39:14.027544,9.312865,-0.598205,0.296710,1.021366,-0.125838,0.136833
2026-01-24T19:39:14.037544,8.920442,-0.535992,0.153140,0.967610,-0.123394,0.140498
2026-01-24T19:39:14.046544,8.595018,-0.655633,0.033499,0.890641,-0.136833,0.145385
2026-01-24T19:39:14.056544,8.221738,-0.942772,0.105284,0.831998,-0.167377,0.135612
2026-01-24T19:39:14.066544,8.149953,-1.134197,0.267996,0.839328,-0.230907,0.133168
2026-01-24T19:39:14.075544,8.513662,-1.162911,0.248853,0.890641,-0.284663,0.122173
2026-01-24T19:39:14.085544,8.614161,-1.071984,0.334995,0.929736,-0.291993,0.111177
2026-01-24T19:39:14.094544,8.638089,-1.081555,0.535992,0.934623,-0.260228,0.097738
2026-01-24T19:39:14.104544,8.331808,-1.052841,0.588634,0.935845,-0.217467,0.080634
2026-01-24T19:39:14.114544,7.992027,-1.134197,0.622133,0.954171,-0.185702,0.065973
2026-01-24T19:39:14.123544,7.652246,-1.153340,0.780060,0.989601,-0.161268,0.054977
2026-01-24T19:39:14.133544,7.274180,-1.115055,0.780060,1.033583,-0.150272,0.040317
2026-01-24T19:39:14.143544,7.092326,-1.000199,0.904486,1.083674,-0.149051,0.026878
2026-01-24T19:39:14.152544,7.168896,-0.894915,1.057627,1.095892,-0.156381,0.030543
2026-01-24T19:39:14.162544,7.298108,-0.976271,0.818345,1.094670,-0.131946,0.047647
2026-01-24T19:39:14.171544,7.092326,-0.784845,0.406779,1.126435,-0.064751,0.069638
2026-01-24T19:39:14.181544,6.575476,-0.512064,0.143569,1.100778,-0.018325,0.098960
2026-01-24T19:39:14.191544,6.312266,-0.684347,0.062213,0.970053,-0.008552,0.131946
2026-01-24T19:39:14.200544,5.833701,-1.292124,0.373280,0.875980,0.020769,0.177150
2026-01-24T19:39:14.210544,5.369493,-1.651047,0.564706,0.895528,0.051312,0.238237
2026-01-24T19:39:14.219544,4.962714,-1.722832,0.713061,0.970053,0.064751,0.318871
2026-01-24T19:39:14.229544,4.843072,-1.507478,0.981057,1.025031,0.050090,0.392175
2026-01-24T19:39:14.239544,4.991427,-1.387837,1.268195,1.053131,0.043982,0.453261
2026-01-24T19:39:14.248544,5.245067,-1.086341,1.536192,1.080009,0.056199,0.491135
2026-01-24T19:39:14.258544,5.886343,-0.751346,1.450050,1.048244,0.051312,0.508239
2026-01-24T19:39:14.268544,6.675975,-0.636490,1.210768,0.908967,0.056199,0.510683
2026-01-24T19:39:14.277544,7.202396,-0.765703,0.866201,0.753807,0.097738,0.492357
2026-01-24T19:39:14.287544,7.264609,-0.746560,0.416351,0.623082,0.151494,0.469144
2026-01-24T19:39:14.296544,7.015755,-0.799202,0.205782,0.426383,0.146607,0.458148
2026-01-24T19:39:14.306544,6.872186,-1.359123,0.244067,0.196698,0.103847,0.450818
2026-01-24T19:39:14.316544,6.709474,-2.086541,0.708275,0.070860,0.062308,0.439822
2026-01-24T19:39:14.325544,6.575476,-2.603390,1.134197,0.068416,0.053756,0.443488
2026-01-24T19:39:14.335544,6.479763,-2.928814,1.641476,0.124616,0.069638,0.489913
2026-01-24T19:39:14.344544,6.656832,-3.129811,1.928615,0.234572,0.101403,0.553443
2026-01-24T19:39:14.354544,6.915257,-2.904886,2.191825,0.409279,0.168598,0.616973
2026-01-24T19:39:14.364544,7.015755,-2.388036,2.230110,0.521678,0.284663,0.673173
2026-01-24T19:39:14.373544,7.130611,-2.201396,2.210968,0.476474,0.384845,0.766024
2026-01-24T19:39:14.383544,7.140182,-2.416750,1.976471,0.384845,0.466700,0.866206
2026-01-24T19:39:14.393544,7.250252,-2.756531,1.488335,0.350636,0.516791,0.944397
2026-01-24T19:39:14.402544,7.470392,-2.818745,1.344766,0.321315,0.500909,1.036027
2026-01-24T19:39:14.412544,7.676174,-3.062812,1.316052,0.208915,0.456927,1.148426
2026-01-24T19:39:14.421544,8.111668,-3.512663,1.268195,0.127059,0.420275,1.227838
2026-01-24T19:39:14.431544,8.729016,-3.785445,1.497906,0.145385,0.376292,1.268155
2026-01-24T19:39:14.441544,9.509077,-3.847658,1.765903,0.216246,0.343306,1.293812
2026-01-24T19:39:14.450544,10.188638,-3.737588,1.856830,0.290771,0.349414,1.335351
2026-01-24T19:39:14.460544,10.753344,-3.651447,1.732403,0.345749,0.401949,1.347568
2026-01-24T19:39:14.469544,10.959127,-3.431307,1.828116,0.447153,0.497244,1.326799
2026-01-24T19:39:14.479544,10.901699,-3.096312,1.765903,0.547335,0.624304,1.308473
2026-01-24T19:39:14.489544,10.518848,-3.029313,1.828116,0.609643,0.751364,1.308473
2026-01-24T19:39:14.498544,9.753144,-3.091526,2.163111,0.665842,0.825889,1.340238
2026-01-24T19:39:14.508544,9.260223,-3.086741,2.316252,0.711046,0.846659,1.408654
2026-01-24T19:39:14.518544,9.135796,-3.431307,2.455035,0.706160,0.831998,1.479515
2026-01-24T19:39:14.527544,9.590432,-4.120440,2.440679,0.723264,0.821002,1.519832
2026-01-24T19:39:14.537544,9.729216,-4.517649,2.684746,0.825889,0.857654,1.576031
2026-01-24T19:39:14.546544,9.748359,-4.675575,2.756531,0.926071,0.888197,1.687209
2026-01-24T19:39:14.556544,9.877571,-4.455435,2.574677,1.027475,0.900415,1.780060
2026-01-24T19:39:14.566544,10.049854,-3.708875,2.699103,1.076344,0.913854,1.868025
2026-01-24T19:39:14.575544,9.920642,-2.971885,2.809173,1.006705,0.959058,1.940107
2026-01-24T19:39:14.585544,9.920642,-2.416750,2.986242,0.808785,1.011592,1.965763
2026-01-24T19:39:14.594544,9.513862,-2.057827,3.637090,0.564439,1.028696,2.045176
2026-01-24T19:39:14.604544,9.389435,-1.856830,4.173082,0.197920,0.988379,2.174679
2026-01-24T19:39:14.614544,10.198209,-2.890529,4.149154,-0.298102,0.937067,2.258979
2026-01-24T19:39:14.623544,10.916056,-4.555934,4.091726,-0.671951,0.885754,2.327396
2026-01-24T19:39:14.633544,11.231909,-6.197410,4.364508,-0.846659,0.905302,2.373821
2026-01-24T19:39:14.643544,11.519047,-7.834101,4.316651,-0.878424,0.976162,2.404365
2026-01-24T19:39:14.652544,11.724830,-9.269794,4.230510,-0.745255,1.064127,2.441016
2026-01-24T19:39:14.662544,11.619546,-10.351350,4.106083,-0.404392,1.193630,2.450790
2026-01-24T19:39:14.671544,11.303693,-10.935199,4.048655,0.032986,1.340238,2.469116
2026-01-24T19:39:14.681544,11.011769,-10.858628,4.163511,0.448374,1.470963,2.538755
2026-01-24T19:39:14.691544,10.743773,-10.255637,4.417150,0.697607,1.560149,2.664593
2026-01-24T19:39:14.700544,10.604989,-9.623932,4.766502,0.735481,1.611462,2.822196
2026-01-24T19:39:14.710544,10.317851,-8.757730,4.785645,0.713490,1.705535,2.934595
2026-01-24T19:39:14.719544,9.801001,-8.183453,4.790430,0.514348,1.798386,3.046995
2026-01-24T19:39:14.729544,9.231509,-8.384450,5.082355,0.138055,1.826486,3.187494
2026-01-24T19:39:14.739544,8.647660,-9.298508,5.024927,-0.112399,1.803273,3.295006
2026-01-24T19:39:14.748544,8.082954,-9.987641,4.905286,-0.116064,1.776395,3.347540
2026-01-24T19:39:14.758544,7.685746,-10.504491,5.067998,-0.117286,1.704313,3.446500
2026-01-24T19:39:14.768544,7.738388,-11.399406,5.292923,-0.224798,1.601688,3.596773
2026-01-24T19:39:14.777544,7.939385,-12.543176,5.541777,-0.233350,1.532049,3.736051
2026-01-24T19:39:14.787544,7.872386,-13.050454,5.398207,0.081855,1.574810,3.792250
2026-01-24T19:39:14.796544,7.202396,-12.423534,4.914857,0.582765,1.698205,3.794694
2026-01-24T19:39:14.806544,5.828915,-10.576275,4.019941,1.103222,1.810604,3.738494
2026-01-24T19:39:14.816544,4.354937,-8.015955,3.479164,1.423315,1.808160,3.668855
2026-01-24T19:39:14.825544,3.287738,-6.139982,3.316452,1.237612,1.654222,3.651751
2026-01-24T19:39:14.835544,2.627319,-5.259424,2.900100,0.761137,1.458745,3.655416
2026-01-24T19:39:14.844544,2.024327,-5.460421,2.622533,0.249232,1.270599,3.626095
2026-01-24T19:39:14.854544,1.756331,-6.714260,2.450250,-0.267558,1.012814,3.622430
2026-01-24T19:39:14.864544,2.057827,-8.039883,1.847259,-0.373849,0.645073,3.547904
2026-01-24T19:39:14.873544,2.952743,-8.853443,2.244467,-0.140498,0.248011,3.326771
2026-01-24T19:39:14.883544,4.790430,-9.399007,3.598805,0.021991,-0.147829,3.110525
2026-01-24T19:39:14.893544,6.915257,-8.839086,5.838487,0.448374,-0.464257,2.811201
2026-01-24T19:39:14.902544,8.293523,-6.838686,9.489934,0.899193,-0.379958,2.432464
2026-01-24T19:39:14.912544,8.398807,-5.905486,12.150753,0.741590,-0.056199,1.944994
2026-01-24T19:39:14.921544,7.939385,-6.982256,12.562318,0.175929,0.255341,1.654222
2026-01-24T19:39:14.931544,5.948556,-8.599804,10.724630,-0.215024,0.514348,1.551597
2026-01-24T19:39:14.941544,3.670589,-10.097711,8.394021,-0.334754,0.570548,1.473406
2026-01-24T19:39:14.950544,2.258824,-10.269994,6.920042,-0.010995,0.455705,1.219286
2026-01-24T19:39:14.960544,1.450050,-8.508877,6.585047,0.499687,0.324980,0.790459
2026-01-24T19:39:14.969544,1.320838,-6.508477,6.470192,0.560774,0.268780,0.342084
2026-01-24T19:39:14.979544,1.100698,-6.096911,5.570491,0.065973,0.282219,-0.074525
2026-01-24T19:39:14.989544,1.028913,-6.833901,6.015556,-0.590095,0.296880,-0.404392
2026-01-24T19:39:14.998544,0.794417,-8.116454,6.886543,-1.132543,0.377514,-0.646295
2026-01-24T19:39:15.008544,0.703489,-9.600004,6.599404,-1.357342,0.367740,-0.910189
2026-01-24T19:39:15.018544,0.722632,-10.566704,5.536991,-1.325577,0.288328,-1.200960
2026-01-24T19:39:15.027544,0.813559,-11.514262,4.000799,-1.286481,0.161268,-1.397659
2026-01-24T19:39:15.037544,1.210768,-12.882956,3.718446,-1.112996,0.025656,-1.551597
2026-01-24T19:39:15.046544,2.043470,-13.974083,3.120240,-0.739146,-0.108733,-1.607796
2026-01-24T19:39:15.056544,2.158325,-13.442877,2.713460,-0.100181,-0.213802,-1.689652
2026-01-24T19:39:15.066544,1.249053,-10.805986,3.029313,0.485026,-0.361632,-1.859473
2026-01-24T19:39:15.075544,1.158126,-7.992027,4.532006,0.671951,-0.602312,-2.096489
2026-01-24T19:39:15.085544,1.234696,-4.972285,5.268995,0.453261,-0.762359,-2.309070
2026-01-24T19:39:15.094544,1.808973,-4.575076,6.455835,-0.616973,-0.894306,-2.296852
2026-01-24T19:39:15.104544,2.828316,-7.398607,6.374479,-1.571145,-0.959058,-2.392147
2026-01-24T19:39:15.114544,2.790031,-9.576076,6.350551,-1.673770,-0.891863,-2.624276
2026-01-24T19:39:15.123544,2.139183,-9.887142,4.876572,-1.423315,-0.937067,-2.802649
2026-01-24T19:39:15.133544,2.081755,-9.973284,3.957728,-1.329242,-1.136209,-2.926043
2026-01-24T19:39:15.143544,3.316452,-10.762916,4.321437,-1.424537,-1.382998,-3.026225
2026-01-24T19:39:15.152544,5.694917,-12.361321,5.867201,-1.808160,-1.659109,-2.955365
2026-01-24T19:39:15.162544,8.944370,-15.601203,6.666403,-2.602285,-1.813047,-2.580294
2026-01-24T19:39:15.171544,9.734002,-17.486748,4.967499,-2.422691,-1.516167,-2.467895
2026-01-24T19:39:15.181544,8.733802,-16.218552,4.666004,-1.813047,-1.091005,-2.384817
2026-01-24T19:39:15.191544,6.470192,-14.696716,4.235296,-1.527162,-0.821002,-2.331061
2026-01-24T19:39:15.200544,4.733003,-12.538390,1.512263,-1.098335,-0.864984,-2.414138
2026-01-24T19:39:15.210544,3.986442,-9.647860,0.512064,-0.929736,-1.163087,-2.450790
2026-01-24T19:39:15.219544,4.551148,-7.460820,1.344766,-1.130100,-1.582140,-2.546085
2026-01-24T19:39:15.229544,6.690331,-6.790830,3.431307,-1.440419,-1.902233,-2.658484
2026-01-24T19:39:15.239544,8.810372,-7.178467,5.647061,-1.600466,-1.809382,-2.763553
2026-01-24T19:39:15.248544,9.025726,-8.207381,5.982056,-1.380555,-1.347568,-2.933374
2026-01-24T19:39:15.258544,7.537391,-8.537591,4.374079,-0.808785,-0.888197,-3.198489
2026-01-24T19:39:15.268544,5.824130,-7.618747,2.847458,-0.243124,-0.744033,-3.468492
2026-01-24T19:39:15.277544,5.206781,-6.857829,2.072184,-0.074525,-0.907745,-3.617543
2026-01-24T19:39:15.287544,6.245266,-7.350751,2.297109,-0.356745,-1.260825,-3.617543
2026-01-24T19:39:15.296544,8.662017,-9.102297,2.703889,-0.712268,-1.511280,-3.514917
2026-01-24T19:39:15.306544,10.475777,-10.011569,2.282752,-0.709825,-1.463632,-3.429396
2026-01-24T19:39:15.316544,11.164910,-9.269794,2.210968,-0.487470,-1.254716,-3.462383
2026-01-24T19:39:15.325544,11.136196,-7.948956,2.234896,-0.437379,-1.078787,-3.437948
2026-01-24T19:39:15.335544,10.667203,-7.652246,1.603191,-0.635299,-0.951727,-3.368310
2026-01-24T19:39:15.344544,10.006784,-7.896314,1.239482,-0.779463,-0.949284,-3.343875
2026-01-24T19:39:15.354544,9.690931,-7.685746,1.177268,-0.668286,-1.060461,-3.356092
2026-01-24T19:39:15.364544,9.877571,-6.680760,1.210768,-0.507018,-1.182634,-3.371975
2026-01-24T19:39:15.373544,10.116853,-5.508277,1.229910,-0.498465,-1.226617,-3.396410
2026-01-24T19:39:15.383544,10.279565,-5.024927,0.933200,-0.601091,-1.221730,-3.424509
2026-01-24T19:39:15.393544,10.657631,-5.087140,0.507278,-0.794124,-1.262047,-3.418401
2026-01-24T19:39:15.402544,11.198409,-5.369493,0.502492,-0.921184,-1.309694,-3.393966
2026-01-24T19:39:15.412544,11.944970,-5.752345,0.598205,-0.968832,-1.346346,-3.357314
2026-01-24T19:39:15.421544,12.567104,-5.977270,0.981057,-0.983492,-1.329242,-3.281567
2026-01-24T19:39:15.431544,12.993026,-6.044269,1.349551,-0.966388,-1.247386,-3.220480
2026-01-24T19:39:15.441544,13.045668,-6.149554,1.215553,-0.915075,-1.070235,-3.183828
2026-01-24T19:39:15.450544,12.796815,-6.269195,0.607776,-0.885754,-0.918741,-3.128851
2026-01-24T19:39:15.460544,12.696316,-6.422335,0.459421,-0.778242,-0.896749,-3.084868
2026-01-24T19:39:15.469544,12.882956,-6.087340,0.526420,-0.551000,-0.906523,-3.040886
2026-01-24T19:39:15.479544,13.016954,-5.235495,0.602991,-0.321315,-0.864984,-2.981021
2026-01-24T19:39:15.489544,13.007383,-4.331008,0.607776,-0.179594,-0.764803,-2.930930
2026-01-24T19:39:15.498544,12.375678,-3.737588,0.416351,-0.228463,-0.648738,-2.835635
2026-01-24T19:39:15.508544,11.475977,-3.637090,0.191425,-0.408057,-0.547335,-2.670702
2026-01-24T19:39:15.518544,10.767701,-3.996013,-0.210568,-0.577878,-0.531452,-2.483777
2026-01-24T19:39:15.527544,10.303494,-4.455435,-0.124426,-0.662177,-0.566882,-2.274861
2026-01-24T19:39:15.537544,10.289137,-4.857429,-0.138783,-0.643851,-0.610865,-2.042732
2026-01-24T19:39:15.546544,10.394421,-5.134997,-0.330209,-0.558330,-0.602312,-1.802052
2026-01-24T19:39:15.556544,10.222138,-4.910071,-0.224925,-0.353080,-0.530230,-1.606575
2026-01-24T19:39:15.566544,9.729216,-3.589233,-0.267996,-0.079412,-0.448374,-1.452637
2026-01-24T19:39:15.575544,8.915657,-2.182254,-0.392422,0.072082,-0.365297,-1.358564
2026-01-24T19:39:15.585544,7.939385,-1.091127,-0.267996,0.041538,-0.321315,-1.265712
2026-01-24T19:39:15.594544,7.054041,-0.516849,0.215354,-0.087964,-0.317649,-1.198517
2026-01-24T19:39:15.604544,6.460621,-0.445065,0.626919,-0.245567,-0.288328,-1.119104
2026-01-24T19:39:15.614544,6.283552,-0.646062,0.445065,-0.388510,-0.243124,-1.045801
2026-01-24T19:39:15.623544,5.929414,-0.665204,0.516849,-0.463035,-0.190589,-0.952949
2026-01-24T19:39:15.633544,5.618347,-0.454636,0.373280,-0.524122,-0.149051,-0.853989
2026-01-24T19:39:15.643544,5.608776,-0.401994,0.038285,-0.671951,-0.133168,-0.739146
2026-01-24T19:39:15.652544,6.197410,-1.306481,-0.334995,-0.867428,-0.135612,-0.681725
2026-01-24T19:39:15.662544,6.202196,-1.804188,-0.177068,-0.872315,-0.069638,-0.601091
2026-01-24T19:39:15.671544,5.958128,-1.746760,-0.138783,-0.773355,-0.036651,-0.530230
2026-01-24T19:39:15.681544,5.699703,-1.526620,-0.277567,-0.657290,-0.012217,-0.449596
2026-01-24T19:39:15.691544,5.761916,-0.890130,0.148355,-0.620638,-0.052534,-0.397062
2026-01-24T19:39:15.700544,6.106483,-0.741775,0.775274,-0.726929,-0.031764,-0.360410
2026-01-24T19:39:15.710544,5.953342,-0.531206,0.847059,-0.816115,0.061086,-0.322536
2026-01-24T19:39:15.719544,6.384050,-1.167697,0.248853,-0.917519,0.166155,-0.272445
2026-01-24T19:39:15.729544,5.369493,-0.669990,0.775274,-0.893084,0.335975,-0.287106
2026-01-24T19:39:15.739544,5.067998,-0.909272,-0.086141,-0.998153,0.372627,-0.255341
2026-01-24T19:39:15.748544,4.981856,-1.445264,-0.531206,-1.062905,0.389731,-0.246789
2026-01-24T19:39:15.758544,4.733003,-1.871187,-0.397208,-1.017701,0.411723,-0.232128
2026-01-24T19:39:15.768544,4.378865,-1.770688,-0.574277,-0.857654,0.415388,-0.205250
2026-01-24T19:39:15.777544,4.039084,-1.454836,-0.770488,-0.746477,0.409279,-0.182037
2026-01-24T19:39:15.787544,3.871586,-1.406979,-0.617348,-0.706160,0.368962,-0.157603
2026-01-24T19:39:15.796544,4.158725,-1.411765,-0.449850,-0.664621,0.305432,-0.124616
2026-01-24T19:39:15.806544,4.886143,-1.268195,-0.263210,-0.638964,0.270002,-0.069638
2026-01-24T19:39:15.816544,5.350351,-1.100698,-0.177068,-0.656069,0.283441,-0.008552
2026-01-24T19:39:15.825544,5.627918,-0.765703,-0.148355,-0.690277,0.317649,0.053756
2026-01-24T19:39:15.835544,6.206981,-0.713061,-0.330209,-0.800233,0.323758,0.098960
2026-01-24T19:39:15.844544,6.608976,-0.942772,-0.277567,-0.928514,0.353080,0.140498
2026-01-24T19:39:15.854544,6.886543,-0.990628,-0.143569,-0.995710,0.376292,0.175929
2026-01-24T19:39:15.864544,7.216752,-1.086341,-0.358923,-1.031140,0.389731,0.210137
2026-01-24T19:39:15.873544,7.451249,-0.928415,-0.756131,-1.066570,0.415388,0.233350
2026-01-24T19:39:15.883544,7.546962,-0.856630,-0.985842,-1.109331,0.408057,0.239459
2026-01-24T19:39:15.893544,7.972884,-0.961914,-1.062413,-1.170417,0.344527,0.251676
2026-01-24T19:39:15.902544,8.575876,-1.105484,-1.277767,-1.188743,0.274889,0.255341
2026-01-24T19:39:15.912544,9.255437,-1.105484,-1.359123,-1.155756,0.237015,0.249232
2026-01-24T19:39:15.921544,9.662217,-1.138983,-1.584048,-1.125213,0.206472,0.244346
2026-01-24T19:39:15.931544,9.925428,-1.177268,-1.813759,-1.094670,0.160046,0.235793
2026-01-24T19:39:15.941544,10.236495,-1.186840,-1.875972,-1.051909,0.080634,0.211359
2026-01-24T19:39:15.950544,10.662417,-1.325623,-1.703689,-1.023809,-0.013439,0.182037
2026-01-24T19:39:15.960544,11.073982,-1.521835,-1.459621,-0.971275,-0.085521,0.142942
2026-01-24T19:39:15.969544,11.284551,-1.631905,-1.000199,-0.857654,-0.116064,0.095294
2026-01-24T19:39:15.979544,11.112268,-1.952543,-0.502492,-0.739146,-0.095294,0.041538
2026-01-24T19:39:15.989544,10.322636,-2.196611,-0.019142,-0.559552,-0.062308,-0.012217
2026-01-24T19:39:15.998544,9.480363,-2.273181,0.368494,-0.317649,-0.087964,-0.052534
2026-01-24T19:39:16.008544,8.786444,-2.201396,0.626919,-0.057421,-0.142942,-0.068416
2026-01-24T19:39:16.018544,8.317451,-1.914258,0.918843,0.207694,-0.201585,-0.058643
2026-01-24T19:39:16.027544,8.020741,-1.196411,1.229910,0.447153,-0.251676,-0.035430
2026-01-24T19:39:16.037544,8.030312,-0.378065,1.344766,0.553443,-0.290771,0.006108
2026-01-24T19:39:16.046544,8.121239,0.138783,1.426122,0.499687,-0.315206,0.053756
2026-01-24T19:39:16.056544,8.374879,0.244067,1.493121,0.373849,-0.327423,0.094073
2026-01-24T19:39:16.066544,8.690731,0.124426,1.454836,0.239459,-0.317649,0.127059
2026-01-24T19:39:16.075544,8.891728,-0.086141,1.339980,0.118507,-0.283441,0.146607
2026-01-24T19:39:16.085544,9.087940,-0.445065,1.124626,0.046425,-0.237015,0.149051
2026-01-24T19:39:16.094544,9.413364,-0.794417,0.770488,0.009773,-0.206472,0.151494
2026-01-24T19:39:16.104544,9.834500,-1.249053,0.330209,0.014660,-0.195476,0.150272
2026-01-24T19:39:16.114544,10.250852,-1.555334,0.033499,0.074525,-0.173485,0.145385
2026-01-24T19:39:16.123544,10.466206,-1.536192,-0.287138,0.184481,-0.140498,0.141720
2026-01-24T19:39:16.133544,10.418349,-1.253839,-0.406779,0.311541,-0.129503,0.139277
2026-01-24T19:39:16.143544,10.442277,-0.880558,-0.330209,0.403170,-0.147829,0.139277
2026-01-24T19:39:16.152544,10.595418,-0.526420,-0.196211,0.433714,-0.169820,0.144164
2026-01-24T19:39:16.162544,10.691131,-0.464207,0.052642,0.454483,-0.183259,0.146607
2026-01-24T19:39:16.171544,10.896914,-0.330209,0.172283,0.480139,-0.177150,0.145385
2026-01-24T19:39:16.181544,10.911271,-0.224925,0.267996,0.527787,-0.156381,0.129503
2026-01-24T19:39:16.191544,10.614561,-0.148355,0.320638,0.547335,-0.140498,0.120951
2026-01-24T19:39:16.200544,10.514062,-0.253639,0.315852,0.549778,-0.136833,0.113620
2026-01-24T19:39:16.210544,10.179067,-0.401994,0.354137,0.570548,-0.131946,0.116064
2026-01-24T19:39:16.219544,9.738787,-0.440279,0.311066,0.613308,-0.125838,0.118507
2026-01-24T19:39:16.229544,9.384650,-0.382851,0.129212,0.651182,-0.146607,0.114842
2026-01-24T19:39:16.239544,9.207581,-0.488135,0.047856,0.657290,-0.179594,0.116064
2026-01-24T19:39:16.248544,9.016155,-0.588634,0.019142,0.685390,-0.205250,0.100181
2026-01-24T19:39:16.258544,9.001798,-0.612562,-0.076570,0.742811,-0.229685,0.080634
2026-01-24T19:39:16.268544,9.078368,-0.626919,-0.191425,0.808785,-0.248011,0.061086
2026-01-24T19:39:16.277544,9.097511,-0.602991,-0.172283,0.884532,-0.249232,0.029321
2026-01-24T19:39:16.287544,9.064012,-0.535992,-0.435493,0.963945,-0.233350,0.000000
2026-01-24T19:39:16.296544,8.944370,-0.354137,-0.488135,1.018923,-0.221133,-0.031764
2026-01-24T19:39:16.306544,8.681160,-0.306281,-0.555134,1.036027,-0.227241,-0.052534
2026-01-24T19:39:16.316544,8.475377,-0.483350,-0.583848,1.040914,-0.240680,-0.079412
2026-01-24T19:39:16.325544,8.283951,-0.535992,-0.445065,1.053131,-0.261450,-0.098960
2026-01-24T19:39:16.335544,8.082954,-0.679561,-0.215354,1.078787,-0.291993,-0.109955
2026-01-24T19:39:16.344544,8.283951,-0.842273,0.014356,1.110552,-0.334754,-0.120951
2026-01-24T19:39:16.354544,8.767302,-1.014556,0.162711,1.164308,-0.368962,-0.131946
2026-01-24T19:39:16.364544,9.365507,-1.081555,0.043070,1.233947,-0.351858,-0.153938
2026-01-24T19:39:16.373544,9.906285,-1.148554,-0.210568,1.308473,-0.307876,-0.161268
2026-01-24T19:39:16.383544,10.269994,-0.957129,-0.669990,1.400102,-0.245567,-0.172263
2026-01-24T19:39:16.393544,10.064211,-0.890130,-0.894915,1.480737,-0.162490,-0.174707
2026-01-24T19:39:16.402544,9.317651,-0.679561,-0.890130,1.596801,-0.086742,-0.169820
2026-01-24T19:39:16.412544,8.504091,-0.272781,-0.890130,1.704313,-0.063529,-0.146607
2026-01-24T19:39:16.421544,7.824529,0.263210,-0.751346,1.729969,-0.072082,-0.105068
2026-01-24T19:39:16.431544,7.188039,0.890130,-0.435493,1.692096,-0.091629,-0.072082
2026-01-24T19:39:16.441544,6.824330,1.306481,0.100498,1.574810,-0.120951,-0.026878
2026-01-24T19:39:16.450544,6.484549,1.746760,0.526420,1.367116,-0.122173,0.046425
2026-01-24T19:39:16.460544,6.202196,1.741974,0.741775,1.081231,-0.095294,0.112399
2026-01-24T19:39:16.469544,5.991627,1.038485,0.803988,0.772133,-0.048869,0.166155
2026-01-24T19:39:16.479544,5.584847,0.248853,0.870987,0.569326,-0.003665,0.229685
2026-01-24T19:39:16.489544,5.168496,-0.555134,0.622133,0.470366,0.001221,0.299323
2026-01-24T19:39:16.498544,4.938785,-1.191625,0.449850,0.416610,-0.053756,0.392175
2026-01-24T19:39:16.508544,5.106283,-1.737189,0.440279,0.379958,-0.127059,0.489913
2026-01-24T19:39:16.518544,5.422136,-2.129612,0.248853,0.409279,-0.162490,0.587652
2026-01-24T19:39:16.527544,5.369493,-1.588834,0.157926,0.472809,-0.186924,0.674395
2026-01-24T19:39:16.537544,6.053841,-1.540977,0.153140,0.344527,-0.219911,0.735481
2026-01-24T19:39:16.546544,6.762116,-2.321037,0.579063,0.208915,-0.202807,0.791681
2026-01-24T19:39:16.556544,7.154539,-2.823530,0.937986,0.285884,-0.120951,0.842993
2026-01-24T19:39:16.566544,7.403393,-2.445464,0.378065,0.508239,0.019547,0.851545
2026-01-24T19:39:16.575544,7.135396,-1.780260,0.129212,0.561995,0.079412,0.894306
2026-01-24T19:39:16.585544,7.111468,-1.842473,0.038285,0.514348,0.114842,0.904080
2026-01-24T19:39:16.594544,7.197610,-1.952543,-0.325423,0.442266,0.180816,0.941954
2026-01-24T19:39:16.604544,7.393821,-2.459821,-0.626919,0.366519,0.179594,0.998153
2026-01-24T19:39:16.614544,7.149753,-2.134397,0.636490,0.458148,0.256563,1.001818
2026-01-24T19:39:16.623544,6.987041,-2.287538,0.191425,0.306654,0.294436,1.115439
2026-01-24T19:39:16.633544,7.101897,-2.483749,0.291924,0.357966,0.257785,1.115439
2026-01-24T19:39:16.643544,7.537391,-2.263610,0.650847,0.299323,0.248011,1.153313
2026-01-24T19:39:16.652544,8.087740,-2.651247,0.583848,0.195476,0.300545,1.194852
2026-01-24T19:39:16.662544,8.317451,-3.259024,0.612562,0.074525,0.350636,1.268155
2026-01-24T19:39:16.671544,8.719445,-3.828516,0.062213,0.087964,0.388510,1.339016
2026-01-24T19:39:16.681544,8.891728,-3.857230,-0.215354,0.195476,0.426383,1.411098
2026-01-24T19:39:16.691544,8.748159,-3.708875,-0.803988,0.300545,0.450818,1.469741
2026-01-24T19:39:16.700544,8.336593,-3.790230,-1.684547,0.338419,0.436157,1.516167
2026-01-24T19:39:16.710544,8.226524,-3.775874,-1.861615,0.398284,0.337197,1.525941
2026-01-24T19:39:16.719544,8.724231,-3.809373,-1.679761,0.454483,0.193033,1.579697
2026-01-24T19:39:16.729544,9.422935,-3.737588,-1.574477,0.536339,0.124616,1.637118
2026-01-24T19:39:16.739544,10.001998,-3.732803,-1.182054,0.569326,0.119729,1.685987
2026-01-24T19:39:16.748544,10.753344,-3.818944,-1.081555,0.588873,0.120951,1.754404
2026-01-24T19:39:16.758544,11.308479,-3.584448,-0.885344,0.668286,0.157603,1.826486
2026-01-24T19:39:16.768544,11.547761,-3.302095,-0.722632,0.660956,0.237015,1.909564
2026-01-24T19:39:16.777544,11.308479,-3.479164,-0.488135,0.529009,0.322536,2.010967
2026-01-24T19:39:16.787544,10.997412,-4.005585,-0.435493,0.394618,0.365297,2.125810
2026-01-24T19:39:16.796544,10.877771,-4.388436,-0.339780,0.282219,0.346971,2.262644
2026-01-24T19:39:16.806544,10.724630,-4.962714,-0.330209,0.190589,0.306654,2.419025
2026-01-24T19:39:16.816544,10.691131,-5.350351,-0.019142,0.226020,0.267558,2.525316
2026-01-24T19:39:16.825544,10.619346,-5.426921,0.033499,0.370184,0.235793,2.593733
2026-01-24T19:39:16.835544,10.777272,-4.981856,0.440279,0.555887,0.180816,2.649932
2026-01-24T19:39:16.844544,11.160124,-4.627718,0.483350,0.656069,0.145385,2.676810
2026-01-24T19:39:16.854544,11.179267,-4.656432,0.808774,0.583987,0.172263,2.707354
2026-01-24T19:39:16.864544,10.849057,-5.690132,0.421136,0.438601,0.234572,2.746449
2026-01-24T19:39:16.873544,10.231709,-5.522634,1.143769,0.557108,0.274889,2.746449
2026-01-24T19:39:16.883544,10.356136,-5.704489,1.560120,0.455705,0.237015,2.813644
2026-01-24T19:39:16.893544,10.523633,-6.996613,1.540977,0.199142,0.244346,2.905274
2026-01-24T19:39:16.902544,10.638489,-8.068597,1.679761,0.257785,0.256563,2.912604
2026-01-24T19:39:16.912544,10.667203,-8.738588,1.028913,0.488692,0.307876,2.895500
2026-01-24T19:39:16.921544,10.456634,-9.346365,1.253839,0.543669,0.379958,2.928487
2026-01-24T19:39:16.931544,9.978070,-9.743573,1.775474,1.034805,0.491135,2.801427
2026-01-24T19:39:16.941544,9.288937,-8.671589,1.718046,1.727526,0.579100,2.651154
2026-01-24T19:39:16.950544,8.906085,-7.111468,1.205982,2.142914,0.601091,2.546085
2026-01-24T19:39:16.960544,9.317651,-5.024927,2.076970,2.265087,0.516791,2.425134
2026-01-24T19:39:16.969544,10.274780,-3.215953,3.024527,2.028072,0.530230,2.387260
2026-01-24T19:39:16.979544,10.581061,-2.723032,2.651247,1.566258,0.719599,2.378708
2026-01-24T19:39:16.989544,10.188638,-2.957528,2.991028,0.994488,0.828333,2.339613
2026-01-24T19:39:16.998544,9.719645,-4.551148,3.278166,0.461814,0.830776,2.269974
2026-01-24T19:39:17.008544,9.274580,-6.398407,3.388236,0.290771,0.851545,2.172236
2026-01-24T19:39:17.018544,8.561519,-7.551748,3.560520,0.430049,0.890641,2.127032
2026-01-24T19:39:17.027544,7.968099,-7.690531,3.613162,0.741590,0.905302,2.078163
2026-01-24T19:39:17.037544,7.355536,-7.025327,3.517449,0.967610,0.856432,2.026850
2026-01-24T19:39:17.046544,7.465606,-6.628118,4.235296,0.718377,0.767246,2.081828
2026-01-24T19:39:17.056544,8.059026,-7.125825,5.005784,0.216246,0.739146,2.206444
2026-01-24T19:39:17.066544,7.724031,-7.657032,4.460221,-0.097738,0.896749,2.251648
2026-01-24T19:39:17.075544,6.116054,-7.891528,3.594019,-0.257785,1.080009,2.232101
2026-01-24T19:39:17.085544,4.096512,-8.149953,2.421536,-0.323758,1.149648,2.183231
2026-01-24T19:39:17.094544,2.660818,-8.958727,1.138983,-0.430049,1.012814,2.163684
2026-01-24T19:39:17.104544,1.880758,-10.016355,0.081355,-0.452040,0.741590,2.151466
2026-01-24T19:39:17.114544,2.206182,-10.729416,-0.177068,-0.443488,0.379958,2.216218
2026-01-24T19:39:17.123544,3.335594,-10.973484,0.258424,-0.444709,0.097738,2.279748
2026-01-24T19:39:17.133544,4.139583,-11.073982,0.502492,-0.400727,0.021991,2.313957
2026-01-24T19:39:17.143544,4.067798,-11.030912,1.057627,-0.376292,0.092851,2.326174
2026-01-24T19:39:17.152544,3.603590,-10.777272,1.560120,-0.345749,0.102625,2.335948
2026-01-24T19:39:17.162544,3.574876,-11.179267,2.359323,-0.351858,0.012217,2.326174
2026-01-24T19:39:17.171544,3.967299,-11.499905,2.986242,-0.202807,-0.061086,2.277305
2026-01-24T19:39:17.181544,4.493720,-12.007183,3.914657,-0.059864,-0.064751,2.214996
2026-01-24T19:39:17.191544,4.914857,-12.782458,4.201796,0.052534,-0.009773,2.145358
2026-01-24T19:39:17.200544,5.010570,-13.141381,4.259224,0.362853,0.052534,2.043954
2026-01-24T19:39:17.210544,4.967499,-12.107682,4.517649,0.839328,0.134390,1.892460
2026-01-24T19:39:17.219544,4.838287,-10.360921,4.479363,1.083674,0.212581,1.738522
2026-01-24T19:39:17.229544,4.713860,-9.159724,4.445864,0.951727,0.251676,1.600466
2026-01-24T19:39:17.239544,4.828716,-9.154939,4.345365,0.593760,0.295658,1.419650
2026-01-24T19:39:17.248544,4.359722,-10.016355,4.354937,0.299323,0.390953,1.224173
2026-01-24T19:39:17.258544,3.483949,-10.753344,4.441078,0.152716,0.465479,1.017701
2026-01-24T19:39:17.268544,2.560320,-11.284551,4.197010,0.109955,0.510683,0.822224
2026-01-24T19:39:17.277544,1.842473,-11.442477,3.756731,0.145385,0.481361,0.630412
2026-01-24T19:39:17.287544,1.507478,-11.552547,3.120240,0.083077,0.419053,0.439822
2026-01-24T19:39:17.296544,1.258624,-12.021540,2.502892,-0.024434,0.386066,0.237015
2026-01-24T19:39:17.306544,0.679561,-12.643674,2.038684,-0.079412,0.346971,0.029321
2026-01-24T19:39:17.316544,0.234496,-12.878171,1.885544,-0.063529,0.283441,-0.160046
2026-01-24T19:39:17.325544,-0.105284,-12.806386,2.081755,-0.057421,0.147829,-0.351858
2026-01-24T19:39:17.335544,0.157926,-12.835100,2.603390,-0.119729,-0.014660,-0.553443
2026-01-24T19:39:17.344544,0.885344,-13.840085,2.928814,-0.489913,-0.162490,-0.652403
2026-01-24T19:39:17.354544,1.383051,-15.136995,3.014956,-0.531452,-0.195476,-0.819780
2026-01-24T19:39:17.364544,1.134197,-15.103496,2.751745,-0.257785,-0.223576,-0.957836
2026-01-24T19:39:17.373544,0.937986,-14.333007,2.086541,-0.028099,-0.322536,-1.105665
2026-01-24T19:39:17.383544,1.191625,-13.404592,2.182254,0.130725,-0.482583,-1.262047
2026-01-24T19:39:17.393544,2.024327,-12.844671,2.890529,0.185702,-0.636521,-1.420872
2026-01-24T19:39:17.402544,2.861815,-12.433106,3.225524,0.333532,-0.697607,-1.602910
2026-01-24T19:39:17.412544,3.330809,-11.155338,3.479164,0.568104,-0.707381,-1.791056
2026-01-24T19:39:17.421544,3.641875,-9.489934,3.527020,0.651182,-0.717155,-1.969429
2026-01-24T19:39:17.431544,3.957728,-8.059026,3.713660,0.478918,-0.747698,-2.095267
2026-01-24T19:39:17.441544,4.326223,-7.068397,3.962514,0.109955,-0.783129,-2.197892
2026-01-24T19:39:17.450544,4.814359,-6.819544,4.082155,-0.335975,-0.792902,-2.261422
2026-01-24T19:39:17.460544,4.991427,-7.274180,4.039084,-0.676838,-0.720820,-2.322509
2026-01-24T19:39:17.469544,5.024927,-7.518248,3.976871,-0.851545,-0.624304,-2.388482
2026-01-24T19:39:17.479544,4.867001,-7.499106,3.512663,-0.907745,-0.548556,-2.470338
2026-01-24T19:39:17.489544,4.924428,-7.274180,2.991028,-0.944397,-0.511904,-2.579072
2026-01-24T19:39:17.498544,5.125426,-7.322037,2.603390,-1.117883,-0.513126,-2.668258
2026-01-24T19:39:17.508544,5.637490,-8.197810,2.689532,-1.335351,-0.526565,-2.764775
2026-01-24T19:39:17.518544,6.264409,-9.355936,3.048455,-1.408654,-0.475253,-2.856405
2026-01-24T19:39:17.527544,6.436692,-10.102497,3.168097,-1.254716,-0.397062,-2.948035
2026-01-24T19:39:17.537544,6.484549,-10.480562,2.947957,-1.047022,-0.326201,-3.017673
2026-01-24T19:39:17.546544,6.264409,-10.456634,2.809173,-0.853989,-0.283441,-3.067764
2026-01-24T19:39:17.556544,6.092126,-9.695717,2.732603,-0.497244,-0.299323,-3.159394
2026-01-24T19:39:17.566544,6.235695,-8.274380,2.383251,-0.260228,-0.375071,-3.213150
2026-01-24T19:39:17.575544,6.752545,-6.924828,1.813759,-0.233350,-0.466700,-3.240028
2026-01-24T19:39:17.585544,7.489534,-5.876772,1.732403,-0.398284,-0.579100,-3.260797
2026-01-24T19:39:17.594544,8.446663,-5.613561,1.899901,-0.609643,-0.667064,-3.298671
2026-01-24T19:39:17.604544,9.245866,-5.781059,1.344766,-0.730594,-0.664621,-3.346319
2026-01-24T19:39:17.614544,9.384650,-5.465206,0.425922,-0.709825,-0.682947,-3.411070
2026-01-24T19:39:17.623544,9.628718,-5.283352,-0.095712,-1.056796,-0.813672,-3.327993
2026-01-24T19:39:17.633544,9.930213,-6.843472,-0.062213,-1.665218,-0.926071,-3.174055
2026-01-24T19:39:17.643544,10.375278,-8.839086,0.205782,-1.857029,-0.971275,-3.114190
2026-01-24T19:39:17.652544,10.662417,-9.590432,0.306281,-1.590692,-0.968832,-3.093420
2026-01-24T19:39:17.662544,10.853843,-9.279366,0.344566,-1.196073,-0.957836,-3.067764
2026-01-24T19:39:17.671544,11.313265,-8.370093,0.186640,-0.783129,-0.993266,-3.099529
2026-01-24T19:39:17.681544,11.715259,-7.436892,-0.196211,-0.461814,-1.001818,-3.144733
2026-01-24T19:39:17.691544,11.619546,-6.508477,-1.000199,-0.216246,-0.971275,-3.189937
2026-01-24T19:39:17.700544,11.222337,-5.551348,-1.363908,-0.103847,-1.003040,-3.183828
2026-01-24T19:39:17.710544,10.983055,-4.862215,-1.512263,-0.127059,-1.120326,-3.133738
2026-01-24T19:39:17.719544,11.361121,-4.603790,-1.459621,-0.210137,-1.271821,-3.056769
2026-01-24T19:39:17.729544,11.911470,-4.398007,-1.430907,-0.226020,-1.351233,-3.003012
2026-01-24T19:39:17.739544,12.217752,-4.029513,-1.263410,-0.234572,-1.359785,-2.940704
2026-01-24T19:39:17.748544,12.165110,-3.933800,-1.205982,-0.344527,-1.350011,-2.838079
2026-01-24T19:39:17.758544,12.160324,-4.173082,-0.904486,-0.452040,-1.356120,-2.737897
2026-01-24T19:39:17.768544,12.390035,-4.158725,-0.339780,-0.472809,-1.364672,-2.654819
2026-01-24T19:39:17.777544,12.667602,-4.058227,0.028713,-0.455705,-1.297477,-2.576629
2026-01-24T19:39:17.787544,12.471391,-4.072584,-0.014356,-0.445931,-1.158200,-2.488664
2026-01-24T19:39:17.796544,11.734402,-3.972085,0.086141,-0.382401,-1.000597,-2.405586
2026-01-24T19:39:17.806544,11.112268,-3.436093,0.086141,-0.224798,-0.956614,-2.378708
2026-01-24T19:39:17.816544,10.992627,-2.483749,-0.028713,-0.101403,-0.974940,-2.370156
2026-01-24T19:39:17.825544,11.140982,-1.703689,0.215354,-0.152716,-0.985936,-2.344500
2026-01-24T19:39:17.835544,11.375478,-1.325623,0.488135,-0.291993,-0.977384,-2.317622
2026-01-24T19:39:17.844544,11.346764,-1.617548,-0.004785,-0.450818,-0.874758,-2.265087
2026-01-24T19:39:17.854544,10.849057,-2.000399,-0.540777,-0.570548,-0.789237,-2.216218
2026-01-24T19:39:17.864544,10.518848,-2.167897,-0.167497,-0.602312,-0.778242,-2.161240
2026-01-24T19:39:17.873544,10.552347,-2.383251,0.081355,-0.576656,-0.744033,-2.091602
2026-01-24T19:39:17.883544,10.150353,-2.550748,-0.100498,-0.455705,-0.591317,-2.009746
2026-01-24T19:39:17.893544,9.064012,-2.254038,-0.593420,-0.315206,-0.430049,-1.930333
2026-01-24T19:39:17.902544,8.068597,-1.598405,-0.947557,-0.212581,-0.379958,-1.865582
2026-01-24T19:39:17.912544,7.384250,-1.167697,-1.177268,-0.175929,-0.464257,-1.759291
2026-01-24T19:39:17.921544,7.542176,-0.751346,-0.751346,-0.193033,-0.580321,-1.661553
2026-01-24T19:39:17.931544,8.035098,-0.344566,-0.114855,-0.282219,-0.613308,-1.547932
2026-01-24T19:39:17.941544,8.595018,-0.631705,-0.406779,-0.393397,-0.498465,-1.434311
2026-01-24T19:39:17.950544,8.097311,-0.933200,-0.449850,-0.450818,-0.307876,-1.336572
2026-01-24T19:39:17.960544,6.948756,-0.545563,0.047856,-0.399505,-0.208915,-1.251051
2026-01-24T19:39:17.969544,6.594619,-0.009571,-0.066999,-0.442266,-0.230907,-1.117883
2026-01-24T19:39:17.979544,6.723831,0.253639,0.086141,-0.588873,-0.234572,-1.011592
2026-01-24T19:39:17.989544,7.173682,-0.277567,-0.177068,-0.775798,-0.113620,-0.935845
2026-01-24T19:39:17.998544,6.149554,0.009571,0.153140,-0.810007,0.051312,-0.856432
2026-01-24T19:39:18.008544,5.824130,0.435493,-0.421136,-0.819780,0.061086,-0.751364
2026-01-24T19:39:18.018544,6.183053,0.320638,-0.669990,-0.905302,0.073303,-0.718377
2026-01-24T19:39:18.027544,6.436692,-0.167497,-0.540777,-1.042135,0.149051,-0.659734
2026-01-24T19:39:18.037544,5.771488,0.248853,0.071784,-1.021366,0.287106,-0.624304
2026-01-24T19:39:18.046544,5.455635,-0.004785,-1.220339,-1.130100,0.343306,-0.532674
2026-01-24T19:39:18.056544,5.651846,-0.703489,-1.579262,-1.198517,0.315206,-0.508239
2026-01-24T19:39:18.066544,6.053841,-1.402194,-1.440479,-1.180191,0.321315,-0.504574
2026-01-24T19:39:18.075544,6.087340,-1.493121,-1.378265,-1.033583,0.357966,-0.494800
2026-01-24T19:39:18.085544,6.049055,-0.909272,-1.397408,-0.912632,0.370184,-0.476474
2026-01-24T19:39:18.094544,6.264409,-0.583848,-1.617548,-0.955393,0.387288,-0.425162
2026-01-24T19:39:18.104544,6.379265,-0.569491,-1.497906,-1.081231,0.393397,-0.393397
2026-01-24T19:39:18.114544,6.427121,-0.689132,-1.220339,-1.211956,0.409279,-0.346971
2026-01-24T19:39:18.123544,6.498906,-0.952343,-1.263410,-1.285260,0.431270,-0.312762
2026-01-24T19:39:18.133544,6.288337,-0.971485,-1.038485,-1.326799,0.456927,-0.267558
2026-01-24T19:39:18.143544,6.360122,-1.105484,-0.784845,-1.384220,0.447153,-0.235793
2026-01-24T19:39:18.152544,6.364908,-1.229910,-0.660419,-1.441641,0.444709,-0.195476
2026-01-24T19:39:18.162544,6.642475,-1.411765,-0.799202,-1.453858,0.439822,-0.156381
2026-01-24T19:39:18.171544,6.862615,-1.306481,-0.827916,-1.414763,0.443488,-0.120951
2026-01-24T19:39:18.181544,7.097111,-1.215553,-0.794417,-1.386663,0.438601,-0.094073
2026-01-24T19:39:18.191544,7.312465,-1.138983,-0.842273,-1.389107,0.439822,-0.061086
2026-01-24T19:39:18.200544,7.398607,-1.081555,-0.985842,-1.362229,0.448374,-0.034208
2026-01-24T19:39:18.210544,7.518248,-0.961914,-1.048056,-1.346346,0.426383,-0.015882
2026-01-24T19:39:18.219544,7.891528,-1.043270,-1.143769,-1.368337,0.362853,0.009773
2026-01-24T19:39:18.229544,8.518448,-1.359123,-1.306481,-1.354898,0.290771,0.035430
2026-01-24T19:39:18.239544,9.269794,-1.454836,-1.550549,-1.295034,0.230907,0.051312
2026-01-24T19:39:18.248544,9.791430,-1.708475,-1.875972,-1.248608,0.196698,0.065973
2026-01-24T19:39:18.258544,10.236495,-1.761117,-2.100898,-1.175304,0.166155,0.083077
2026-01-24T19:39:18.268544,10.518848,-1.789831,-2.062613,-1.042135,0.111177,0.095294
2026-01-24T19:39:18.277544,10.829915,-1.684547,-1.765903,-0.889419,0.057421,0.102625
2026-01-24T19:39:18.287544,10.829915,-1.545763,-1.344766,-0.747698,0.037873,0.105068
2026-01-24T19:39:18.296544,10.447063,-1.473978,-0.837487,-0.576656,0.058643,0.103847
2026-01-24T19:39:18.306544,9.743573,-1.138983,-0.291924,-0.383623,0.063529,0.103847
2026-01-24T19:39:18.316544,9.126225,-0.995414,0.186640,-0.224798,0.029321,0.119729
2026-01-24T19:39:18.325544,8.724231,-0.756131,0.540777,-0.062308,-0.015882,0.144164
2026-01-24T19:39:18.335544,8.532805,-0.521635,0.880558,0.079412,-0.039095,0.177150
2026-01-24T19:39:18.344544,8.346165,-0.081355,0.875773,0.152716,-0.048869,0.223576
2026-01-24T19:39:18.354544,8.322237,0.287138,0.799202,0.158824,-0.056199,0.273667
2026-01-24T19:39:18.364544,8.327022,0.445065,0.717846,0.092851,-0.076969,0.329867
2026-01-24T19:39:18.373544,8.542376,0.440279,0.780060,0.008552,-0.094073,0.387288
2026-01-24T19:39:18.383544,8.915657,0.258424,0.641276,-0.051312,-0.097738,0.430049
2026-01-24T19:39:18.393544,9.102297,0.263210,0.516849,-0.069638,-0.083077,0.460592
2026-01-24T19:39:18.402544,9.274580,0.239282,0.344566,-0.062308,-0.070860,0.478918
2026-01-24T19:39:18.412544,9.394221,0.186640,0.133998,-0.041538,-0.059864,0.476474
2026-01-24T19:39:18.421544,9.513862,0.200997,-0.052642,-0.019547,-0.057421,0.453261
2026-01-24T19:39:18.431544,9.757930,0.224925,-0.200997,0.032986,-0.073303,0.415388
2026-01-24T19:39:18.441544,10.016355,0.287138,-0.210568,0.096516,-0.101403,0.370184
2026-01-24T19:39:18.450544,10.341779,0.349352,-0.234496,0.153938,-0.117286,0.328645
2026-01-24T19:39:18.460544,10.576275,0.483350,-0.291924,0.195476,-0.117286,0.295658
2026-01-24T19:39:18.469544,10.681560,0.516849,-0.296710,0.216246,-0.113620,0.272445
2026-01-24T19:39:18.479544,10.547562,0.497707,-0.296710,0.245567,-0.112399,0.254119
2026-01-24T19:39:18.489544,10.284351,0.354137,-0.277567,0.271224,-0.123394,0.239459
2026-01-24T19:39:18.498544,10.006784,0.363709,-0.196211,0.324980,-0.152716,0.229685
2026-01-24T19:39:18.508544,9.858429,0.368494,-0.014356,0.405614,-0.199142,0.221133
2026-01-24T19:39:18.518544,9.791430,0.483350,0.162711,0.477696,-0.234572,0.212581
2026-01-24T19:39:18.527544,9.695717,0.512064,0.349352,0.533896,-0.244346,0.199142
2026-01-24T19:39:18.537544,9.686145,0.579063,0.684347,0.585208,-0.267558,0.182037
2026-01-24T19:39:18.546544,9.963713,0.674775,0.679561,0.653625,-0.263893,0.168598
2026-01-24T19:39:18.556544,10.016355,1.000199,0.684347,0.707381,-0.219911,0.145385
2026-01-24T19:39:18.566544,9.705288,1.138983,0.478564,0.691499,-0.169820,0.130725
2026-01-24T19:39:18.575544,9.504291,1.057627,0.344566,0.654847,-0.153938,0.116064
2026-01-24T19:39:18.585544,9.279366,0.981057,0.215354,0.612086,-0.155159,0.113620
2026-01-24T19:39:18.594544,9.154939,0.660419,0.124426,0.574213,-0.166155,0.116064
2026-01-24T19:39:18.604544,9.049655,0.478564,0.076570,0.546113,-0.177150,0.123394
2026-01-24T19:39:18.614544,9.164510,0.043070,0.052642,0.513126,-0.208915,0.138055
2026-01-24T19:39:18.623544,9.705288,-0.291924,-0.086141,0.529009,-0.238237,0.155159
2026-01-24T19:39:18.633544,10.092925,-0.378065,-0.392422,0.602312,-0.232128,0.164933
2026-01-24T19:39:18.643544,9.944570,-0.181854,-0.440279,0.681725,-0.196698,0.163711
2026-01-24T19:39:18.652544,9.738787,-0.019142,-0.588634,0.696386,-0.186924,0.160046
2026-01-24T19:39:18.662544,9.480363,-0.334995,-0.622133,0.681725,-0.200363,0.147829
2026-01-24T19:39:18.671544,9.131011,-0.588634,-0.358923,0.726929,-0.222354,0.129503
2026-01-24T19:39:18.681544,8.910871,-0.799202,-0.095712,0.813672,-0.260228,0.109955
2026-01-24T19:39:18.691544,8.767302,-1.091127,-0.028713,0.886976,-0.290771,0.098960
2026-01-24T19:39:18.700544,8.618947,-1.330409,0.205782,0.998153,-0.299323,0.073303
2026-01-24T19:39:18.710544,8.499305,-1.526620,0.435493,1.126435,-0.317649,0.058643
2026-01-24T19:39:18.719544,8.709874,-1.636690,0.492921,1.240056,-0.343306,0.059864
2026-01-24T19:39:18.729544,9.097511,-1.588834,0.354137,1.343903,-0.327423,0.075747
2026-01-24T19:39:18.739544,9.059226,-1.445264,0.028713,1.446528,-0.262671,0.091629
2026-01-24T19:39:18.748544,8.580661,-1.339980,-0.354137,1.525941,-0.193033,0.119729
2026-01-24T19:39:18.758544,7.968099,-1.033699,-0.334995,1.591914,-0.172263,0.171042
2026-01-24T19:39:18.768544,7.585247,-1.172483,-0.406779,1.591914,-0.175929,0.245567
2026-01-24T19:39:18.777544,7.345965,-1.713260,-0.430708,1.605353,-0.164933,0.338419
2026-01-24T19:39:18.787544,6.920042,-2.009970,-0.583848,1.715309,-0.149051,0.422718
2026-01-24T19:39:18.796544,6.546762,-1.770688,-0.502492,1.891238,-0.158824,0.507018
2026-01-24T19:39:18.806544,6.283552,-1.253839,-0.445065,1.993863,-0.206472,0.605978
2026-01-24T19:39:18.816544,6.297909,-0.650847,-0.387637,2.028072,-0.241902,0.685390
2026-01-24T19:39:18.825544,6.245266,-0.186640,-0.095712,1.919338,-0.239459,0.757472
2026-01-24T19:39:18.835544,6.111268,-0.593420,-0.009571,1.714087,-0.193033,0.842993
2026-01-24T19:39:18.844544,5.867201,-0.957129,0.062213,1.613905,-0.133168,0.932180
2026-01-24T19:39:18.854544,5.632704,-0.904486,0.028713,1.551597,-0.090408,1.045801
2026-01-24T19:39:18.864544,5.608776,-0.765703,-0.033499,1.436754,-0.050090,1.164308
2026-01-24T19:39:18.873544,5.288137,-0.631705,-0.047856,1.281595,0.034208,1.265712
2026-01-24T19:39:18.883544,4.608576,-0.593420,-0.607776,1.038470,0.101403,1.393994
2026-01-24T19:39:18.893544,4.393222,-1.445264,-1.143769,0.750142,0.063529,1.517388
2026-01-24T19:39:18.902544,4.345365,-2.569891,-1.320838,0.608421,0.007330,1.632231
2026-01-24T19:39:18.912544,4.819144,-3.196810,-1.722832,0.711046,-0.070860,1.734856
2026-01-24T19:39:18.921544,5.297709,-2.823530,-1.320838,0.862541,-0.111177,1.788613
2026-01-24T19:39:18.931544,5.647061,-2.517249,-1.363908,0.822224,-0.050090,1.861916
2026-01-24T19:39:18.941544,5.967699,-3.302095,-1.555334,0.768468,-0.030543,1.907120
2026-01-24T19:39:18.950544,6.302694,-3.282952,-1.488335,0.961501,-0.004886,1.907120
2026-01-24T19:39:18.960544,6.819544,-2.938386,-1.411765,1.154535,-0.007330,1.913229
2026-01-24T19:39:18.969544,7.283751,-2.100898,-1.335195,1.341459,0.046425,1.877799
2026-01-24T19:39:18.979544,7.456035,-1.215553,-1.215553,1.417207,0.130725,1.828930
2026-01-24T19:39:18.989544,7.527819,-0.851844,-1.268195,1.317025,0.202807,1.795943
2026-01-24T19:39:18.998544,7.561319,-1.272981,-1.368694,1.132543,0.256563,1.786169
2026-01-24T19:39:19.008544,7.747959,-1.914258,-1.718046,0.992044,0.262671,1.784947
2026-01-24T19:39:19.018544,8.207381,-2.818745,-2.024327,0.853989,0.205250,1.800830
2026-01-24T19:39:19.027544,8.800801,-3.751945,-2.053041,0.825889,0.172263,1.808160
2026-01-24T19:39:19.037544,9.384650,-3.589233,-2.105683,0.941954,0.145385,1.848477
2026-01-24T19:39:19.046544,9.934999,-3.326023,-2.254038,0.853989,0.138055,1.923003
2026-01-24T19:39:19.056544,10.442277,-3.857230,-1.895115,0.629191,0.156381,2.002415
2026-01-24T19:39:19.066544,10.657631,-4.608576,-1.383051,0.582765,0.179594,2.075719
2026-01-24T19:39:19.075544,10.451849,-4.450650,-1.167697,0.791681,0.230907,2.123367
2026-01-24T19:39:19.085544,10.145567,-3.876372,-1.134197,0.926071,0.239459,2.164905
2026-01-24T19:39:19.094544,9.915856,-3.771088,-0.952343,0.929736,0.221133,2.177123
2026-01-24T19:39:19.104544,9.877571,-4.321437,-0.559920,0.835663,0.190589,2.228435
2026-01-24T19:39:19.114544,10.293922,-5.364708,-0.430708,0.866206,0.160046,2.278526
2026-01-24T19:39:19.123544,10.537990,-5.345565,0.258424,1.161865,0.171042,2.302961
2026-01-24T19:39:19.133544,10.609775,-4.493720,0.550349,1.393994,0.255341,2.357939
2026-01-24T19:39:19.143544,10.805986,-3.991228,1.368694,1.258382,0.300545,2.417804
2026-01-24T19:39:19.152544,11.117053,-4.608576,2.426322,0.897971,0.361632,2.493551
2026-01-24T19:39:19.162544,11.121839,-6.297909,1.775474,0.795346,0.505796,2.513099
2026-01-24T19:39:19.171544,10.590632,-6.474977,1.856830,1.094670,0.616973,2.442238
2026-01-24T19:39:19.181544,10.336993,-6.269195,1.923829,1.116661,0.675616,2.434908
2026-01-24T19:39:19.191544,10.112068,-6.876972,1.785045,0.993266,0.762359,2.458121
2026-01-24T19:39:19.200544,9.652646,-7.121040,1.761117,0.977384,0.828333,2.506990
2026-01-24T19:39:19.210544,9.690931,-6.939185,2.277967,0.946840,0.791681,2.559524
2026-01-24T19:39:19.219544,10.255637,-6.833901,2.746960,0.875980,0.740368,2.607172
2026-01-24T19:39:19.229544,10.585847,-7.331608,2.756531,0.487470,0.839328,2.805092
2026-01-24T19:39:19.239544,10.681560,-8.394021,3.694518,0.249232,0.935845,2.827083
2026-01-24T19:39:19.248544,11.418549,-8.958727,5.125426,0.248011,0.967610,2.747671
2026-01-24T19:39:19.258544,11.662617,-9.245866,5.675775,0.388510,1.176526,2.686584
2026-01-24T19:39:19.268544,11.203195,-9.116654,5.292923,0.602312,1.354898,2.619389
2026-01-24T19:39:19.277544,10.384850,-8.274380,3.905086,0.836885,1.486845,2.531425
2026-01-24T19:39:19.287544,9.131011,-6.848258,2.191825,1.006705,1.583362,2.456899
2026-01-24T19:39:19.296544,7.475177,-6.144768,0.368494,0.799011,1.579697,2.480112
2026-01-24T19:39:19.306544,6.183053,-6.699903,-0.363709,0.371405,1.389107,2.536311
2026-01-24T19:39:19.316544,5.106283,-7.441678,-0.626919,-0.015882,1.127656,2.599841
2026-01-24T19:39:19.325544,4.421936,-8.657232,-0.368494,-0.357966,0.869871,2.665815
2026-01-24T19:39:19.335544,3.799802,-9.791430,0.215354,-0.554665,0.604756,2.714684
2026-01-24T19:39:19.344544,3.579662,-10.566704,0.732203,-0.489913,0.365297,2.722014
2026-01-24T19:39:19.354544,3.914657,-10.762916,1.363908,-0.212581,0.156381,2.689028
2026-01-24T19:39:19.364544,4.565505,-10.561918,1.813759,0.146607,0.043982,2.615724
2026-01-24T19:39:19.373544,4.713860,-10.413563,2.335394,0.487470,0.068416,2.483777
2026-01-24T19:39:19.383544,4.326223,-10.380064,2.962314,0.680503,0.153938,2.362826
2026-01-24T19:39:19.393544,4.532006,-10.514062,4.082155,0.663399,0.152716,2.329839
2026-01-24T19:39:19.402544,5.685346,-11.140982,5.273781,0.564439,0.118507,2.321287
2026-01-24T19:39:19.412544,6.345765,-11.452048,4.785645,0.708603,0.227241,2.240653
2026-01-24T19:39:19.421544,6.082555,-10.207781,4.331008,1.014036,0.372627,2.134362
2026-01-24T19:39:19.431544,6.034698,-9.092725,3.646661,0.922406,0.432492,2.078163
2026-01-24T19:39:19.441544,6.293123,-9.102297,3.163311,0.684168,0.488692,1.984089
2026-01-24T19:39:19.450544,6.422335,-9.710074,4.010370,0.471587,0.565661,1.841147
2026-01-24T19:39:19.460544,6.623332,-10.021141,5.809773,0.408057,0.667064,1.656666
2026-01-24T19:39:19.469544,6.594619,-10.045069,6.972685,0.470366,0.828333,1.446528
2026-01-24T19:39:19.479544,6.096911,-9.901499,6.924828,0.450818,1.016479,1.280373
2026-01-24T19:39:19.489544,4.957928,-10.059426,5.627918,0.239459,1.225395,1.121548
2026-01-24T19:39:19.498544,2.880958,-10.628917,3.574876,-0.029321,1.414763,0.976162
2026-01-24T19:39:19.508544,0.454636,-11.236694,1.722832,-0.189368,1.442863,0.842993
2026-01-24T19:39:19.518544,-1.263410,-11.758330,0.526420,-0.300545,1.268155,0.701273
2026-01-24T19:39:19.527544,-2.143969,-12.428320,0.215354,-0.416610,0.989601,0.570548
2026-01-24T19:39:19.537544,-2.656033,-13.720444,0.445065,-0.514348,0.748920,0.450818
2026-01-24T19:39:19.546544,-2.962314,-14.232508,0.904486,-0.345749,0.502131,0.315206
2026-01-24T19:39:19.556544,-2.780459,-14.002797,1.919043,-0.124616,0.212581,0.184481
2026-01-24T19:39:19.566544,-1.588834,-13.734801,2.206182,-0.102625,-0.030543,0.105068
2026-01-24T19:39:19.575544,-0.315852,-13.849657,2.818745,-0.173485,-0.184481,-0.007330
2026-01-24T19:39:19.585544,0.976271,-14.581860,3.182454,-0.349414,-0.280997,-0.119729
2026-01-24T19:39:19.594544,2.301895,-15.529418,3.804587,-0.398284,-0.362853,-0.266337
2026-01-24T19:39:19.604544,3.450450,-15.462419,4.532006,-0.180816,-0.400727,-0.466700
2026-01-24T19:39:19.614544,4.283152,-14.036297,4.622933,0.058643,-0.384845,-0.678060
2026-01-24T19:39:19.623544,4.225724,-12.155538,4.010370,0.085521,-0.324980,-0.893084
2026-01-24T19:39:19.633544,3.871586,-10.380064,3.354737,-0.023212,-0.316428,-1.154535
2026-01-24T19:39:19.643544,3.273381,-9.135796,2.947957,-0.321315,-0.354301,-1.400102
2026-01-24T19:39:19.652544,2.842673,-9.188438,2.249253,-0.696386,-0.411723,-1.623679
2026-01-24T19:39:19.662544,2.507678,-9.619146,2.014756,-0.971275,-0.500909,-1.805717
2026-01-24T19:39:19.671544,2.584248,-10.135996,1.904686,-1.149648,-0.612086,-1.935220
2026-01-24T19:39:19.681544,2.871387,-10.470991,1.737189,-1.216843,-0.695164,-2.019520
2026-01-24T19:39:19.691544,3.292523,-10.265208,1.818545,-1.181413,-0.757472,-2.098932
2026-01-24T19:39:19.700544,3.790230,-9.566504,2.024327,-1.141096,-0.778242,-2.169792
2026-01-24T19:39:19.710544,4.369294,-8.939585,2.124826,-1.164308,-0.769690,-2.223549
2026-01-24T19:39:19.719544,4.914857,-8.819944,1.895115,-1.296255,-0.725707,-2.260200
2026-01-24T19:39:19.729544,5.010570,-9.140582,1.794616,-1.516167,-0.637743,-2.282192
2026-01-24T19:39:19.739544,4.914857,-9.801001,1.823330,-1.661553,-0.569326,-2.342056
2026-01-24T19:39:19.748544,4.843072,-10.753344,2.009970,-1.762956,-0.530230,-2.381152
2026-01-24T19:39:19.758544,4.876572,-11.619546,1.957328,-1.670105,-0.448374,-2.453234
2026-01-24T19:39:19.768544,4.723431,-10.911271,2.038684,-1.227838,-0.328645,-2.583959
2026-01-24T19:39:19.777544,4.833501,-9.169296,1.694118,-0.785572,-0.206472,-2.722014
2026-01-24T19:39:19.787544,5.120640,-7.786244,1.057627,-0.602312,-0.133168,-2.864957
2026-01-24T19:39:19.796544,5.608776,-7.666603,0.985842,-0.764803,-0.136833,-2.908939
2026-01-24T19:39:19.806544,6.494120,-8.350950,1.177268,-0.893084,-0.197920,-2.926043
2026-01-24T19:39:19.816544,7.628318,-8.805587,1.478764,-0.786794,-0.169820,-2.982243
2026-01-24T19:39:19.825544,8.216952,-8.374879,1.540977,-0.587652,-0.050090,-3.039664
2026-01-24T19:39:19.835544,8.293523,-7.747959,1.483550,-0.471587,0.076969,-3.103194
2026-01-24T19:39:19.844544,7.719245,-7.743173,1.095912,-0.684168,0.197920,-3.056769
2026-01-24T19:39:19.854544,6.747759,-8.997012,0.856630,-1.092226,0.210137,-2.935817
2026-01-24T19:39:19.864544,6.092126,-9.987641,1.100698,-1.144761,0.125838,-2.871066
2026-01-24T19:39:19.873544,6.034698,-9.327222,1.048056,-0.748920,-0.014660,-2.869844
2026-01-24T19:39:19.883544,6.364908,-7.456035,0.870987,-0.366519,-0.125838,-2.874731
2026-01-24T19:39:19.893544,6.891329,-5.460421,0.416351,0.052534,-0.260228,-3.034777
2026-01-24T19:39:19.902544,7.939385,-3.651447,0.885344,-0.019547,-0.543669,-3.059212
2026-01-24T19:39:19.912544,9.504291,-3.388236,2.072184,-0.583987,-0.753807,-2.987130
2026-01-24T19:39:19.921544,11.404192,-4.546362,3.177668,-1.043357,-0.800233,-3.003012
2026-01-24T19:39:19.931544,12.370892,-5.670989,3.656232,-1.150869,-0.623082,-3.100751
2026-01-24T19:39:19.941544,12.198609,-6.101697,2.962314,-0.890641,-0.367740,-3.255911
2026-01-24T19:39:19.950544,11.241480,-5.627918,1.430907,-0.586430,-0.251676,-3.384192
2026-01-24T19:39:19.960544,10.968698,-4.910071,0.272781,-0.365297,-0.400727,-3.524691
2026-01-24T19:39:19.969544,11.643474,-4.402793,-0.416351,-0.178372,-0.690277,-3.643199
2026-01-24T19:39:19.979544,13.299308,-3.948157,-1.435693,-0.078190,-1.003040,-3.679851
2026-01-24T19:39:19.989544,15.404991,-4.053441,-1.866401,-0.180816,-1.230282,-3.643199
2026-01-24T19:39:19.998544,17.175680,-4.187439,-1.761117,-0.326201,-1.260825,-3.574782
2026-01-24T19:39:20.008544,18.300306,-4.421936,-1.832902,-0.339641,-1.149648,-3.514917
2026-01-24T19:39:20.018544,18.764515,-4.244867,-2.254038,-0.232128,-1.011592,-3.446500
2026-01-24T19:39:20.027544,18.740585,-3.479164,-2.225325,-0.216246,-0.907745,-3.309667
2026-01-24T19:39:20.037544,18.491734,-3.091526,-1.789831,-0.359188,-0.785572,-3.139846
2026-01-24T19:39:20.046544,17.673388,-2.727817,-1.244267,-0.488692,-0.593760,-2.966360
2026-01-24T19:39:20.056544,16.486547,-2.297109,-1.244267,-0.610865,-0.361632,-2.787988
2026-01-24T19:39:20.066544,14.993426,-2.268395,-1.201196,-0.758694,-0.183259,-2.594954
2026-01-24T19:39:20.075544,13.184452,-2.177468,-0.909272,-0.838106,-0.101403,-2.410473
2026-01-24T19:39:20.085544,11.782258,-2.139183,-0.765703,-0.851545,-0.085521,-2.269974
2026-01-24T19:39:20.094544,10.576275,-2.120040,-1.196411,-0.856432,-0.078190,-2.138027
2026-01-24T19:39:20.104544,9.327222,-1.899901,-1.770688,-0.814894,-0.086742,-2.013411
2026-01-24T19:39:20.114544,8.394021,-1.339980,-1.823330,-0.806341,-0.197920,-1.935220
2026-01-24T19:39:20.123544,8.470592,-1.627119,-2.134397,-0.970053,-0.373849,-1.830151
2026-01-24T19:39:20.133544,8.796015,-2.464607,-2.282752,-1.039692,-0.464257,-1.725083
2026-01-24T19:39:20.143544,8.767302,-2.995813,-2.019542,-0.941954,-0.483805,-1.650557
2026-01-24T19:39:20.152544,8.590233,-3.426521,-1.713260,-0.778242,-0.442266,-1.573588
2026-01-24T19:39:20.162544,7.719245,-2.957528,-1.268195,-0.536339,-0.406836,-1.508836
2026-01-24T19:39:20.171544,7.436892,-2.703889,-1.134197,-0.365297,-0.432492,-1.464854
2026-01-24T19:39:20.181544,7.298108,-2.435893,-0.713061,-0.202807,-0.408057,-1.444085
2026-01-24T19:39:20.191544,6.666403,-1.545763,-0.071784,-0.003665,-0.294436,-1.462411
2026-01-24T19:39:20.200544,6.345765,-0.856630,-0.210568,0.025656,-0.245567,-1.450193
2026-01-24T19:39:20.210544,5.953342,-0.306281,-0.349352,-0.003665,-0.153938,-1.464854
2026-01-24T19:39:20.219544,5.388636,0.287138,-0.191425,-0.166155,-0.079412,-1.450193
2026-01-24T19:39:20.229544,5.053641,0.004785,-0.272781,-0.389731,-0.050090,-1.425759
2026-01-24T19:39:20.239544,4.685146,-0.138783,-0.129212,-0.571769,-0.028099,-1.390328
2026-01-24T19:39:20.248544,4.603790,-0.550349,-0.397208,-0.761137,-0.008552,-1.329242
2026-01-24T19:39:20.258544,4.359722,-0.961914,-0.157926,-0.899193,0.015882,-1.254716
2026-01-24T19:39:20.268544,4.220939,-1.086341,0.148355,-0.965166,0.035430,-1.172861
2026-01-24T19:39:20.277544,4.469792,-1.091127,0.071784,-0.999375,0.043982,-1.093448
2026-01-24T19:39:20.287544,4.761716,-0.837487,-0.033499,-1.038470,0.118507,-1.018923
2026-01-24T19:39:20.296544,4.756931,-0.789631,-0.234496,-1.132543,0.199142,-0.962723
2026-01-24T19:39:20.306544,4.771288,-1.062413,-0.440279,-1.233947,0.243124,-0.906523
2026-01-24T19:39:20.316544,4.819144,-1.239482,-0.473778,-1.246164,0.273667,-0.846659
2026-01-24T19:39:20.325544,4.776073,-1.038485,-0.354137,-1.224173,0.291993,-0.799011
2026-01-24T19:39:20.335544,4.919643,-1.124626,-0.320638,-1.263269,0.312762,-0.756251
2026-01-24T19:39:20.344544,4.857429,-1.411765,-0.344566,-1.297477,0.353080,-0.709825
2026-01-24T19:39:20.354544,4.862215,-1.603191,-0.267996,-1.269377,0.370184,-0.659734
2026-01-24T19:39:20.364544,5.154139,-1.737189,-0.421136,-1.236390,0.366519,-0.598647
2026-01-24T19:39:20.373544,5.474778,-1.737189,-0.593420,-1.213178,0.356745,-0.526565
2026-01-24T19:39:20.383544,5.919843,-1.469193,-0.698704,-1.161865,0.349414,-0.478918
2026-01-24T19:39:20.393544,6.364908,-1.397408,-0.693918,-1.163087,0.349414,-0.434935
2026-01-24T19:39:20.402544,6.704688,-1.569691,-0.813559,-1.189965,0.348193,-0.388510
2026-01-24T19:39:20.412544,7.044469,-1.832902,-0.780060,-1.170417,0.324980,-0.342084
2026-01-24T19:39:20.421544,7.513462,-1.875972,-0.607776,-1.089783,0.295658,-0.295658
2026-01-24T19:39:20.431544,7.905885,-1.636690,-0.445065,-0.984714,0.294436,-0.251676
2026-01-24T19:39:20.441544,8.102097,-1.325623,-0.397208,-0.911410,0.316428,-0.221133
2026-01-24T19:39:20.450544,8.126025,-0.981057,-0.373280,-0.908967,0.332310,-0.180816
2026-01-24T19:39:20.460544,8.207381,-1.057627,-0.358923,-0.924849,0.313984,-0.142942
2026-01-24T19:39:20.469544,8.551947,-1.100698,-0.296710,-0.910189,0.266337,-0.092851
2026-01-24T19:39:20.479544,8.925228,-1.186840,-0.287138,-0.868650,0.230907,-0.040317
2026-01-24T19:39:20.489544,9.288937,-1.167697,-0.301495,-0.810007,0.202807,0.001221
2026-01-24T19:39:20.498544,9.705288,-1.205982,-0.363709,-0.745255,0.160046,0.032986
2026-01-24T19:39:20.508544,10.226923,-1.406979,-0.559920,-0.656069,0.118507,0.052534
2026-01-24T19:39:20.518544,10.791629,-1.617548,-0.665204,-0.521678,0.078190,0.058643
2026-01-24T19:39:20.527544,11.294122,-1.737189,-0.492921,-0.361632,0.051312,0.058643
2026-01-24T19:39:20.537544,11.538190,-1.627119,-0.397208,-0.168598,0.061086,0.059864
2026-01-24T19:39:20.546544,11.495119,-1.354337,-0.282353,0.024434,0.094073,0.065973
2026-01-24T19:39:20.556544,11.011769,-0.837487,-0.191425,0.158824,0.133168,0.091629
2026-01-24T19:39:20.566544,10.269994,-0.334995,-0.023928,0.211359,0.147829,0.147829
2026-01-24T19:39:20.575544,9.370293,0.038285,0.200997,0.208915,0.142942,0.219911
2026-01-24T19:39:20.585544,8.518448,0.296710,0.406779,0.175929,0.117286,0.299323
2026-01-24T19:39:20.594544,7.886743,0.344566,0.550349,0.124616,0.047647,0.375071
2026-01-24T19:39:20.604544,7.834101,0.143569,0.727418,0.107512,-0.042760,0.443488
2026-01-24T19:39:20.614544,8.044669,0.172283,0.827916,0.155159,-0.096516,0.496022
2026-01-24T19:39:20.623544,8.279166,0.354137,0.851844,0.228463,-0.107512,0.521678
2026-01-24T19:39:20.633544,8.518448,0.641276,0.813559,0.263893,-0.100181,0.532674
2026-01-24T19:39:20.643544,8.762516,0.665204,0.856630,0.259006,-0.092851,0.532674
2026-01-24T19:39:20.652544,8.992227,0.684347,0.780060,0.270002,-0.074525,0.522900
2026-01-24T19:39:20.662544,9.169296,0.650847,0.602991,0.267558,-0.047647,0.513126
2026-01-24T19:39:20.671544,9.341579,0.579063,0.454636,0.239459,-0.025656,0.505796
2026-01-24T19:39:20.681544,9.504291,0.478564,0.354137,0.216246,-0.025656,0.497244
2026-01-24T19:39:20.691544,9.748359,0.334995,0.181854,0.222354,-0.047647,0.485026
2026-01-24T19:39:20.700544,10.265208,0.330209,0.014356,0.232128,-0.073303,0.475253
2026-01-24T19:39:20.710544,10.490134,0.392422,-0.019142,0.272445,-0.081855,0.460592
2026-01-24T19:39:20.719544,10.715059,0.698704,0.076570,0.329867,-0.081855,0.438601
2026-01-24T19:39:20.729544,10.700702,1.004985,0.028713,0.343306,-0.078190,0.412944
2026-01-24T19:39:20.739544,10.628917,1.091127,0.129212,0.326201,-0.085521,0.386066
2026-01-24T19:39:20.748544,10.533205,1.124626,0.253639,0.326201,-0.108733,0.359188
2026-01-24T19:39:20.758544,10.394421,1.272981,0.349352,0.364075,-0.130725,0.324980
2026-01-24T19:39:20.768544,10.241280,1.253839,0.421136,0.389731,-0.146607,0.294436
2026-01-24T19:39:20.777544,10.183852,1.191625,0.406779,0.399505,-0.162490,0.263893
2026-01-24T19:39:20.787544,10.068997,0.933200,0.512064,0.422718,-0.184481,0.234572
2026-01-24T19:39:20.796544,9.863214,0.837487,0.540777,0.478918,-0.211359,0.210137
2026-01-24T19:39:20.806544,9.824929,0.799202,0.559920,0.541226,-0.233350,0.190589
2026-01-24T19:39:20.816544,9.772287,0.689132,0.502492,0.596204,-0.251676,0.173485
2026-01-24T19:39:20.825544,9.777073,0.722632,0.449850,0.656069,-0.261450,0.158824
2026-01-24T19:39:20.835544,9.604789,0.866201,0.315852,0.718377,-0.256563,0.138055
2026-01-24T19:39:20.844544,9.375078,1.048056,0.339780,0.758694,-0.248011,0.109955
2026-01-24T19:39:20.854544,9.054440,1.100698,0.253639,0.755029,-0.248011,0.076969
2026-01-24T19:39:20.864544,8.762516,0.904486,0.263210,0.733038,-0.262671,0.041538
2026-01-24T19:39:20.873544,8.556733,0.607776,0.129212,0.726929,-0.291993,0.010995
2026-01-24T19:39:20.883544,8.647660,0.267996,0.272781,0.741590,-0.322536,-0.009773
2026-01-24T19:39:20.893544,8.791230,0.129212,0.363709,0.781907,-0.353080,-0.030543
2026-01-24T19:39:20.902544,9.020941,-0.066999,0.358923,0.818559,-0.351858,-0.045204
2026-01-24T19:39:20.912544,8.934799,-0.133998,0.406779,0.841772,-0.321315,-0.053756
2026-01-24T19:39:20.921544,8.733802,-0.325423,0.339780,0.852767,-0.305432,-0.062308
2026-01-24T19:39:20.931544,8.690731,-0.583848,0.406779,0.856432,-0.322536,-0.054977
2026-01-24T19:39:20.941544,8.958727,-0.851844,0.387637,0.891863,-0.342084,-0.040317
2026-01-24T19:39:20.950544,9.284151,-0.933200,0.267996,0.948062,-0.340862,-0.008552
2026-01-24T19:39:20.960544,9.418149,-1.038485,-0.071784,0.995710,-0.316428,0.028099
2026-01-24T19:39:20.969544,9.442077,-1.067198,-0.258424,1.025031,-0.300545,0.065973
2026-01-24T19:39:20.979544,9.418149,-1.201196,-0.387637,1.036027,-0.301767,0.120951
2026-01-24T19:39:20.989544,9.097511,-1.349551,-0.492921,1.061683,-0.285884,0.175929
2026-01-24T19:39:20.998544,8.475377,-1.349551,-0.468993,1.103222,-0.266337,0.213802
2026-01-24T19:39:21.008544,7.771887,-1.406979,-0.569491,1.137430,-0.270002,0.249232
2026-01-24T19:39:21.018544,7.207181,-1.373480,-0.387637,1.172861,-0.298102,0.287106
2026-01-24T19:39:21.027544,7.006184,-1.411765,-0.354137,1.227838,-0.337197,0.312762
2026-01-24T19:39:21.037544,6.857829,-1.311266,-0.411565,1.301142,-0.342084,0.333532
2026-01-24T19:39:21.046544,6.613761,-1.004985,-0.272781,1.378111,-0.313984,0.356745
2026-01-24T19:39:21.056544,6.259623,-0.914058,-0.349352,1.375668,-0.296880,0.384845
2026-01-24T19:39:21.066544,5.876772,-1.229910,-0.229710,1.315803,-0.265115,0.445931
2026-01-24T19:39:21.075544,5.532205,-1.540977,-0.076570,1.317025,-0.240680,0.511904
2026-01-24T19:39:21.085544,5.134997,-1.478764,0.047856,1.353677,-0.229685,0.593760
2026-01-24T19:39:21.094544,4.996213,-1.502692,0.148355,1.336572,-0.221133,0.693942
2026-01-24T19:39:21.104544,4.910071,-1.636690,0.133998,1.282816,-0.184481,0.803898
2026-01-24T19:39:21.114544,4.551148,-1.698904,0.081355,1.249830,-0.138055,0.928514
2026-01-24T19:39:21.123544,4.508077,-1.837687,-0.263210,1.222951,-0.124616,1.047022
2026-01-24T19:39:21.133544,4.709074,-1.847259,-0.382851,1.213178,-0.125838,1.183856
2026-01-24T19:39:21.143544,5.082355,-1.502692,-0.708275,1.209512,-0.125838,1.330464
2026-01-24T19:39:21.152544,5.359922,-0.808774,-0.875773,1.149648,-0.089186,1.461189
2026-01-24T19:39:21.162544,5.426921,-0.588634,-0.770488,0.977384,-0.054977,1.574810
2026-01-24T19:39:21.171544,5.493920,-0.832702,-0.808774,0.781907,-0.024434,1.679879
2026-01-24T19:39:21.181544,5.503491,-1.320838,-0.765703,0.665842,0.010995,1.762956
2026-01-24T19:39:21.191544,5.536991,-1.517049,-0.799202,0.625525,0.024434,1.835038
2026-01-24T19:39:21.200544,5.857629,-1.593619,-0.650847,0.609643,0.015882,1.897347
2026-01-24T19:39:21.210544,6.446264,-1.890329,-0.574277,0.564439,0.008552,1.948659
2026-01-24T19:39:21.219544,7.010970,-1.899901,-0.698704,0.569326,0.042760,1.990198
2026-01-24T19:39:21.229544,7.470392,-2.029113,-1.048056,0.459370,0.108733,2.043954
2026-01-24T19:39:21.239544,7.786244,-2.895315,-1.258624,0.276111,0.118507,2.133140
2026-01-24T19:39:21.248544,8.231309,-3.613162,-1.670190,0.304210,0.085521,2.179566
2026-01-24T19:39:21.258544,8.705088,-3.373879,-1.966900,0.543669,0.064751,2.175901
2026-01-24T19:39:21.268544,9.341579,-2.368894,-2.076970,0.667064,0.042760,2.197892
2026-01-24T19:39:21.277544,10.150353,-1.875972,-1.804188,0.558330,0.041538,2.267531
2026-01-24T19:39:21.287544,10.892128,-1.962114,-1.220339,0.316428,0.094073,2.372600
2026-01-24T19:39:21.296544,11.131410,-2.952743,-1.205982,0.079412,0.211359,2.480112
2026-01-24T19:39:21.306544,10.983055,-4.192225,-1.143769,-0.046425,0.302989,2.597398
2026-01-24T19:39:21.316544,10.992627,-5.268995,-0.894915,-0.056199,0.310319,2.739119
2026-01-24T19:39:21.325544,11.380264,-6.077769,-0.435493,0.089186,0.276111,2.878396
2026-01-24T19:39:21.335544,11.997612,-6.197410,-0.081355,0.309097,0.311541,3.009121
2026-01-24T19:39:21.344544,12.275179,-5.771488,-0.334995,0.488692,0.448374,3.136181
2026-01-24T19:39:21.354544,12.007183,-5.388636,-0.765703,0.527787,0.563217,3.270571
2026-01-24T19:39:21.364544,11.495119,-4.584648,-1.277767,0.561995,0.602312,3.356092
2026-01-24T19:39:21.373544,11.121839,-3.728017,-1.622333,0.487470,0.542448,3.397631
2026-01-24T19:39:21.383544,10.825129,-3.546163,-2.115255,0.301767,0.474031,3.397631
2026-01-24T19:39:21.393544,10.279565,-3.986442,-2.411965,0.168598,0.389731,3.359758
2026-01-24T19:39:21.402544,10.179067,-5.029713,-2.254038,-0.018325,0.265115,3.356092
2026-01-24T19:39:21.412544,10.169496,-6.513263,-1.933400,-0.013439,0.107512,3.331658
2026-01-24T19:39:21.421544,9.638289,-7.111468,-1.478764,0.282219,0.091629,3.303558
2026-01-24T19:39:21.431544,9.355936,-6.958328,-0.612562,0.708603,0.023212,3.209485
2026-01-24T19:39:21.441544,9.633503,-6.302694,0.143569,1.076344,-0.029321,3.136181
2026-01-24T19:39:21.450544,10.145567,-5.498706,0.760917,1.238834,-0.025656,3.082425
2026-01-24T19:39:21.460544,10.159924,-5.316851,0.741775,1.126435,0.030543,3.075094
2026-01-24T19:39:21.469544,9.466006,-6.077769,1.464407,0.747698,0.113620,3.115412
2026-01-24T19:39:21.479544,8.685946,-7.140182,1.933400,0.548556,0.131946,3.090977
2026-01-24T19:39:21.489544,8.231309,-7.144968,2.172682,0.703716,0.081855,3.014008
2026-01-24T19:39:21.498544,8.709874,-5.852844,3.134597,0.707381,0.002443,2.976134
2026-01-24T19:39:21.508544,9.370293,-5.781059,3.579662,0.255341,0.074525,3.003012
2026-01-24T19:39:21.518544,9.734002,-7.259823,3.737588,-0.206472,0.321315,2.985908
2026-01-24T19:39:21.527544,8.542376,-8.906085,3.335594,-0.227241,0.546113,2.849074
2026-01-24T19:39:21.537544,7.331608,-10.035497,3.546163,-0.053756,0.582765,2.723236
2026-01-24T19:39:21.546544,6.762116,-10.963913,3.847658,0.205250,0.503352,2.613280
2026-01-24T19:39:21.556544,6.479763,-11.006983,3.378665,0.720820,0.455705,2.464229
2026-01-24T19:39:21.566544,6.455835,-10.514062,3.153740,0.951727,0.408057,2.387260
2026-01-24T19:39:21.575544,6.278766,-10.911271,3.512663,0.945619,0.411723,2.356717
2026-01-24T19:39:21.585544,5.843272,-11.820543,3.134597,0.763581,0.437379,2.450790
2026-01-24T19:39:21.594544,5.637490,-13.380663,2.086541,0.602312,0.392175,2.541198
2026-01-24T19:39:21.604544,4.948357,-13.883156,1.483550,0.851545,0.377514,2.486221
2026-01-24T19:39:21.614544,4.292723,-12.763315,0.583848,1.337794,0.388510,2.403143
2026-01-24T19:39:21.623544,4.173082,-10.772487,-0.157926,1.666440,0.329867,2.316400
2026-01-24T19:39:21.633544,4.101297,-8.733802,-0.028713,1.794721,0.232128,2.149023
2026-01-24T19:39:21.643544,4.259224,-8.063812,0.669990,1.562592,0.149051,2.024406
2026-01-24T19:39:21.652544,4.364508,-9.174081,1.899901,1.120326,0.124616,1.946216
2026-01-24T19:39:21.662544,4.426721,-11.179267,3.005385,0.845437,0.153938,1.896125
2026-01-24T19:39:21.671544,4.579862,-13.189238,4.034298,0.620638,0.196698,1.916894
2026-01-24T19:39:21.681544,4.819144,-15.022140,4.034298,0.682947,0.287106,1.924225
2026-01-24T19:39:21.691544,4.752145,-14.921641,3.110669,1.237612,0.414166,1.847256
2026-01-24T19:39:21.700544,4.302295,-13.203595,2.009970,1.577253,0.508239,1.789834
2026-01-24T19:39:21.710544,3.689732,-12.098111,1.033699,1.433089,0.542448,1.734856
2026-01-24T19:39:21.719544,3.158525,-11.538190,0.717846,1.290147,0.509461,1.591914
2026-01-24T19:39:21.729544,2.756531,-11.050054,1.172483,1.108109,0.461814,1.469741
2026-01-24T19:39:21.739544,2.249253,-10.394421,1.641476,1.000597,0.437379,1.291368
2026-01-24T19:39:21.748544,1.756331,-9.934999,2.282752,0.846659,0.403170,1.100778
2026-01-24T19:39:21.758544,1.607976,-10.274780,3.359522,0.499687,0.360410,0.929736
2026-01-24T19:39:21.768544,1.483550,-11.700902,4.139583,0.219911,0.368962,0.708603
2026-01-24T19:39:21.777544,1.134197,-12.725030,4.608576,0.224798,0.415388,0.466700
2026-01-24T19:39:21.787544,0.646062,-12.705888,4.532006,0.401949,0.442266,0.175929
2026-01-24T19:39:21.796544,0.382851,-11.868400,4.158725,0.543669,0.438601,-0.128281
2026-01-24T19:39:21.806544,0.186640,-10.944770,3.522234,0.460592,0.422718,-0.444709
2026-01-24T19:39:21.816544,-0.215354,-10.743773,3.158525,0.146607,0.365297,-0.742811
2026-01-24T19:39:21.825544,-0.229710,-11.772687,2.708675,-0.267558,0.218689,-0.981049
2026-01-24T19:39:21.835544,0.301495,-13.758729,2.612962,-0.651182,0.019547,-1.136209
2026-01-24T19:39:21.844544,1.038485,-15.065211,2.732603,-0.723264,-0.164933,-1.273042
2026-01-24T19:39:21.854544,1.392622,-13.950155,2.952743,-0.122173,-0.240680,-1.549153
2026-01-24T19:39:21.864544,1.564905,-11.260623,2.857030,0.125838,-0.333532,-1.720196
2026-01-24T19:39:21.873544,1.698904,-10.336993,2.426322,-0.138055,-0.430049,-1.870468
2026-01-24T19:39:21.883544,1.933400,-9.939785,2.636890,-0.298102,-0.530230,-2.050063
2026-01-24T19:39:21.893544,2.191825,-8.997012,2.368894,-0.241902,-0.625525,-2.260200
2026-01-24T19:39:21.902544,2.378465,-7.523034,1.880758,-0.191811,-0.693942,-2.458121
2026-01-24T19:39:21.912544,2.751745,-6.326622,1.517049,-0.344527,-0.789237,-2.654819
2026-01-24T19:39:21.921544,3.412165,-6.465406,1.808973,-0.773355,-0.943175,-2.775771
2026-01-24T19:39:21.931544,4.924428,-8.451449,2.531606,-1.386663,-1.116661,-2.779436
2026-01-24T19:39:21.941544,6.905686,-11.097911,3.833301,-1.808160,-1.211956,-2.757445
2026-01-24T19:39:21.950544,8.480163,-13.811372,4.838287,-1.902233,-1.060461,-2.747671
2026-01-24T19:39:21.960544,8.920442,-15.199209,5.182853,-1.492954,-0.682947,-2.780657
2026-01-24T19:39:21.969544,7.872386,-14.251651,4.421936,-0.758694,-0.274889,-2.857626
2026-01-24T19:39:21.979544,6.125625,-11.117053,2.952743,-0.084299,-0.047647,-2.981021
2026-01-24T19:39:21.989544,4.718646,-6.987041,0.918843,0.634077,-0.017104,-3.307223
2026-01-24T19:39:21.998544,4.527220,-3.192025,-0.406779,0.425162,-0.326201,-3.371975
2026-01-24T19:39:22.008544,5.771488,-2.459821,-0.387637,-0.568104,-0.723264,-3.284010
2026-01-24T19:39:22.018544,7.484749,-3.948157,0.210568,-1.474628,-0.962723,-3.236363
2026-01-24T19:39:22.027544,8.556733,-6.178267,1.019342,-2.026850,-0.970053,-3.231476
2026-01-24T19:39:22.037544,8.953942,-8.432306,1.119840,-2.204001,-0.862541,-3.244915
2026-01-24T19:39:22.046544,9.059226,-9.949356,1.225125,-2.084271,-0.778242,-3.248580
2026-01-24T19:39:22.056544,8.882157,-10.155139,1.488335,-1.701870,-0.715933,-3.292562
2026-01-24T19:39:22.066544,8.796015,-9.365507,1.287338,-1.318246,-0.674395,-3.348762
2026-01-24T19:39:22.075544,8.618947,-8.207381,0.583848,-1.102000,-0.634077,-3.391523
2026-01-24T19:39:22.085544,8.422735,-6.762116,0.449850,-1.060461,-0.643851,-3.430618
2026-01-24T19:39:22.094544,8.551947,-6.092126,0.320638,-1.125213,-0.690277,-3.483152
2026-01-24T19:39:22.104544,9.040083,-6.130411,-0.052642,-1.264490,-0.772133,-3.500257
2026-01-24T19:39:22.114544,9.389435,-6.484549,-0.832702,-1.308473,-0.823446,-3.500257
2026-01-24T19:39:22.123544,9.805787,-6.690331,-1.301695,-1.237612,-0.912632,-3.545461
2026-01-24T19:39:22.133544,10.499705,-6.719045,-1.354337,-1.191186,-1.060461,-3.578447
2026-01-24T19:39:22.143544,11.729616,-7.077969,-1.244267,-1.177747,-1.203404,-3.594330
2026-01-24T19:39:22.152544,12.997812,-7.365107,-1.177268,-1.049466,-1.277929,-3.600438
2026-01-24T19:39:22.162544,13.993226,-7.202396,-1.052841,-0.807563,-1.255938,-3.604104
2026-01-24T19:39:22.171544,14.538790,-6.230910,-1.268195,-0.557108,-1.209512,-3.601660
2026-01-24T19:39:22.181544,15.170495,-5.312066,-1.430907,-0.454483,-1.241277,-3.610212
2026-01-24T19:39:22.191544,15.854842,-4.819144,-1.239482,-0.544891,-1.230282,-3.576004
2026-01-24T19:39:22.200544,16.208981,-4.881358,-1.062413,-0.681725,-1.134987,-3.502700
2026-01-24T19:39:22.210544,16.156338,-4.924428,-1.009771,-0.709825,-0.996931,-3.409849
2026-01-24T19:39:22.219544,15.739987,-4.847858,-1.316052,-0.668286,-0.877202,-3.295006
2026-01-24T19:39:22.229544,15.414563,-4.737788,-1.560120,-0.619417,-0.839328,-3.158172
2026-01-24T19:39:22.239544,15.491133,-4.508077,-1.502692,-0.541226,-0.882089,-3.018895
2026-01-24T19:39:22.248544,15.878770,-3.847658,-1.043270,-0.447153,-0.885754,-2.869844
2026-01-24T19:39:22.258544,15.917055,-3.311666,-1.172483,-0.403170,-0.801455,-2.755001
2026-01-24T19:39:22.268544,15.414563,-2.790031,-1.095912,-0.360410,-0.651182,-2.652376
2026-01-24T19:39:22.277544,14.390435,-2.498106,-1.115055,-0.348193,-0.508239,-2.513099
2026-01-24T19:39:22.287544,13.404592,-2.411965,-1.588834,-0.272445,-0.403170,-2.364047
2026-01-24T19:39:22.296544,12.059825,-2.139183,-1.813759,-0.233350,-0.300545,-2.122145
2026-01-24T19:39:22.306544,10.499705,-2.014756,-2.139183,-0.250454,-0.272445,-1.914451
2026-01-24T19:39:22.316544,9.164510,-1.569691,-2.029113,-0.152716,-0.311541,-1.769065
2026-01-24T19:39:22.325544,8.288737,-1.081555,-2.096112,-0.101403,-0.404392,-1.624901
2026-01-24T19:39:22.335544,7.532605,-0.770488,-1.598405,-0.081855,-0.496022,-1.500284
2026-01-24T19:39:22.344544,7.058826,-0.334995,-1.177268,-0.047647,-0.582765,-1.418428
2026-01-24T19:39:22.354544,7.197610,-0.071784,-1.215553,-0.083077,-0.608421,-1.346346
2026-01-24T19:39:22.364544,7.259823,-0.334995,-1.186840,-0.150272,-0.558330,-1.280373
2026-01-24T19:39:22.373544,6.838686,-0.531206,-0.617348,-0.127059,-0.438601,-1.247386
2026-01-24T19:39:22.383544,6.297909,-0.641276,-0.559920,-0.079412,-0.340862,-1.229060
2026-01-24T19:39:22.393544,5.426921,-0.047856,-0.588634,0.028099,-0.243124,-1.203404
2026-01-24T19:39:22.402544,4.780859,0.598205,-0.406779,-0.021991,-0.254119,-1.164308
2026-01-24T19:39:22.412544,5.178068,0.129212,-0.717846,-0.169820,-0.339641,-1.141096
2026-01-24T19:39:22.421544,5.436492,0.210568,-0.086141,-0.213802,-0.328645,-1.115439
2026-01-24T19:39:22.431544,5.560919,0.473778,-0.033499,-0.359188,-0.184481,-1.077566
2026-01-24T19:39:22.441544,5.709274,-0.253639,-0.272781,-0.505796,-0.096516,-1.099557
2026-01-24T19:39:22.450544,5.283352,-0.272781,0.344566,-0.535117,0.015882,-1.080009
2026-01-24T19:39:22.460544,5.249852,-0.220139,0.196211,-0.668286,0.029321,-1.000597
2026-01-24T19:39:22.469544,5.613561,-0.023928,0.478564,-0.785572,0.043982,-0.940732
2026-01-24T19:39:22.479544,6.096911,-0.942772,0.378065,-1.065348,0.211359,-0.846659
2026-01-24T19:39:22.489544,5.828915,-1.727617,-0.205782,-1.072679,0.415388,-0.802676
2026-01-24T19:39:22.498544,4.929214,-1.349551,-0.263210,-0.943175,0.526565,-0.759916
2026-01-24T19:39:22.508544,4.503292,-1.004985,-0.631705,-0.935845,0.519235,-0.712268
2026-01-24T19:39:22.518544,4.465006,-0.636490,-0.440279,-1.020144,0.465479,-0.646295
2026-01-24T19:39:22.527544,4.780859,-0.784845,-0.248853,-1.176526,0.422718,-0.581543
2026-01-24T19:39:22.537544,5.278566,-1.081555,-0.177068,-1.275486,0.450818,-0.503352
2026-01-24T19:39:22.546544,5.417350,-0.918843,-0.071784,-1.314581,0.516791,-0.426383
2026-01-24T19:39:22.556544,5.474778,-0.937986,-0.220139,-1.414763,0.569326,-0.350636
2026-01-24T19:39:22.566544,5.527420,-1.115055,-0.272781,-1.525941,0.601091,-0.285884
2026-01-24T19:39:22.575544,5.709274,-1.488335,-0.239282,-1.572366,0.613308,-0.227241
2026-01-24T19:39:22.585544,5.910271,-1.727617,-0.291924,-1.528384,0.615752,-0.177150
2026-01-24T19:39:22.594544,6.216553,-1.713260,-0.622133,-1.457524,0.620638,-0.124616
2026-01-24T19:39:22.604544,6.565905,-1.555334,-0.713061,-1.376889,0.612086,-0.091629
2026-01-24T19:39:22.614544,6.800401,-1.454836,-0.727418,-1.313359,0.581543,-0.063529
2026-01-24T19:39:22.623544,7.092326,-1.335195,-0.741775,-1.248608,0.557108,-0.036651
2026-01-24T19:39:22.633544,7.436892,-1.153340,-0.727418,-1.180191,0.533896,-0.008552
2026-01-24T19:39:22.643544,7.613961,-0.823130,-0.784845,-1.097113,0.529009,0.002443
2026-01-24T19:39:22.652544,7.714460,-0.492921,-0.880558,-1.073900,0.518013,0.006108
2026-01-24T19:39:22.662544,7.829315,-0.535992,-0.947557,-1.104444,0.485026,0.006108
2026-01-24T19:39:22.671544,8.274380,-0.937986,-1.129412,-1.108109,0.415388,0.006108
2026-01-24T19:39:22.681544,8.877371,-1.330409,-1.301695,-1.076344,0.326201,0.014660
2026-01-24T19:39:22.691544,9.767501,-1.689332,-1.454836,-0.990823,0.255341,0.021991
2026-01-24T19:39:22.700544,10.509276,-1.885544,-1.579262,-0.860098,0.212581,0.019547
2026-01-24T19:39:22.710544,11.035697,-2.076970,-1.775474,-0.719599,0.205250,0.017104
2026-01-24T19:39:22.719544,11.011769,-2.096112,-1.684547,-0.519235,0.218689,0.010995
2026-01-24T19:39:22.729544,10.533205,-1.804188,-1.320838,-0.278554,0.212581,0.010995
2026-01-24T19:39:22.739544,9.791430,-1.086341,-0.899701,-0.065973,0.183259,0.020769
2026-01-24T19:39:22.748544,9.159724,-0.334995,-0.473778,0.069638,0.136833,0.032986
2026-01-24T19:39:22.758544,8.714659,0.129212,-0.138783,0.120951,0.086742,0.052534
2026-01-24T19:39:22.768544,8.437092,0.358923,-0.066999,0.135612,0.045204,0.075747
2026-01-24T19:39:22.777544,8.293523,0.464207,0.033499,0.119729,0.012217,0.102625
2026-01-24T19:39:22.787544,8.212167,0.296710,0.086141,0.096516,-0.024434,0.135612
2026-01-24T19:39:22.796544,8.236095,0.181854,0.191425,0.096516,-0.059864,0.177150
2026-01-24T19:39:22.806544,8.451449,0.181854,0.100498,0.122173,-0.089186,0.216246
2026-01-24T19:39:22.816544,8.705088,0.430708,0.124426,0.147829,-0.098960,0.254119
2026-01-24T19:39:22.825544,8.968299,0.535992,-0.153140,0.141720,-0.103847,0.285884
2026-01-24T19:39:22.835544,9.164510,0.660419,-0.253639,0.114842,-0.103847,0.307876
2026-01-24T19:39:22.844544,9.193224,0.727418,-0.296710,0.067195,-0.118507,0.321315
2026-01-24T19:39:22.854544,9.351150,0.622133,-0.449850,0.019547,-0.140498,0.320093
2026-01-24T19:39:22.864544,9.600004,0.488135,-0.440279,-0.013439,-0.174707,0.312762
2026-01-24T19:39:22.873544,9.901499,0.229710,-0.315852,-0.014660,-0.213802,0.305432
2026-01-24T19:39:22.883544,10.255637,0.114855,-0.215354,0.036651,-0.233350,0.295658
2026-01-24T19:39:22.893544,10.432706,0.258424,-0.066999,0.102625,-0.229685,0.288328
2026-01-24T19:39:22.902544,10.499705,0.354137,-0.033499,0.135612,-0.222354,0.283441
2026-01-24T19:39:22.912544,10.341779,0.531206,0.133998,0.160046,-0.210137,0.277332
2026-01-24T19:39:22.921544,10.217352,0.535992,0.315852,0.182037,-0.207694,0.265115
2026-01-24T19:39:22.931544,10.064211,0.502492,0.349352,0.201585,-0.201585,0.256563
2026-01-24T19:39:22.941544,9.911071,0.421136,0.411565,0.260228,-0.202807,0.246789
2026-01-24T19:39:22.950544,9.872786,0.435493,0.454636,0.354301,-0.219911,0.234572
2026-01-24T19:39:22.960544,9.896714,0.684347,0.483350,0.447153,-0.238237,0.219911
2026-01-24T19:39:22.969544,9.829715,0.914058,0.378065,0.522900,-0.240680,0.200363
2026-01-24T19:39:22.979544,9.834500,1.038485,0.363709,0.568104,-0.244346,0.182037
2026-01-24T19:39:22.989544,9.805787,1.110269,0.483350,0.599869,-0.250454,0.163711
2026-01-24T19:39:22.998544,9.848857,1.215553,0.421136,0.618195,-0.257785,0.150272
2026-01-24T19:39:23.008544,10.011569,1.162911,0.358923,0.632856,-0.252898,0.146607
2026-01-24T19:39:23.018544,10.064211,1.330409,0.287138,0.656069,-0.248011,0.142942
2026-01-24T19:39:23.027544,10.083354,1.296909,0.191425,0.626747,-0.237015,0.146607
2026-01-24T19:39:23.037544,10.049854,1.244267,0.095712,0.576656,-0.223576,0.158824
2026-01-24T19:39:23.046544,9.992427,1.119840,-0.009571,0.542448,-0.210137,0.179594
2026-01-24T19:39:23.056544,9.858429,1.038485,0.033499,0.513126,-0.202807,0.191811
2026-01-24T19:39:23.066544,9.633503,0.985842,-0.043070,0.477696,-0.194255,0.206472
2026-01-24T19:39:23.075544,9.470791,0.703489,0.076570,0.427605,-0.201585,0.212581
2026-01-24T19:39:23.085544,9.427721,0.277567,0.196211,0.401949,-0.221133,0.218689
2026-01-24T19:39:23.094544,9.791430,-0.009571,0.224925,0.459370,-0.267558,0.221133
2026-01-24T19:39:23.104544,10.423135,0.028713,0.095712,0.544891,-0.270002,0.226020
2026-01-24T19:39:23.114544,10.590632,0.153140,-0.009571,0.572991,-0.197920,0.244346
2026-01-24T19:39:23.123544,10.212566,0.177068,-0.062213,0.548556,-0.117286,0.267558
2026-01-24T19:39:23.133544,9.609575,0.205782,-0.215354,0.530230,-0.079412,0.282219
2026-01-24T19:39:23.143544,8.944370,0.081355,-0.325423,0.499687,-0.092851,0.300545
2026-01-24T19:39:23.152544,8.484948,-0.076570,-0.435493,0.480139,-0.144164,0.309097
2026-01-24T19:39:23.162544,8.159525,-0.440279,-0.354137,0.477696,-0.212581,0.302989
2026-01-24T19:39:23.171544,7.829315,-0.904486,-0.177068,0.515570,-0.267558,0.280997
2026-01-24T19:39:23.181544,7.513462,-1.229910,0.028713,0.620638,-0.313984,0.237015
2026-01-24T19:39:23.191544,7.288537,-1.670190,0.153140,0.741590,-0.371405,0.185702
2026-01-24T19:39:23.200544,7.384250,-2.048256,0.358923,0.899193,-0.437379,0.134390
2026-01-24T19:39:23.210544,7.872386,-2.167897,0.459421,1.083674,-0.488692,0.096516
2026-01-24T19:39:23.219544,8.571090,-2.120040,0.540777,1.270599,-0.483805,0.064751
2026-01-24T19:39:23.229544,9.183653,-1.785045,0.430708,1.444085,-0.417831,0.036651
2026-01-24T19:39:23.239544,9.504291,-1.225125,0.023928,1.552819,-0.316428,0.023212
2026-01-24T19:39:23.248544,9.245866,-0.526420,-0.449850,1.532049,-0.195476,0.031764
2026-01-24T19:39:23.258544,8.456235,-0.244067,-0.660419,1.402546,-0.096516,0.069638
2026-01-24T19:39:23.268544,7.503891,-0.162711,-0.904486,1.241277,-0.068416,0.116064
2026-01-24T19:39:23.277544,6.656832,-0.311066,-0.780060,1.099557,-0.101403,0.175929
2026-01-24T19:39:23.287544,6.163911,-0.531206,-0.770488,0.989601,-0.171042,0.234572
2026-01-24T19:39:23.296544,5.737988,-0.641276,-0.679561,0.956614,-0.230907,0.293215
2026-01-24T19:39:23.306544,5.369493,-0.832702,-0.598205,0.951727,-0.266337,0.349414
2026-01-24T19:39:23.316544,4.967499,-1.028913,-0.339780,0.939510,-0.299323,0.408057
2026-01-24T19:39:23.325544,4.934000,-1.320838,-0.205782,0.959058,-0.346971,0.469144
2026-01-24T19:39:23.335544,5.082355,-1.493121,0.076570,1.073900,-0.344527,0.518013
2026-01-24T19:39:23.344544,5.297709,-1.344766,0.076570,1.231504,-0.307876,0.546113
2026-01-24T19:39:23.354544,5.556134,-1.100698,-0.330209,1.331685,-0.238237,0.587652
2026-01-24T19:39:23.364544,5.469992,-0.378065,-0.449850,1.368337,-0.135612,0.631634
2026-01-24T19:39:23.373544,5.388636,0.100498,-0.832702,1.229060,-0.075747,0.668286
2026-01-24T19:39:23.383544,5.446064,-0.229710,-1.115055,0.949284,-0.026878,0.737925
2026-01-24T19:39:23.393544,5.417350,-0.885344,-1.402194,0.767246,0.008552,0.818559
2026-01-24T19:39:23.402544,5.316851,-1.000199,-1.646261,0.715933,0.019547,0.902858
2026-01-24T19:39:23.412544,5.460421,-1.325623,-1.947757,0.625525,-0.030543,1.033583
2026-01-24T19:39:23.421544,5.742774,-1.339980,-1.426122,0.654847,-0.040317,1.086118
2026-01-24T19:39:23.431544,5.848058,-0.928415,-1.383051,0.627969,0.023212,1.181413
2026-01-24T19:39:23.441544,5.594419,-0.732203,-1.124626,0.499687,0.073303,1.302364
2026-01-24T19:39:23.450544,6.063412,-1.478764,-1.473978,0.263893,-0.006108,1.463632
2026-01-24T19:39:23.460544,6.939185,-2.230110,-0.890130,0.189368,-0.074525,1.601688
2026-01-24T19:39:23.469544,7.743173,-2.158325,-1.416550,0.357966,-0.030543,1.683544
2026-01-24T19:39:23.479544,7.613961,-1.124626,-1.430907,0.332310,0.074525,1.817934
2026-01-24T19:39:23.489544,7.771887,-2.187039,-2.048256,0.079412,0.042760,1.898568
2026-01-24T19:39:23.498544,7.953742,-2.919243,-2.067398,0.130725,-0.008552,1.926668
2026-01-24T19:39:23.508544,8.039883,-2.617747,-1.670190,0.223576,-0.061086,1.988976
2026-01-24T19:39:23.518544,8.379664,-3.024527,-1.823330,0.113620,-0.086742,2.096489
2026-01-24T19:39:23.527544,8.494520,-3.943371,-1.698904,0.024434,-0.114842,2.190562
2026-01-24T19:39:23.537544,8.863014,-4.756931,-1.555334,0.089186,-0.152716,2.276083
2026-01-24T19:39:23.546544,9.255437,-5.398207,-1.502692,0.239459,-0.167377,2.376265
2026-01-24T19:39:23.556544,9.724431,-5.785845,-1.473978,0.395840,-0.188146,2.476447
2026-01-24T19:39:23.566544,10.494919,-6.001199,-1.430907,0.521678,-0.191811,2.576629
2026-01-24T19:39:23.575544,11.260623,-6.436692,-1.435693,0.568104,-0.161268,2.689028
2026-01-24T19:39:23.585544,11.787044,-7.058826,-1.512263,0.615752,-0.097738,2.813644
2026-01-24T19:39:23.594544,12.165110,-7.475177,-1.660618,0.806341,-0.032986,2.921156
2026-01-24T19:39:23.604544,12.595818,-7.111468,-1.440479,1.025031,0.019547,3.042108
2026-01-24T19:39:23.614544,12.677174,-6.522834,-1.215553,1.102000,0.117286,3.191159
2026-01-24T19:39:23.623544,12.294322,-6.278766,-1.162911,1.001818,0.221133,3.369531
2026-01-24T19:39:23.633544,11.925827,-5.690132,-0.689132,1.259603,0.270002,3.337766
2026-01-24T19:39:23.643544,11.710473,-4.259224,-0.334995,1.561371,0.289550,3.303558
2026-01-24T19:39:23.652544,11.787044,-3.402593,-0.220139,1.453858,0.315206,3.329214
2026-01-24T19:39:23.662544,11.787044,-3.416950,0.186640,1.211956,0.414166,3.319441
2026-01-24T19:39:23.671544,11.619546,-3.723231,0.205782,1.083674,0.508239,3.255911
2026-01-24T19:39:23.681544,11.365907,-3.326023,1.091127,0.917519,0.544891,3.219259
2026-01-24T19:39:23.691544,10.916056,-3.838087,2.263610,0.780685,0.609643,3.092199
2026-01-24T19:39:23.700544,10.561918,-4.369294,2.115255,0.700051,0.676838,2.976134
2026-01-24T19:39:23.710544,10.671988,-4.153940,2.612962,0.740368,0.689055,2.840522
2026-01-24T19:39:23.719544,10.906485,-4.134797,2.105683,0.779463,0.761137,2.701245
2026-01-24T19:39:23.729544,10.518848,-4.436293,1.540977,0.602312,0.819780,2.651154
2026-01-24T19:39:23.739544,10.614561,-5.182853,1.052841,0.362853,0.790459,2.734232
2026-01-24T19:39:23.748544,11.011769,-5.982056,0.373280,0.124616,0.682947,2.818531
2026-01-24T19:39:23.758544,11.069197,-7.235895,0.334995,-0.124616,0.645073,2.814866
2026-01-24T19:39:23.768544,11.050054,-8.355736,0.722632,-0.255341,0.623082,2.776992
2026-01-24T19:39:23.777544,10.600204,-8.910871,0.124426,-0.188146,0.653625,2.712241
2026-01-24T19:39:23.787544,9.494720,-8.906085,-0.363709,-0.052534,0.651182,2.624276
2026-01-24T19:39:23.796544,8.370093,-9.145367,-0.856630,-0.167377,0.551000,2.601063
2026-01-24T19:39:23.806544,7.877171,-9.944570,-0.588634,-0.331088,0.379958,2.588846
2026-01-24T19:39:23.816544,7.264609,-10.829915,-0.928415,-0.337197,0.238237,2.571742
2026-01-24T19:39:23.825544,6.867400,-11.073982,-0.794417,-0.156381,0.090408,2.527759
2026-01-24T19:39:23.835544,6.307480,-10.614561,-0.693918,0.109955,0.003665,2.494773
2026-01-24T19:39:23.844544,5.469992,-9.676574,-0.416351,0.278554,-0.020769,2.486221
2026-01-24T19:39:23.854544,4.886143,-8.394021,-0.038285,0.323758,0.012217,2.430021
2026-01-24T19:39:23.864544,4.130011,-5.642275,2.072184,0.679282,0.155159,2.152688
2026-01-24T19:39:23.873544,2.196611,-7.618747,-0.263210,-0.177150,0.331088,2.206444
2026-01-24T19:39:23.883544,1.564905,-10.810772,0.047856,-0.592539,0.153938,2.127032
2026-01-24T19:39:23.893544,1.808973,-13.261022,0.301495,-0.478918,-0.042760,2.062280
2026-01-24T19:39:23.902544,2.431107,-14.854642,0.153140,-0.108733,-0.174707,2.058615
2026-01-24T19:39:23.912544,4.048655,-14.141581,1.670190,0.679282,-0.316428,1.957211
2026-01-24T19:39:23.921544,5.709274,-11.758330,1.875972,1.287703,-0.300545,1.903455
2026-01-24T19:39:23.931544,6.479763,-7.680960,2.775674,1.773952,-0.028099,1.700648
2026-01-24T19:39:23.941544,5.259424,-3.905086,3.373879,1.728748,0.266337,1.576031
2026-01-24T19:39:23.950544,2.785245,-7.259823,1.038485,0.178372,0.504574,1.742187
2026-01-24T19:39:23.960544,1.363908,-12.145967,1.129412,-0.604756,0.384845,1.747074
2026-01-24T19:39:23.969544,0.497707,-14.620146,0.875773,-0.263893,0.239459,1.711644
2026-01-24T19:39:23.979544,0.406779,-14.266008,-0.119641,0.472809,0.032986,1.648114
2026-01-24T19:39:23.989544,1.435693,-12.782458,-1.009771,0.864984,-0.226020,1.549153
2026-01-24T19:39:23.998544,2.536391,-12.447463,-1.014556,0.742811,-0.333532,1.446528
2026-01-24T19:39:24.008544,2.766102,-12.457034,-0.363709,0.769690,-0.332310,1.271821
2026-01-24T19:39:24.018544,2.842673,-12.083754,0.334995,0.827111,-0.361632,1.105665
2026-01-24T19:39:24.027544,3.919443,-12.543176,2.110469,0.681725,-0.438601,0.930958
2026-01-24T19:39:24.037544,5.225924,-13.926227,3.833301,0.504574,-0.377514,0.751364
2026-01-24T19:39:24.046544,5.661418,-14.825928,4.474578,0.509461,-0.140498,0.558330
2026-01-24T19:39:24.056544,4.900500,-14.639288,3.871586,0.557108,0.112399,0.364075
2026-01-24T19:39:24.066544,3.627519,-14.055439,2.091326,0.531452,0.284663,0.140498
2026-01-24T19:39:24.075544,2.282752,-13.069597,0.052642,0.445931,0.305432,-0.116064
2026-01-24T19:39:24.085544,1.335195,-12.351750,-1.043270,0.162490,0.197920,-0.373849
2026-01-24T19:39:24.094544,0.727418,-12.902099,-1.607976,-0.213802,0.042760,-0.602312
2026-01-24T19:39:24.104544,0.406779,-13.763515,-1.493121,-0.434935,-0.147829,-0.797789
2026-01-24T19:39:24.114544,0.669990,-14.371292,-0.789631,-0.510683,-0.375071,-0.943175
2026-01-24T19:39:24.123544,1.426122,-14.237294,-0.038285,-0.464257,-0.560774,-1.060461
2026-01-24T19:39:24.133544,2.292324,-14.079368,0.502492,-0.520457,-0.630412,-1.136209
2026-01-24T19:39:24.143544,2.790031,-14.026726,1.253839,-0.574213,-0.640186,-1.215621
2026-01-24T19:39:24.152544,3.153740,-13.189238,1.871187,-0.504574,-0.625525,-1.292590
2026-01-24T19:39:24.162544,3.369094,-11.480762,2.029113,-0.376292,-0.561995,-1.390328
2026-01-24T19:39:24.171544,3.158525,-9.772287,1.205982,-0.354301,-0.478918,-1.501506
2026-01-24T19:39:24.181544,3.043670,-8.283951,0.803988,-0.561995,-0.465479,-1.582140
2026-01-24T19:39:24.191544,3.287738,-7.944171,0.526420,-0.935845,-0.520457,-1.673770
2026-01-24T19:39:24.200544,3.622733,-8.116454,0.234496,-1.204625,-0.569326,-1.808160
2026-01-24T19:39:24.210544,3.890729,-8.470592,0.296710,-1.395215,-0.592539,-1.921781
2026-01-24T19:39:24.219544,4.130011,-8.796015,0.000000,-1.447750,-0.582765,-2.050063
2026-01-24T19:39:24.229544,4.120440,-9.068797,-0.110069,-1.475850,-0.555887,-2.150245
2026-01-24T19:39:24.239544,4.374079,-9.901499,0.449850,-1.611462,-0.529009,-2.174679
2026-01-24T19:39:24.248544,4.723431,-10.949556,1.205982,-1.650557,-0.461814,-2.169792
2026-01-24T19:39:24.258544,5.130211,-11.729616,2.033899,-1.507615,-0.340862,-2.147801
2026-01-24T19:39:24.268544,5.268995,-12.088539,2.086541,-1.328020,-0.172263,-2.087936
2026-01-24T19:39:24.277544,5.020141,-12.102896,1.641476,-1.104444,0.017104,-2.058615
2026-01-24T19:39:24.287544,4.488935,-10.987841,1.095912,-0.768468,0.133168,-2.097710
2026-01-24T19:39:24.296544,4.354937,-9.269794,0.708275,-0.441044,0.122173,-2.197892
2026-01-24T19:39:24.306544,4.943571,-7.676174,0.564706,-0.329867,0.034208,-2.302961
2026-01-24T19:39:24.316544,5.943771,-6.355336,0.780060,-0.427605,-0.018325,-2.406808
2026-01-24T19:39:24.325544,7.025327,-5.833701,0.971485,-0.679282,0.010995,-2.483777
2026-01-24T19:39:24.335544,7.441678,-5.953342,0.823130,-0.996931,0.131946,-2.549750
2026-01-24T19:39:24.344544,7.293323,-6.857829,0.267996,-1.307251,0.266337,-2.603507
2026-01-24T19:39:24.354544,6.829115,-8.020741,-0.148355,-1.543045,0.329867,-2.625498
2026-01-24T19:39:24.364544,6.589833,-9.188438,-0.454636,-1.590692,0.307876,-2.648711
2026-01-24T19:39:24.373544,6.685546,-9.729216,-0.526420,-1.456302,0.229685,-2.687806
2026-01-24T19:39:24.383544,7.125825,-9.930213,-0.454636,-1.247386,0.128281,-2.734232
2026-01-24T19:39:24.393544,7.977670,-9.719645,-0.401994,-1.004262,0.034208,-2.787988
2026-01-24T19:39:24.402544,9.068797,-9.351150,-0.258424,-0.740368,0.001221,-2.879618
2026-01-24T19:39:24.412544,10.083354,-8.910871,-0.191425,-0.464257,0.004886,-3.011564
2026-01-24T19:39:24.421544,11.121839,-8.106882,-0.220139,-0.180816,0.020769,-3.145955
2026-01-24T19:39:24.431544,12.083754,-7.159325,-0.119641,0.029321,0.065973,-3.265684
2026-01-24T19:39:24.441544,12.461820,-6.436692,-0.588634,0.169820,0.145385,-3.387857
2026-01-24T19:39:24.450544,12.452248,-5.991627,-1.373480,0.244346,0.193033,-3.479487
2026-01-24T19:39:24.460544,12.189038,-5.556134,-1.741974,0.234572,0.158824,-3.513696
2026-01-24T19:39:24.469544,11.849257,-5.584847,-1.818545,0.262671,0.063529,-3.528356
2026-01-24T19:39:24.479544,11.796615,-5.407779,-2.029113,0.412944,-0.086742,-3.560121
2026-01-24T19:39:24.489544,12.016755,-4.278366,-2.900100,0.849102,-0.290771,-3.684738
2026-01-24T19:39:24.498544,13.150953,-2.230110,-3.555734,0.922406,-0.599869,-3.716503
2026-01-24T19:39:24.508544,14.447862,-1.890329,-3.761517,0.491135,-0.763581,-3.639534
2026-01-24T19:39:24.518544,15.381063,-2.459821,-3.488735,0.142942,-0.831998,-3.573560
2026-01-24T19:39:24.527544,16.094124,-2.541177,-3.101098,-0.117286,-0.866206,-3.422066
2026-01-24T19:39:24.537544,16.596617,-2.426322,-2.766102,-0.332310,-0.866206,-3.236363
2026-01-24T19:39:24.546544,16.663616,-2.215753,-2.105683,-0.432492,-0.852767,-3.094642
2026-01-24T19:39:24.556544,16.405191,-2.105683,-1.804188,-0.665842,-0.773355,-2.861292
2026-01-24T19:39:24.566544,15.797414,-2.330609,-0.660419,-0.987158,-0.669508,-2.624276
2026-01-24T19:39:24.575544,15.012568,-2.699103,-0.066999,-1.039692,-0.508239,-2.470338
2026-01-24T19:39:24.585544,13.749158,-3.019742,0.378065,-0.824667,-0.328645,-2.383595
2026-01-24T19:39:24.594544,12.217752,-2.679961,0.373280,-0.692721,-0.173485,-2.240653
2026-01-24T19:39:24.604544,10.825129,-2.100898,0.516849,-0.559552,-0.058643,-2.135584
2026-01-24T19:39:24.614544,9.250652,-1.344766,0.138783,-0.522900,0.053756,-1.998750
2026-01-24T19:39:24.623544,7.838886,-1.014556,-0.531206,-0.592539,0.089186,-1.875355
2026-01-24T19:39:24.633544,6.958328,-1.225125,-1.249053,-0.740368,0.025656,-1.756848
2026-01-24T19:39:24.643544,6.747759,-1.756331,-1.627119,-0.842993,-0.063529,-1.659109
2026-01-24T19:39:24.652544,6.647261,-2.249253,-1.660618,-0.869871,-0.112399,-1.602910
2026-01-24T19:39:24.662544,6.350551,-3.081955,-2.091326,-0.828333,-0.105068,-1.508836
2026-01-24T19:39:24.671544,5.608776,-2.713460,-1.847259,-0.652403,-0.161268,-1.429424
2026-01-24T19:39:24.681544,5.599204,-2.316252,-1.564905,-0.598647,-0.344527,-1.331685
2026-01-24T19:39:24.691544,6.580262,-3.316452,-1.052841,-0.659734,-0.427605,-1.265712
2026-01-24T19:39:24.700544,7.202396,-4.163511,-0.655633,-0.460592,-0.394618,-1.232725
2026-01-24T19:39:24.710544,6.632904,-2.790031,0.775274,-0.025656,-0.227241,-1.219286
2026-01-24T19:39:24.719544,6.393621,-2.359323,0.263210,0.001221,-0.079412,-1.185078
2026-01-24T19:39:24.729544,5.417350,-1.914258,0.425922,0.002443,0.083077,-1.152091
2026-01-24T19:39:24.739544,4.441078,-1.416550,0.880558,-0.068416,0.118507,-1.112996
2026-01-24T19:39:24.748544,4.082155,-1.100698,1.004985,-0.200363,0.100181,-1.021366
2026-01-24T19:39:24.758544,4.436293,-1.813759,0.708275,-0.381179,0.085521,-0.941954
2026-01-24T19:39:24.768544,4.168296,-1.660618,1.148554,-0.436157,0.239459,-0.883310
2026-01-24T19:39:24.777544,3.689732,-1.598405,0.918843,-0.530230,0.305432,-0.797789
2026-01-24T19:39:24.787544,3.584448,-1.435693,0.579063,-0.621860,0.368962,-0.714712
2026-01-24T19:39:24.796544,3.464807,-1.339980,0.382851,-0.756251,0.388510,-0.640186
2026-01-24T19:39:24.806544,3.560520,-1.143769,0.267996,-0.861319,0.398284,-0.564439
2026-01-24T19:39:24.816544,3.799802,-0.904486,0.143569,-1.010370,0.395840,-0.491135
2026-01-24T19:39:24.825544,4.230510,-1.000199,0.143569,-1.198517,0.415388,-0.436157
2026-01-24T19:39:24.835544,4.546362,-1.363908,0.114855,-1.354898,0.469144,-0.400727
2026-01-24T19:39:24.844544,4.709074,-1.808973,-0.119641,-1.441641,0.541226,-0.368962
2026-01-24T19:39:24.854544,4.809573,-2.057827,-0.272781,-1.445306,0.597426,-0.348193
2026-01-24T19:39:24.864544,5.096712,-2.191825,-0.641276,-1.411098,0.613308,-0.343306
2026-01-24T19:39:24.873544,5.594419,-2.354537,-1.081555,-1.358564,0.618195,-0.343306
2026-01-24T19:39:24.883544,5.991627,-2.306680,-1.512263,-1.303586,0.626747,-0.339641
2026-01-24T19:39:24.893544,6.441478,-2.220539,-1.785045,-1.257160,0.610865,-0.327423
2026-01-24T19:39:24.902544,7.020541,-2.316252,-1.957328,-1.254716,0.547335,-0.321315
2026-01-24T19:39:24.912544,7.680960,-2.608176,-1.899901,-1.224173,0.488692,-0.326201
2026-01-24T19:39:24.921544,8.456235,-2.761317,-1.737189,-1.111774,0.441044,-0.340862
2026-01-24T19:39:24.931544,9.001798,-2.565105,-1.560120,-0.921184,0.432492,-0.354301
2026-01-24T19:39:24.941544,9.332008,-1.799402,-1.555334,-0.761137,0.436157,-0.366519
2026-01-24T19:39:24.950544,9.734002,-1.210768,-1.919043,-0.739146,0.426383,-0.381179
2026-01-24T19:39:24.960544,10.121639,-1.091127,-2.234896,-0.813672,0.388510,-0.390953
2026-01-24T19:39:24.969544,10.514062,-1.435693,-2.431107,-0.879645,0.294436,-0.399505
2026-01-24T19:39:24.979544,11.045269,-1.981257,-2.397608,-0.877202,0.183259,-0.399505
2026-01-24T19:39:24.989544,11.207981,-2.612962,-2.048256,-0.759916,0.105068,-0.395840
2026-01-24T19:39:24.998544,11.069197,-2.904886,-1.483550,-0.535117,0.069638,-0.387288
2026-01-24T19:39:25.008544,10.380064,-2.885744,-0.808774,-0.233350,0.053756,-0.361632
2026-01-24T19:39:25.018544,9.422935,-2.464607,-0.272781,0.073303,0.015882,-0.305432
2026-01-24T19:39:25.027544,8.886943,-1.761117,0.229710,0.345749,-0.053756,-0.223576
2026-01-24T19:39:25.037544,8.752945,-0.689132,0.583848,0.553443,-0.119729,-0.133168
2026-01-24T19:39:25.046544,8.762516,0.315852,0.770488,0.630412,-0.127059,-0.041538
2026-01-24T19:39:25.056544,8.604590,1.143769,0.914058,0.566882,-0.086742,0.050090
2026-01-24T19:39:25.066544,8.417949,1.560120,0.799202,0.399505,-0.056199,0.139277
2026-01-24T19:39:25.075544,8.365307,1.679761,0.693918,0.197920,-0.052534,0.223576
2026-01-24T19:39:25.085544,8.599804,1.435693,0.464207,-0.017104,-0.051312,0.293215
2026-01-24T19:39:25.094544,8.724231,0.918843,0.325423,-0.213802,-0.035430,0.353080
2026-01-24T19:39:25.104544,9.044869,0.267996,0.167497,-0.346971,-0.030543,0.395840
2026-01-24T19:39:25.114544,9.399007,-0.244067,-0.181854,-0.365297,-0.019547,0.416610
2026-01-24T19:39:25.123544,9.647860,-0.488135,-0.488135,-0.331088,-0.003665,0.422718
2026-01-24T19:39:25.133544,9.858429,-0.746560,-0.717846,-0.302989,0.004886,0.417831
2026-01-24T19:39:25.143544,9.973284,-1.009771,-0.856630,-0.249232,0.000000,0.398284
2026-01-24T19:39:25.152544,9.987641,-1.129412,-0.823130,-0.145385,-0.017104,0.372627
2026-01-24T19:39:25.162544,10.006784,-1.196411,-0.746560,-0.041538,-0.048869,0.351858
2026-01-24T19:39:25.171544,10.001998,-1.220339,-0.698704,0.072082,-0.089186,0.328645
2026-01-24T19:39:25.181544,9.963713,-1.081555,-0.411565,0.212581,-0.133168,0.302989
2026-01-24T19:39:25.191544,9.911071,-0.799202,-0.186640,0.349414,-0.172263,0.279776
2026-01-24T19:39:25.200544,9.805787,-0.435493,0.057427,0.461814,-0.199142,0.250454
2026-01-24T19:39:25.210544,9.690931,-0.320638,0.200997,0.532674,-0.221133,0.230907
2026-01-24T19:39:25.219544,9.427721,-0.181854,0.306281,0.607199,-0.246789,0.217467
2026-01-24T19:39:25.229544,9.322436,-0.038285,0.411565,0.684168,-0.274889,0.204028
2026-01-24T19:39:25.239544,9.097511,0.076570,0.411565,0.755029,-0.287106,0.186924
2026-01-24T19:39:25.248544,8.848657,0.100498,0.339780,0.802676,-0.296880,0.168598
2026-01-24T19:39:25.258544,8.374879,-0.105284,0.090927,0.810007,-0.312762,0.158824
2026-01-24T19:39:25.268544,8.030312,-0.569491,-0.081355,0.831998,-0.344527,0.151494
2026-01-24T19:39:25.277544,7.776673,-0.923629,-0.081355,0.902858,-0.408057,0.158824
2026-01-24T19:39:25.287544,8.020741,-1.186840,-0.267996,0.996931,-0.474031,0.172263
2026-01-24T19:39:25.296544,8.221738,-1.253839,-0.358923,1.091005,-0.483805,0.199142
2026-01-24T19:39:25.306544,8.140382,-1.416550,-0.416351,1.169195,-0.467922,0.229685
2026-01-24T19:39:25.316544,7.795816,-1.469193,-0.483350,1.225395,-0.452040,0.274889
2026-01-24T19:39:25.325544,7.379464,-1.478764,-0.741775,1.293812,-0.454483,0.307876
2026-01-24T19:39:25.335544,6.924828,-1.368694,-0.918843,1.391550,-0.475253,0.327423
2026-01-24T19:39:25.344544,6.532405,-1.191625,-0.770488,1.467297,-0.535117,0.348193
2026-01-24T19:39:25.354544,6.570690,-1.244267,-0.540777,1.477071,-0.610865,0.378736
2026-01-24T19:39:25.364544,6.738188,-1.655833,-0.291924,1.444085,-0.646295,0.425162
2026-01-24T19:39:25.373544,6.833901,-2.182254,-0.129212,1.418428,-0.621860,0.489913
2026-01-24T19:39:25.383544,6.910471,-2.727817,-0.215354,1.436754,-0.583987,0.552222
2026-01-24T19:39:25.393544,7.034898,-2.986242,-0.459421,1.508836,-0.549778,0.612086
2026-01-24T19:39:25.402544,7.140182,-2.866601,-0.588634,1.622457,-0.514348,0.663399
2026-01-24T19:39:25.412544,7.183253,-2.565105,-0.894915,1.710422,-0.467922,0.702494
2026-01-24T19:39:25.421544,7.058826,-1.842473,-1.086341,1.738522,-0.408057,0.731816
2026-01-24T19:39:25.431544,6.723831,-1.287338,-1.383051,1.620014,-0.333532,0.768468
2026-01-24T19:39:25.441544,6.388836,-1.713260,-1.746760,1.453858,-0.300545,0.799011
2026-01-24T19:39:25.450544,5.857629,-1.703689,-1.971685,1.463632,-0.246789,0.775798
2026-01-24T19:39:25.460544,5.024927,-1.052841,-2.220539,1.488067,-0.238237,0.767246
2026-01-24T19:39:25.469544,5.130211,-0.971485,-2.483749,1.382998,-0.357966,0.792902
