Timestamp,Acceleration_X,Acceleration_Y,Acceleration_Z,Gyro_X,Gyro_Y,Gyro_Z
2026-03-26T22:33:06.896844,3.029313,-9.351150,1.713260,0.020769,0.007330,-0.021991
2026-03-26T22:33:06.906844,2.971885,-9.322436,1.631905,-0.003665,-0.003665,-0.024434
2026-03-26T22:33:06.915844,2.981456,-9.355936,1.598405,-0.029321,-0.012217,-0.029321
2026-03-26T22:33:06.925844,2.976671,-9.413364,1.646261,-0.037873,-0.015882,-0.034208
2026-03-26T22:33:06.934844,2.981456,-9.379864,1.588834,-0.026878,-0.014660,-0.035430
2026-03-26T22:33:06.944844,3.043670,-9.370293,1.584048,-0.003665,-0.010995,-0.034208
2026-03-26T22:33:06.954844,2.986242,-9.341579,1.607976,0.019547,-0.010995,-0.029321
2026-03-26T22:33:06.963844,3.034099,-9.355936,1.593619,0.035430,-0.017104,-0.023212
2026-03-26T22:33:06.973844,3.038884,-9.384650,1.593619,0.041538,-0.026878,-0.017104
2026-03-26T22:33:06.983844,3.053241,-9.336793,1.641476,0.041538,-0.036651,-0.013439
2026-03-26T22:33:06.992844,3.038884,-9.317651,1.703689,0.032986,-0.050090,-0.004886
2026-03-26T22:33:07.002844,2.981456,-9.418149,1.665404,0.024434,-0.064751,-0.004886
2026-03-26T22:33:07.011844,3.019742,-9.375078,1.579262,0.013439,-0.076969,-0.013439
2026-03-26T22:33:07.021844,3.038884,-9.399007,1.540977,0.009773,-0.080634,-0.025656
2026-03-26T22:33:07.031844,3.024527,-9.399007,1.603191,0.013439,-0.076969,-0.036651
2026-03-26T22:33:07.040844,3.019742,-9.351150,1.679761,0.017104,-0.069638,-0.042760
2026-03-26T22:33:07.050844,3.048455,-9.336793,1.622333,0.018325,-0.067195,-0.043982
2026-03-26T22:33:07.059844,3.029313,-9.351150,1.670190,0.009773,-0.065973,-0.042760
2026-03-26T22:33:07.069844,2.981456,-9.360722,1.684547,-0.006108,-0.075747,-0.039095
2026-03-26T22:33:07.079844,3.029313,-9.293722,1.651047,-0.020769,-0.080634,-0.035430
2026-03-26T22:33:07.088844,3.077169,-9.403792,1.627119,-0.035430,-0.087964,-0.031764
2026-03-26T22:33:07.098844,3.062812,-9.303294,1.622333,-0.043982,-0.089186,-0.030543
2026-03-26T22:33:07.108844,3.072384,-9.403792,1.584048,-0.041538,-0.085521,-0.026878
2026-03-26T22:33:07.117844,3.053241,-9.365507,1.526620,-0.025656,-0.078190,-0.023212
2026-03-26T22:33:07.127844,3.029313,-9.346365,1.584048,-0.007330,-0.067195,-0.023212
2026-03-26T22:33:07.136844,3.062812,-9.336793,1.531406,0.009773,-0.064751,-0.021991
2026-03-26T22:33:07.146844,3.091526,-9.308079,1.627119,0.013439,-0.064751,-0.010995
2026-03-26T22:33:07.156844,3.048455,-9.341579,1.641476,0.007330,-0.069638,0.000000
2026-03-26T22:33:07.165844,3.125026,-9.312865,1.603191,-0.006108,-0.073303,0.009773
2026-03-26T22:33:07.175844,3.024527,-9.336793,1.555334,-0.006108,-0.073303,0.015882
2026-03-26T22:33:07.184844,3.058027,-9.341579,1.555334,0.001221,-0.063529,0.019547
2026-03-26T22:33:07.194844,3.062812,-9.360722,1.555334,0.018325,-0.059864,0.024434
2026-03-26T22:33:07.204844,3.034099,-9.355936,1.607976,0.034208,-0.057421,0.023212
2026-03-26T22:33:07.213844,3.043670,-9.360722,1.598405,0.035430,-0.061086,0.021991
2026-03-26T22:33:07.223844,3.000599,-9.355936,1.684547,0.023212,-0.074525,0.015882
2026-03-26T22:33:07.233844,2.995813,-9.389435,1.612762,-0.001221,-0.083077,0.008552
2026-03-26T22:33:07.242844,3.062812,-9.346365,1.636690,-0.021991,-0.090408,-0.001221
2026-03-26T22:33:07.252844,2.986242,-9.355936,1.593619,-0.034208,-0.091629,-0.010995
2026-03-26T22:33:07.261844,3.000599,-9.312865,1.584048,-0.036651,-0.092851,-0.021991
2026-03-26T22:33:07.271844,2.971885,-9.394221,1.493121,-0.040317,-0.084299,-0.035430
2026-03-26T22:33:07.281844,3.048455,-9.389435,1.512263,-0.030543,-0.075747,-0.035430
2026-03-26T22:33:07.290844,3.062812,-9.365507,1.521835,-0.019547,-0.068416,-0.029321
2026-03-26T22:33:07.300844,3.043670,-9.370293,1.550549,-0.018325,-0.072082,-0.023212
2026-03-26T22:33:07.309844,3.043670,-9.389435,1.517049,-0.010995,-0.067195,-0.017104
2026-03-26T22:33:07.319844,3.053241,-9.370293,1.402194,0.007330,-0.057421,-0.015882
2026-03-26T22:33:07.329844,3.029313,-9.399007,1.512263,0.035430,-0.041538,-0.017104
2026-03-26T22:33:07.338844,3.053241,-9.312865,1.517049,0.053756,-0.040317,-0.020769
2026-03-26T22:33:07.348844,3.048455,-9.360722,1.674975,0.043982,-0.050090,-0.024434
2026-03-26T22:33:07.358844,3.029313,-9.341579,1.627119,0.008552,-0.059864,-0.025656
2026-03-26T22:33:07.367844,3.034099,-9.379864,1.588834,-0.012217,-0.064751,-0.019547
2026-03-26T22:33:07.377844,3.077169,-9.399007,1.517049,-0.008552,-0.062308,-0.006108
2026-03-26T22:33:07.386844,3.129811,-9.379864,1.545763,0.003665,-0.052534,0.010995
2026-03-26T22:33:07.396844,3.043670,-9.327222,1.698904,0.002443,-0.057421,0.021991
2026-03-26T22:33:07.406844,3.010170,-9.312865,1.641476,-0.010995,-0.069638,0.023212
2026-03-26T22:33:07.415844,3.053241,-9.365507,1.560120,-0.023212,-0.073303,0.023212
2026-03-26T22:33:07.425844,3.081955,-9.375078,1.540977,-0.032986,-0.080634,0.024434
2026-03-26T22:33:07.434844,3.038884,-9.418149,1.488335,-0.025656,-0.073303,0.017104
2026-03-26T22:33:07.444844,3.058027,-9.365507,1.454836,-0.012217,-0.063529,0.010995
2026-03-26T22:33:07.454844,2.981456,-9.399007,1.473978,0.008552,-0.054977,0.001221
2026-03-26T22:33:07.463844,3.010170,-9.317651,1.593619,0.021991,-0.048869,-0.004886
2026-03-26T22:33:07.473844,3.024527,-9.355936,1.588834,0.015882,-0.056199,-0.009773
2026-03-26T22:33:07.483844,2.991028,-9.384650,1.517049,-0.002443,-0.065973,-0.020769
2026-03-26T22:33:07.492844,3.096312,-9.351150,1.536192,-0.004886,-0.065973,-0.025656
2026-03-26T22:33:07.502844,3.072384,-9.399007,1.507478,0.007330,-0.059864,-0.021991
2026-03-26T22:33:07.511844,3.101098,-9.389435,1.493121,0.017104,-0.050090,-0.019547
2026-03-26T22:33:07.521844,3.077169,-9.384650,1.560120,0.025656,-0.046425,-0.010995
2026-03-26T22:33:07.531844,3.053241,-9.355936,1.555334,0.023212,-0.051312,0.000000
2026-03-26T22:33:07.540844,3.153740,-9.322436,1.593619,0.017104,-0.056199,0.003665
2026-03-26T22:33:07.550844,3.058027,-9.365507,1.555334,0.012217,-0.064751,0.002443
2026-03-26T22:33:07.559844,2.981456,-9.308079,1.636690,0.002443,-0.073303,-0.001221
2026-03-26T22:33:07.569844,3.010170,-9.384650,1.569691,-0.009773,-0.081855,-0.010995
2026-03-26T22:33:07.579844,3.091526,-9.355936,1.540977,-0.029321,-0.086742,-0.024434
2026-03-26T22:33:07.588844,3.014956,-9.384650,1.368694,-0.024434,-0.074525,-0.029321
2026-03-26T22:33:07.598844,3.101098,-9.384650,1.416550,-0.001221,-0.054977,-0.031764
2026-03-26T22:33:07.608844,3.067598,-9.336793,1.464407,0.026878,-0.040317,-0.032986
2026-03-26T22:33:07.617844,3.024527,-9.351150,1.536192,0.035430,-0.035430,-0.036651
2026-03-26T22:33:07.627844,3.086741,-9.365507,1.584048,0.028099,-0.041538,-0.035430
2026-03-26T22:33:07.636844,3.077169,-9.336793,1.636690,0.020769,-0.053756,-0.025656
2026-03-26T22:33:07.646844,3.134597,-9.341579,1.665404,0.010995,-0.064751,-0.010995
2026-03-26T22:33:07.656844,3.125026,-9.317651,1.555334,-0.004886,-0.076969,0.001221
2026-03-26T22:33:07.665844,3.105883,-9.346365,1.560120,-0.015882,-0.080634,0.010995
2026-03-26T22:33:07.675844,3.081955,-9.384650,1.450050,-0.009773,-0.079412,0.017104
2026-03-26T22:33:07.684844,3.053241,-9.379864,1.540977,-0.002443,-0.078190,0.023212
2026-03-26T22:33:07.694844,3.029313,-9.399007,1.526620,0.002443,-0.073303,0.025656
2026-03-26T22:33:07.704844,3.014956,-9.360722,1.545763,-0.004886,-0.074525,0.019547
2026-03-26T22:33:07.713844,3.062812,-9.408578,1.473978,-0.001221,-0.070860,0.013439
2026-03-26T22:33:07.723844,3.029313,-9.399007,1.493121,0.008552,-0.064751,0.004886
2026-03-26T22:33:07.733844,2.995813,-9.394221,1.550549,0.018325,-0.056199,-0.001221
2026-03-26T22:33:07.742844,3.029313,-9.317651,1.617548,0.014660,-0.053756,-0.013439
2026-03-26T22:33:07.752844,3.077169,-9.360722,1.526620,0.004886,-0.050090,-0.019547
2026-03-26T22:33:07.761844,3.072384,-9.336793,1.521835,0.004886,-0.047647,-0.018325
2026-03-26T22:33:07.771844,3.014956,-9.360722,1.521835,0.019547,-0.042760,-0.012217
2026-03-26T22:33:07.781844,3.058027,-9.355936,1.569691,0.028099,-0.043982,-0.006108
2026-03-26T22:33:07.790844,3.043670,-9.312865,1.603191,0.030543,-0.046425,-0.003665
2026-03-26T22:33:07.800844,3.038884,-9.370293,1.555334,0.019547,-0.054977,-0.004886
2026-03-26T22:33:07.809844,3.067598,-9.351150,1.545763,0.006108,-0.059864,-0.007330
2026-03-26T22:33:07.819844,3.029313,-9.355936,1.579262,-0.006108,-0.063529,-0.014660
2026-03-26T22:33:07.829844,3.038884,-9.355936,1.454836,-0.008552,-0.058643,-0.023212
2026-03-26T22:33:07.838844,3.043670,-9.341579,1.540977,-0.006108,-0.054977,-0.025656
2026-03-26T22:33:07.848844,2.981456,-9.346365,1.517049,-0.003665,-0.052534,-0.029321
2026-03-26T22:33:07.858844,3.043670,-9.351150,1.531406,-0.007330,-0.050090,-0.028099
2026-03-26T22:33:07.867844,3.043670,-9.355936,1.545763,-0.012217,-0.053756,-0.028099
2026-03-26T22:33:07.877844,3.091526,-9.298508,1.555334,-0.018325,-0.057421,-0.029321
2026-03-26T22:33:07.886844,3.086741,-9.341579,1.540977,-0.015882,-0.056199,-0.028099
2026-03-26T22:33:07.896844,3.043670,-9.379864,1.473978,-0.008552,-0.053756,-0.026878
2026-03-26T22:33:07.906844,3.153740,-9.399007,1.531406,0.007330,-0.046425,-0.024434
2026-03-26T22:33:07.915844,3.072384,-9.370293,1.464407,0.025656,-0.042760,-0.021991
2026-03-26T22:33:07.925844,3.101098,-9.346365,1.464407,0.040317,-0.037873,-0.014660
2026-03-26T22:33:07.934844,3.034099,-9.341579,1.588834,0.041538,-0.041538,-0.008552
2026-03-26T22:33:07.944844,3.034099,-9.332008,1.593619,0.026878,-0.051312,-0.004886
2026-03-26T22:33:07.954844,3.048455,-9.355936,1.536192,0.002443,-0.063529,-0.006108
2026-03-26T22:33:07.963844,3.029313,-9.365507,1.517049,-0.017104,-0.064751,-0.013439
2026-03-26T22:33:07.973844,3.005385,-9.336793,1.497906,-0.020769,-0.059864,-0.018325
2026-03-26T22:33:07.983844,3.053241,-9.365507,1.464407,-0.013439,-0.050090,-0.024434
2026-03-26T22:33:07.992844,3.038884,-9.422935,1.421336,0.002443,-0.045204,-0.029321
2026-03-26T22:33:08.002844,3.000599,-9.379864,1.497906,0.018325,-0.041538,-0.034208
2026-03-26T22:33:08.011844,3.053241,-9.389435,1.540977,0.028099,-0.036651,-0.036651
2026-03-26T22:33:08.021844,3.038884,-9.284151,1.473978,0.023212,-0.036651,-0.036651
2026-03-26T22:33:08.031844,3.091526,-9.360722,1.531406,0.014660,-0.041538,-0.032986
2026-03-26T22:33:08.040844,3.077169,-9.312865,1.507478,0.004886,-0.045204,-0.030543
2026-03-26T22:33:08.050844,3.101098,-9.399007,1.502692,0.003665,-0.046425,-0.029321
2026-03-26T22:33:08.059844,3.110669,-9.365507,1.545763,0.009773,-0.042760,-0.026878
2026-03-26T22:33:08.069844,3.067598,-9.336793,1.521835,0.019547,-0.039095,-0.019547
2026-03-26T22:33:08.079844,3.091526,-9.351150,1.517049,0.018325,-0.042760,-0.010995
2026-03-26T22:33:08.088844,3.110669,-9.351150,1.550549,0.008552,-0.045204,-0.009773
2026-03-26T22:33:08.098844,3.048455,-9.389435,1.478764,-0.001221,-0.046425,-0.012217
2026-03-26T22:33:08.108844,3.024527,-9.332008,1.560120,-0.010995,-0.052534,-0.021991
2026-03-26T22:33:08.117844,3.024527,-9.360722,1.469193,-0.012217,-0.052534,-0.037873
2026-03-26T22:33:08.127844,3.105883,-9.355936,1.464407,-0.008552,-0.047647,-0.046425
2026-03-26T22:33:08.136844,3.096312,-9.332008,1.473978,0.008552,-0.045204,-0.047647
2026-03-26T22:33:08.146844,3.172882,-9.336793,1.493121,0.019547,-0.043982,-0.035430
2026-03-26T22:33:08.156844,3.105883,-9.317651,1.531406,0.025656,-0.043982,-0.019547
2026-03-26T22:33:08.165844,3.105883,-9.332008,1.545763,0.019547,-0.047647,-0.006108
2026-03-26T22:33:08.175844,3.086741,-9.384650,1.588834,0.009773,-0.048869,0.003665
2026-03-26T22:33:08.184844,3.086741,-9.379864,1.540977,0.003665,-0.048869,0.008552
2026-03-26T22:33:08.194844,3.091526,-9.389435,1.493121,0.003665,-0.050090,0.004886
2026-03-26T22:33:08.204844,3.062812,-9.375078,1.507478,0.004886,-0.051312,-0.002443
2026-03-26T22:33:08.213844,3.077169,-9.379864,1.502692,0.004886,-0.047647,-0.008552
2026-03-26T22:33:08.223844,3.014956,-9.384650,1.579262,0.000000,-0.046425,-0.013439
2026-03-26T22:33:08.233844,3.072384,-9.355936,1.569691,-0.002443,-0.043982,-0.018325
2026-03-26T22:33:08.242844,3.043670,-9.336793,1.507478,-0.007330,-0.042760,-0.023212
2026-03-26T22:33:08.252844,3.115455,-9.351150,1.507478,-0.007330,-0.042760,-0.026878
2026-03-26T22:33:08.261844,3.081955,-9.355936,1.430907,0.003665,-0.043982,-0.029321
2026-03-26T22:33:08.271844,3.081955,-9.355936,1.564905,0.017104,-0.041538,-0.026878
2026-03-26T22:33:08.281844,3.096312,-9.375078,1.555334,0.021991,-0.042760,-0.023212
2026-03-26T22:33:08.290844,3.096312,-9.336793,1.636690,0.014660,-0.047647,-0.018325
2026-03-26T22:33:08.300844,3.101098,-9.322436,1.588834,0.000000,-0.057421,-0.014660
2026-03-26T22:33:08.309844,3.096312,-9.360722,1.517049,-0.019547,-0.062308,-0.010995
2026-03-26T22:33:08.319844,3.038884,-9.355936,1.421336,-0.015882,-0.058643,-0.009773
2026-03-26T22:33:08.329844,3.115455,-9.422935,1.497906,0.000000,-0.045204,-0.010995
2026-03-26T22:33:08.338844,3.129811,-9.370293,1.521835,0.015882,-0.039095,-0.019547
2026-03-26T22:33:08.348844,3.125026,-9.360722,1.574477,0.017104,-0.036651,-0.025656
2026-03-26T22:33:08.358844,3.048455,-9.336793,1.622333,0.003665,-0.047647,-0.026878
2026-03-26T22:33:08.367844,3.091526,-9.322436,1.521835,-0.015882,-0.059864,-0.023212
2026-03-26T22:33:08.377844,3.144168,-9.332008,1.507478,-0.024434,-0.065973,-0.018325
2026-03-26T22:33:08.386844,3.077169,-9.322436,1.469193,-0.020769,-0.059864,-0.010995
2026-03-26T22:33:08.396844,3.110669,-9.365507,1.416550,-0.001221,-0.052534,-0.002443
2026-03-26T22:33:08.406844,3.120240,-9.355936,1.469193,0.014660,-0.047647,0.009773
2026-03-26T22:33:08.415844,3.168097,-9.336793,1.507478,0.015882,-0.048869,0.018325
2026-03-26T22:33:08.425844,3.105883,-9.308079,1.464407,0.008552,-0.052534,0.021991
2026-03-26T22:33:08.434844,3.148954,-9.389435,1.531406,0.007330,-0.052534,0.024434
2026-03-26T22:33:08.444844,3.053241,-9.413364,1.450050,0.017104,-0.047647,0.020769
2026-03-26T22:33:08.454844,3.101098,-9.365507,1.531406,0.028099,-0.045204,0.015882
2026-03-26T22:33:08.463844,3.081955,-9.303294,1.555334,0.034208,-0.045204,0.010995
2026-03-26T22:33:08.473844,3.043670,-9.341579,1.564905,0.028099,-0.047647,0.010995
2026-03-26T22:33:08.483844,3.062812,-9.336793,1.517049,0.013439,-0.052534,0.009773
2026-03-26T22:33:08.492844,3.029313,-9.365507,1.464407,0.002443,-0.054977,0.007330
2026-03-26T22:33:08.502844,3.129811,-9.360722,1.469193,0.000000,-0.054977,0.006108
2026-03-26T22:33:08.511844,3.053241,-9.355936,1.454836,0.006108,-0.053756,0.001221
2026-03-26T22:33:08.521844,3.091526,-9.379864,1.430907,0.020769,-0.045204,-0.006108
2026-03-26T22:33:08.531844,3.120240,-9.332008,1.450050,0.046425,-0.036651,-0.013439
2026-03-26T22:33:08.540844,3.134597,-9.327222,1.521835,0.064751,-0.028099,-0.021991
2026-03-26T22:33:08.550844,3.053241,-9.336793,1.593619,0.067195,-0.026878,-0.023212
2026-03-26T22:33:08.559844,3.148954,-9.317651,1.631905,0.054977,-0.031764,-0.018325
2026-03-26T22:33:08.569844,3.062812,-9.274580,1.521835,0.034208,-0.041538,-0.009773
2026-03-26T22:33:08.579844,3.077169,-9.384650,1.588834,0.010995,-0.051312,-0.001221
2026-03-26T22:33:08.588844,3.072384,-9.351150,1.579262,-0.001221,-0.058643,0.002443
2026-03-26T22:33:08.598844,3.067598,-9.332008,1.493121,-0.006108,-0.067195,0.003665
2026-03-26T22:33:08.608844,3.378665,-9.293722,1.636690,-0.003665,-0.083077,-0.010995
2026-03-26T22:33:08.617844,2.986242,-9.384650,1.507478,-0.015882,-0.070860,0.000000
2026-03-26T22:33:08.627844,3.048455,-9.351150,1.531406,-0.014660,-0.063529,0.001221
2026-03-26T22:33:08.636844,3.096312,-9.413364,1.488335,-0.012217,-0.063529,-0.008552
2026-03-26T22:33:08.646844,3.043670,-9.346365,1.521835,-0.017104,-0.061086,-0.018325
2026-03-26T22:33:08.656844,3.043670,-9.308079,1.531406,-0.023212,-0.063529,-0.028099
2026-03-26T22:33:08.665844,3.053241,-9.375078,1.512263,-0.021991,-0.065973,-0.031764
2026-03-26T22:33:08.675844,3.139383,-9.370293,1.517049,-0.004886,-0.063529,-0.032986
2026-03-26T22:33:08.684844,3.158525,-9.336793,1.512263,0.003665,-0.058643,-0.023212
2026-03-26T22:33:08.694844,3.115455,-9.341579,1.507478,0.007330,-0.056199,-0.008552
2026-03-26T22:33:08.704844,3.110669,-9.341579,1.502692,0.018325,-0.052534,0.007330
2026-03-26T22:33:08.713844,3.067598,-9.375078,1.526620,0.028099,-0.046425,0.017104
2026-03-26T22:33:08.723844,3.062812,-9.379864,1.478764,0.034208,-0.043982,0.021991
2026-03-26T22:33:08.733844,3.034099,-9.370293,1.545763,0.030543,-0.043982,0.025656
2026-03-26T22:33:08.742844,3.067598,-9.365507,1.631905,0.014660,-0.052534,0.024434
2026-03-26T22:33:08.752844,3.053241,-9.332008,1.531406,0.001221,-0.058643,0.018325
2026-03-26T22:33:08.761844,2.991028,-9.365507,1.512263,-0.009773,-0.058643,0.008552
2026-03-26T22:33:08.771844,3.024527,-9.355936,1.526620,-0.015882,-0.054977,-0.004886
2026-03-26T22:33:08.781844,3.081955,-9.355936,1.507478,-0.013439,-0.059864,-0.015882
2026-03-26T22:33:08.790844,3.053241,-9.418149,1.426122,-0.001221,-0.056199,-0.021991
2026-03-26T22:33:08.800844,3.072384,-9.355936,1.450050,0.014660,-0.051312,-0.024434
2026-03-26T22:33:08.809844,3.115455,-9.389435,1.540977,0.026878,-0.048869,-0.025656
2026-03-26T22:33:08.819844,3.110669,-9.355936,1.540977,0.026878,-0.048869,-0.017104
2026-03-26T22:33:08.829844,3.062812,-9.360722,1.545763,0.021991,-0.048869,-0.009773
2026-03-26T22:33:08.838844,3.091526,-9.360722,1.574477,0.019547,-0.050090,-0.001221
2026-03-26T22:33:08.848844,3.101098,-9.365507,1.517049,0.012217,-0.051312,0.001221
2026-03-26T22:33:08.858844,3.048455,-9.384650,1.564905,0.007330,-0.053756,-0.003665
2026-03-26T22:33:08.867844,3.072384,-9.370293,1.579262,0.004886,-0.056199,-0.010995
2026-03-26T22:33:08.877844,3.038884,-9.351150,1.536192,-0.002443,-0.062308,-0.017104
2026-03-26T22:33:08.886844,3.081955,-9.327222,1.517049,-0.003665,-0.065973,-0.019547
2026-03-26T22:33:08.896844,3.129811,-9.360722,1.450050,0.002443,-0.062308,-0.015882
2026-03-26T22:33:08.906844,3.134597,-9.370293,1.440479,0.023212,-0.052534,-0.006108
2026-03-26T22:33:08.915844,3.129811,-9.336793,1.445264,0.040317,-0.042760,0.001221
2026-03-26T22:33:08.925844,3.125026,-9.370293,1.502692,0.043982,-0.040317,0.004886
2026-03-26T22:33:08.934844,2.991028,-9.312865,1.598405,0.034208,-0.045204,0.010995
2026-03-26T22:33:08.944844,3.081955,-9.317651,1.560120,0.017104,-0.054977,0.014660
2026-03-26T22:33:08.954844,3.058027,-9.351150,1.550549,-0.001221,-0.059864,0.017104
2026-03-26T22:33:08.963844,2.991028,-9.394221,1.426122,-0.009773,-0.061086,0.009773
2026-03-26T22:33:08.973844,3.081955,-9.351150,1.426122,-0.002443,-0.057421,0.002443
2026-03-26T22:33:08.983844,3.038884,-9.384650,1.521835,0.010995,-0.047647,-0.003665
2026-03-26T22:33:08.992844,3.038884,-9.355936,1.497906,0.014660,-0.042760,-0.009773
2026-03-26T22:33:09.002844,3.096312,-9.298508,1.540977,0.012217,-0.043982,-0.013439
2026-03-26T22:33:09.011844,3.062812,-9.355936,1.550549,0.009773,-0.053756,-0.007330
2026-03-26T22:33:09.021844,3.053241,-9.379864,1.588834,0.008552,-0.059864,-0.002443
2026-03-26T22:33:09.031844,3.038884,-9.346365,1.531406,0.003665,-0.064751,-0.002443
2026-03-26T22:33:09.040844,3.067598,-9.394221,1.540977,0.002443,-0.065973,-0.002443
2026-03-26T22:33:09.050844,3.034099,-9.327222,1.560120,-0.003665,-0.070860,-0.004886
2026-03-26T22:33:09.059844,3.077169,-9.341579,1.517049,-0.017104,-0.076969,-0.009773
2026-03-26T22:33:09.069844,3.043670,-9.346365,1.406979,-0.020769,-0.075747,-0.009773
2026-03-26T22:33:09.079844,3.067598,-9.332008,1.464407,-0.009773,-0.061086,-0.010995
2026-03-26T22:33:09.088844,3.048455,-9.332008,1.526620,0.004886,-0.045204,-0.014660
2026-03-26T22:33:09.098844,3.048455,-9.355936,1.536192,0.018325,-0.037873,-0.020769
2026-03-26T22:33:09.108844,3.058027,-9.341579,1.536192,0.020769,-0.041538,-0.021991
2026-03-26T22:33:09.117844,3.086741,-9.346365,1.569691,0.018325,-0.047647,-0.012217
2026-03-26T22:33:09.127844,3.105883,-9.336793,1.531406,0.007330,-0.053756,0.002443
2026-03-26T22:33:09.136844,3.062812,-9.379864,1.502692,0.001221,-0.062308,0.019547
2026-03-26T22:33:09.146844,3.096312,-9.360722,1.493121,0.006108,-0.062308,0.034208
2026-03-26T22:33:09.156844,3.115455,-9.355936,1.469193,0.014660,-0.057421,0.042760
2026-03-26T22:33:09.165844,3.043670,-9.365507,1.488335,0.025656,-0.053756,0.045204
2026-03-26T22:33:09.175844,3.000599,-9.365507,1.540977,0.030543,-0.053756,0.043982
2026-03-26T22:33:09.184844,3.053241,-9.346365,1.483550,0.032986,-0.052534,0.040317
2026-03-26T22:33:09.194844,2.971885,-9.384650,1.584048,0.029321,-0.053756,0.036651
2026-03-26T22:33:09.204844,2.976671,-9.375078,1.550549,0.017104,-0.056199,0.032986
2026-03-26T22:33:09.213844,3.014956,-9.389435,1.593619,0.007330,-0.058643,0.021991
2026-03-26T22:33:09.223844,2.995813,-9.370293,1.531406,-0.006108,-0.059864,0.012217
2026-03-26T22:33:09.233844,3.038884,-9.394221,1.502692,-0.008552,-0.056199,0.002443
2026-03-26T22:33:09.242844,3.038884,-9.332008,1.502692,-0.003665,-0.051312,-0.010995
2026-03-26T22:33:09.252844,2.986242,-9.384650,1.512263,0.002443,-0.045204,-0.018325
2026-03-26T22:33:09.261844,2.981456,-9.336793,1.550549,0.003665,-0.045204,-0.021991
2026-03-26T22:33:09.271844,3.000599,-9.379864,1.493121,0.004886,-0.041538,-0.025656
2026-03-26T22:33:09.281844,3.038884,-9.346365,1.517049,0.003665,-0.039095,-0.026878
2026-03-26T22:33:09.290844,2.995813,-9.403792,1.507478,0.002443,-0.036651,-0.030543
2026-03-26T22:33:09.300844,2.991028,-9.379864,1.493121,0.000000,-0.037873,-0.036651
2026-03-26T22:33:09.309844,3.072384,-9.384650,1.512263,0.001221,-0.039095,-0.042760
2026-03-26T22:33:09.319844,3.029313,-9.384650,1.464407,0.003665,-0.041538,-0.045204
2026-03-26T22:33:09.329844,3.067598,-9.365507,1.521835,0.004886,-0.041538,-0.043982
2026-03-26T22:33:09.338844,3.101098,-9.355936,1.507478,0.006108,-0.040317,-0.037873
2026-03-26T22:33:09.348844,3.081955,-9.346365,1.497906,0.002443,-0.043982,-0.026878
2026-03-26T22:33:09.358844,3.091526,-9.375078,1.512263,0.000000,-0.045204,-0.017104
2026-03-26T22:33:09.367844,3.062812,-9.336793,1.579262,-0.003665,-0.050090,-0.010995
2026-03-26T22:33:09.377844,3.048455,-9.365507,1.536192,-0.007330,-0.053756,-0.006108
2026-03-26T22:33:09.386844,3.077169,-9.365507,1.545763,-0.008552,-0.056199,-0.004886
2026-03-26T22:33:09.396844,3.038884,-9.403792,1.517049,-0.010995,-0.061086,-0.004886
2026-03-26T22:33:09.406844,3.024527,-9.408578,1.435693,-0.010995,-0.065973,-0.008552
2026-03-26T22:33:09.415844,3.043670,-9.341579,1.430907,-0.002443,-0.059864,-0.013439
2026-03-26T22:33:09.425844,3.019742,-9.355936,1.430907,0.008552,-0.051312,-0.017104
2026-03-26T22:33:09.434844,3.086741,-9.375078,1.540977,0.013439,-0.045204,-0.019547
2026-03-26T22:33:09.444844,3.086741,-9.370293,1.521835,0.023212,-0.042760,-0.014660
2026-03-26T22:33:09.454844,3.115455,-9.346365,1.545763,0.025656,-0.045204,-0.006108
2026-03-26T22:33:09.463844,3.048455,-9.355936,1.526620,0.026878,-0.046425,0.002443
2026-03-26T22:33:09.473844,3.072384,-9.360722,1.550549,0.025656,-0.050090,0.007330
2026-03-26T22:33:09.483844,3.019742,-9.394221,1.517049,0.025656,-0.051312,0.007330
2026-03-26T22:33:09.492844,3.029313,-9.317651,1.526620,0.021991,-0.053756,0.001221
2026-03-26T22:33:09.502844,3.019742,-9.336793,1.555334,0.010995,-0.057421,-0.003665
2026-03-26T22:33:09.511844,3.024527,-9.346365,1.593619,0.001221,-0.059864,-0.008552
2026-03-26T22:33:09.521844,3.000599,-9.332008,1.603191,-0.007330,-0.059864,-0.012217
2026-03-26T22:33:09.531844,3.010170,-9.384650,1.502692,-0.013439,-0.059864,-0.014660
2026-03-26T22:33:09.540844,2.995813,-9.336793,1.502692,-0.013439,-0.059864,-0.024434
2026-03-26T22:33:09.550844,3.029313,-9.355936,1.450050,-0.003665,-0.057421,-0.031764
2026-03-26T22:33:09.559844,3.043670,-9.327222,1.488335,0.012217,-0.050090,-0.032986
2026-03-26T22:33:09.569844,3.091526,-9.422935,1.483550,0.025656,-0.046425,-0.028099
2026-03-26T22:33:09.579844,3.101098,-9.336793,1.493121,0.024434,-0.045204,-0.025656
2026-03-26T22:33:09.588844,3.010170,-9.298508,1.536192,0.012217,-0.051312,-0.023212
2026-03-26T22:33:09.598844,3.058027,-9.303294,1.512263,0.000000,-0.056199,-0.021991
2026-03-26T22:33:09.608844,3.096312,-9.360722,1.473978,-0.006108,-0.059864,-0.018325
2026-03-26T22:33:09.617844,3.067598,-9.327222,1.440479,0.001221,-0.056199,-0.015882
2026-03-26T22:33:09.627844,3.096312,-9.375078,1.493121,0.014660,-0.052534,-0.014660
2026-03-26T22:33:09.636844,3.019742,-9.336793,1.497906,0.020769,-0.048869,-0.018325
2026-03-26T22:33:09.646844,3.053241,-9.341579,1.507478,0.014660,-0.050090,-0.024434
2026-03-26T22:33:09.656844,3.034099,-9.322436,1.569691,0.000000,-0.062308,-0.025656
2026-03-26T22:33:09.665844,3.105883,-9.351150,1.459621,-0.014660,-0.069638,-0.024434
2026-03-26T22:33:09.675844,3.067598,-9.351150,1.402194,-0.015882,-0.068416,-0.024434
2026-03-26T22:33:09.684844,3.125026,-9.375078,1.430907,-0.012217,-0.064751,-0.024434
2026-03-26T22:33:09.694844,3.067598,-9.355936,1.454836,0.004886,-0.054977,-0.020769
2026-03-26T22:33:09.704844,3.115455,-9.365507,1.464407,0.026878,-0.047647,-0.013439
2026-03-26T22:33:09.713844,3.062812,-9.355936,1.512263,0.042760,-0.040317,-0.004886
2026-03-26T22:33:09.723844,3.024527,-9.336793,1.454836,0.043982,-0.036651,0.000000
2026-03-26T22:33:09.733844,3.062812,-9.365507,1.540977,0.032986,-0.039095,-0.002443
2026-03-26T22:33:09.742844,3.048455,-9.375078,1.593619,0.015882,-0.050090,-0.013439
2026-03-26T22:33:09.752844,3.010170,-9.375078,1.488335,0.002443,-0.054977,-0.021991
2026-03-26T22:33:09.761844,3.139383,-9.317651,1.517049,-0.002443,-0.062308,-0.030543
2026-03-26T22:33:09.771844,3.019742,-9.327222,1.473978,-0.006108,-0.061086,-0.031764
2026-03-26T22:33:09.781844,3.067598,-9.370293,1.478764,-0.009773,-0.059864,-0.028099
2026-03-26T22:33:09.790844,3.110669,-9.346365,1.526620,-0.009773,-0.064751,-0.018325
2026-03-26T22:33:09.800844,3.043670,-9.360722,1.526620,-0.004886,-0.074525,0.003665
2026-03-26T22:33:09.809844,3.058027,-9.360722,1.450050,-0.006108,-0.070860,-0.007330
2026-03-26T22:33:09.819844,3.029313,-9.346365,1.464407,-0.002443,-0.062308,-0.018325
2026-03-26T22:33:09.829844,3.144168,-9.370293,1.469193,0.008552,-0.054977,-0.019547
2026-03-26T22:33:09.838844,3.062812,-9.379864,1.488335,0.023212,-0.048869,-0.020769
2026-03-26T22:33:09.848844,3.105883,-9.327222,1.464407,0.035430,-0.045204,-0.024434
2026-03-26T22:33:09.858844,3.077169,-9.336793,1.564905,0.039095,-0.039095,-0.028099
2026-03-26T22:33:09.867844,3.072384,-9.351150,1.531406,0.030543,-0.035430,-0.029321
2026-03-26T22:33:09.877844,3.067598,-9.336793,1.574477,0.008552,-0.047647,-0.031764
2026-03-26T22:33:09.886844,3.081955,-9.336793,1.579262,-0.010995,-0.064751,-0.029321
2026-03-26T22:33:09.896844,3.091526,-9.346365,1.540977,-0.026878,-0.079412,-0.026878
2026-03-26T22:33:09.906844,3.110669,-9.375078,1.488335,-0.032986,-0.078190,-0.015882
2026-03-26T22:33:09.915844,3.211167,-9.360722,1.421336,-0.023212,-0.078190,-0.010995
2026-03-26T22:33:09.925844,3.110669,-9.332008,1.416550,-0.006108,-0.067195,-0.002443
2026-03-26T22:33:09.934844,3.086741,-9.365507,1.473978,0.008552,-0.059864,0.009773
2026-03-26T22:33:09.944844,3.058027,-9.360722,1.440479,0.015882,-0.056199,0.017104
2026-03-26T22:33:09.954844,3.067598,-9.332008,1.521835,0.024434,-0.052534,0.018325
2026-03-26T22:33:09.963844,3.091526,-9.370293,1.483550,0.026878,-0.054977,0.012217
2026-03-26T22:33:09.973844,3.086741,-9.365507,1.459621,0.015882,-0.052534,0.006108
2026-03-26T22:33:09.983844,3.081955,-9.379864,1.555334,0.006108,-0.051312,0.002443
2026-03-26T22:33:09.992844,3.038884,-9.360722,1.512263,-0.001221,-0.056199,-0.003665
2026-03-26T22:33:10.002844,3.034099,-9.327222,1.502692,-0.004886,-0.058643,-0.012217
2026-03-26T22:33:10.011844,3.005385,-9.351150,1.435693,-0.003665,-0.062308,-0.019547
2026-03-26T22:33:10.021844,3.096312,-9.293722,1.464407,0.002443,-0.058643,-0.024434
2026-03-26T22:33:10.031844,3.086741,-9.394221,1.488335,0.013439,-0.053756,-0.023212
2026-03-26T22:33:10.040844,3.120240,-9.375078,1.478764,0.020769,-0.053756,-0.019547
2026-03-26T22:33:10.050844,3.134597,-9.375078,1.502692,0.019547,-0.058643,-0.007330
2026-03-26T22:33:10.059844,3.125026,-9.365507,1.440479,0.015882,-0.062308,0.003665
2026-03-26T22:33:10.069844,3.067598,-9.389435,1.550549,0.009773,-0.061086,0.004886
2026-03-26T22:33:10.079844,3.077169,-9.379864,1.512263,0.009773,-0.054977,0.004886
2026-03-26T22:33:10.088844,3.081955,-9.379864,1.469193,0.010995,-0.051312,0.003665
2026-03-26T22:33:10.098844,3.120240,-9.322436,1.531406,0.017104,-0.051312,-0.001221
2026-03-26T22:33:10.108844,3.081955,-9.332008,1.430907,0.021991,-0.051312,-0.003665
2026-03-26T22:33:10.117844,3.086741,-9.384650,1.473978,0.032986,-0.051312,-0.003665
2026-03-26T22:33:10.127844,3.072384,-9.346365,1.545763,0.040317,-0.052534,-0.007330
2026-03-26T22:33:10.136844,3.019742,-9.317651,1.517049,0.025656,-0.059864,-0.006108
2026-03-26T22:33:10.146844,3.053241,-9.327222,1.531406,0.018325,-0.061086,-0.006108
2026-03-26T22:33:10.156844,3.105883,-9.365507,1.478764,0.012217,-0.065973,-0.008552
2026-03-26T22:33:10.165844,3.053241,-9.389435,1.521835,0.018325,-0.068416,-0.012217
2026-03-26T22:33:10.175844,3.053241,-9.384650,1.517049,0.018325,-0.073303,-0.012217
2026-03-26T22:33:10.184844,3.091526,-9.375078,1.435693,0.018325,-0.080634,-0.007330
2026-03-26T22:33:10.194844,3.096312,-9.312865,1.593619,0.023212,-0.084299,0.002443
2026-03-26T22:33:10.204844,2.952743,-9.480363,1.263410,0.017104,-0.095294,0.010995
2026-03-26T22:33:10.213844,3.048455,-9.408578,1.502692,0.026878,-0.094073,0.010995
2026-03-26T22:33:10.223844,3.244667,-9.351150,1.282552,0.061086,-0.079412,-0.002443
2026-03-26T22:33:10.233844,3.043670,-9.394221,1.445264,0.058643,-0.067195,0.010995
2026-03-26T22:33:10.242844,3.086741,-9.341579,1.493121,0.069638,-0.076969,0.001221
2026-03-26T22:33:10.252844,3.101098,-9.384650,1.493121,0.075747,-0.120951,-0.002443
2026-03-26T22:33:10.261844,2.943171,-9.346365,1.622333,0.043982,-0.091629,0.029321
2026-03-26T22:33:10.271844,3.034099,-9.394221,1.454836,0.032986,-0.079412,0.037873
2026-03-26T22:33:10.281844,2.890529,-9.389435,1.488335,0.039095,-0.087964,0.017104
2026-03-26T22:33:10.290844,3.144168,-9.360722,1.426122,0.056199,-0.105068,-0.019547
2026-03-26T22:33:10.300844,3.086741,-9.351150,1.588834,0.047647,-0.084299,-0.010995
2026-03-26T22:33:10.309844,3.029313,-9.355936,1.588834,0.032986,-0.074525,-0.008552
2026-03-26T22:33:10.319844,3.038884,-9.274580,1.617548,0.019547,-0.083077,-0.007330
2026-03-26T22:33:10.329844,3.163311,-9.327222,1.493121,0.019547,-0.076969,0.001221
2026-03-26T22:33:10.338844,3.096312,-9.346365,1.531406,0.014660,-0.073303,0.009773
2026-03-26T22:33:10.348844,2.995813,-9.284151,1.473978,0.013439,-0.064751,0.017104
2026-03-26T22:33:10.358844,3.110669,-9.370293,1.521835,0.023212,-0.061086,0.014660
2026-03-26T22:33:10.367844,3.048455,-9.370293,1.540977,0.028099,-0.056199,0.013439
2026-03-26T22:33:10.377844,3.029313,-9.384650,1.593619,0.025656,-0.058643,0.007330
2026-03-26T22:33:10.386844,3.067598,-9.370293,1.545763,0.014660,-0.062308,-0.004886
2026-03-26T22:33:10.396844,3.048455,-9.399007,1.555334,0.007330,-0.058643,-0.010995
2026-03-26T22:33:10.406844,3.067598,-9.355936,1.450050,0.015882,-0.043982,-0.009773
2026-03-26T22:33:10.415844,3.105883,-9.384650,1.497906,0.028099,-0.039095,-0.006108
2026-03-26T22:33:10.425844,3.024527,-9.375078,1.540977,0.034208,-0.036651,-0.004886
2026-03-26T22:33:10.434844,3.067598,-9.332008,1.574477,0.023212,-0.040317,-0.002443
2026-03-26T22:33:10.444844,3.067598,-9.322436,1.579262,0.015882,-0.043982,0.000000
2026-03-26T22:33:10.454844,3.043670,-9.360722,1.550549,0.015882,-0.045204,-0.002443
2026-03-26T22:33:10.463844,3.053241,-9.413364,1.531406,0.026878,-0.040317,-0.007330
2026-03-26T22:33:10.473844,3.062812,-9.384650,1.593619,0.035430,-0.036651,-0.010995
2026-03-26T22:33:10.483844,3.043670,-9.355936,1.560120,0.042760,-0.032986,-0.007330
2026-03-26T22:33:10.492844,3.038884,-9.317651,1.569691,0.045204,-0.034208,-0.004886
2026-03-26T22:33:10.502844,3.072384,-9.375078,1.497906,0.030543,-0.040317,0.000000
2026-03-26T22:33:10.511844,3.134597,-9.394221,1.579262,0.019547,-0.046425,0.003665
2026-03-26T22:33:10.521844,3.062812,-9.360722,1.584048,0.010995,-0.042760,0.003665
2026-03-26T22:33:10.531844,3.062812,-9.365507,1.493121,0.018325,-0.032986,0.002443
2026-03-26T22:33:10.540844,3.038884,-9.365507,1.569691,0.035430,-0.025656,0.002443
2026-03-26T22:33:10.550844,3.043670,-9.370293,1.540977,0.040317,-0.020769,0.004886
2026-03-26T22:33:10.559844,3.067598,-9.351150,1.598405,0.037873,-0.023212,0.007330
2026-03-26T22:33:10.569844,3.019742,-9.303294,1.545763,0.024434,-0.035430,0.009773
2026-03-26T22:33:10.579844,3.105883,-9.370293,1.617548,0.008552,-0.042760,0.009773
2026-03-26T22:33:10.588844,3.081955,-9.298508,1.584048,-0.003665,-0.053756,0.009773
2026-03-26T22:33:10.598844,3.034099,-9.365507,1.531406,-0.006108,-0.057421,0.006108
2026-03-26T22:33:10.608844,3.014956,-9.370293,1.545763,0.003665,-0.054977,0.000000
2026-03-26T22:33:10.617844,3.072384,-9.399007,1.517049,0.015882,-0.052534,-0.003665
2026-03-26T22:33:10.627844,3.058027,-9.370293,1.521835,0.026878,-0.045204,-0.001221
2026-03-26T22:33:10.636844,3.048455,-9.379864,1.588834,0.029321,-0.037873,0.008552
2026-03-26T22:33:10.646844,3.029313,-9.370293,1.536192,0.029321,-0.032986,0.015882
2026-03-26T22:33:10.656844,3.048455,-9.322436,1.574477,0.029321,-0.029321,0.014660
2026-03-26T22:33:10.665844,3.010170,-9.346365,1.598405,0.025656,-0.026878,0.007330
2026-03-26T22:33:10.675844,3.034099,-9.384650,1.631905,0.021991,-0.028099,-0.006108
2026-03-26T22:33:10.684844,3.029313,-9.394221,1.622333,0.017104,-0.035430,-0.015882
2026-03-26T22:33:10.694844,3.048455,-9.351150,1.579262,0.013439,-0.041538,-0.018325
2026-03-26T22:33:10.704844,3.043670,-9.346365,1.560120,0.009773,-0.045204,-0.015882
2026-03-26T22:33:10.713844,3.067598,-9.312865,1.545763,0.010995,-0.051312,-0.012217
2026-03-26T22:33:10.723844,3.072384,-9.346365,1.545763,0.013439,-0.051312,-0.001221
2026-03-26T22:33:10.733844,3.043670,-9.379864,1.555334,0.019547,-0.051312,0.008552
2026-03-26T22:33:10.742844,3.067598,-9.375078,1.569691,0.024434,-0.051312,0.012217
2026-03-26T22:33:10.752844,3.024527,-9.332008,1.593619,0.028099,-0.048869,0.015882
2026-03-26T22:33:10.761844,3.053241,-9.336793,1.588834,0.034208,-0.047647,0.013439
2026-03-26T22:33:10.771844,2.986242,-9.379864,1.612762,0.035430,-0.045204,0.014660
2026-03-26T22:33:10.781844,3.067598,-9.346365,1.665404,0.031764,-0.042760,0.014660
2026-03-26T22:33:10.790844,3.019742,-9.394221,1.574477,0.026878,-0.046425,0.013439
2026-03-26T22:33:10.800844,3.010170,-9.312865,1.569691,0.024434,-0.047647,0.009773
2026-03-26T22:33:10.809844,3.043670,-9.384650,1.598405,0.024434,-0.047647,0.001221
2026-03-26T22:33:10.819844,3.024527,-9.379864,1.593619,0.019547,-0.043982,-0.004886
2026-03-26T22:33:10.829844,2.962314,-9.379864,1.607976,0.023212,-0.041538,-0.006108
2026-03-26T22:33:10.838844,3.038884,-9.384650,1.483550,0.031764,-0.043982,-0.007330
2026-03-26T22:33:10.848844,3.058027,-9.351150,1.607976,0.041538,-0.045204,-0.004886
2026-03-26T22:33:10.858844,3.019742,-9.341579,1.560120,0.043982,-0.045204,0.000000
2026-03-26T22:33:10.867844,3.043670,-9.399007,1.603191,0.047647,-0.051312,0.000000
2026-03-26T22:33:10.877844,2.928814,-9.322436,1.607976,0.069638,-0.030543,0.013439
2026-03-26T22:33:10.886844,3.086741,-9.422935,1.603191,0.072082,-0.031764,0.010995
2026-03-26T22:33:10.896844,3.072384,-9.370293,1.684547,0.069638,-0.039095,0.009773
2026-03-26T22:33:10.906844,2.952743,-9.341579,1.679761,0.056199,-0.046425,0.015882
2026-03-26T22:33:10.915844,3.038884,-9.370293,1.641476,0.037873,-0.052534,0.018325
2026-03-26T22:33:10.925844,2.914457,-9.346365,1.713260,0.026878,-0.053756,0.017104
2026-03-26T22:33:10.934844,2.962314,-9.351150,1.627119,0.001221,-0.063529,0.014660
2026-03-26T22:33:10.944844,3.000599,-9.389435,1.646261,-0.003665,-0.067195,0.006108
2026-03-26T22:33:10.954844,2.957528,-9.317651,1.674975,-0.004886,-0.070860,-0.002443
2026-03-26T22:33:10.963844,2.986242,-9.351150,1.622333,-0.018325,-0.072082,-0.010995
2026-03-26T22:33:10.973844,2.967100,-9.413364,1.555334,-0.023212,-0.070860,-0.015882
2026-03-26T22:33:10.983844,3.139383,-9.418149,1.531406,-0.012217,-0.068416,-0.009773
2026-03-26T22:33:10.992844,3.115455,-9.379864,1.564905,0.000000,-0.058643,-0.006108
2026-03-26T22:33:11.002844,2.976671,-9.298508,1.622333,0.019547,-0.047647,-0.001221
2026-03-26T22:33:11.011844,3.024527,-9.360722,1.598405,0.029321,-0.045204,0.007330
2026-03-26T22:33:11.021844,2.928814,-9.341579,1.660618,0.030543,-0.045204,0.007330
2026-03-26T22:33:11.031844,3.005385,-9.355936,1.593619,0.030543,-0.046425,0.006108
2026-03-26T22:33:11.040844,3.010170,-9.346365,1.617548,0.026878,-0.052534,0.003665
2026-03-26T22:33:11.050844,2.914457,-9.403792,1.698904,0.017104,-0.056199,0.000000
2026-03-26T22:33:11.059844,2.947957,-9.308079,1.641476,0.010995,-0.061086,-0.006108
2026-03-26T22:33:11.069844,2.986242,-9.418149,1.574477,0.004886,-0.069638,-0.010995
2026-03-26T22:33:11.079844,3.043670,-9.394221,1.588834,0.002443,-0.069638,-0.015882
2026-03-26T22:33:11.088844,3.038884,-9.394221,1.569691,0.006108,-0.056199,-0.021991
2026-03-26T22:33:11.098844,2.971885,-9.351150,1.579262,0.014660,-0.043982,-0.026878
2026-03-26T22:33:11.108844,2.962314,-9.365507,1.627119,0.019547,-0.034208,-0.035430
2026-03-26T22:33:11.117844,3.010170,-9.322436,1.698904,0.013439,-0.035430,-0.039095
2026-03-26T22:33:11.127844,3.000599,-9.365507,1.718046,0.001221,-0.041538,-0.041538
2026-03-26T22:33:11.136844,3.010170,-9.308079,1.722832,-0.017104,-0.057421,-0.040317
2026-03-26T22:33:11.146844,3.000599,-9.351150,1.631905,-0.034208,-0.073303,-0.039095
2026-03-26T22:33:11.156844,3.034099,-9.375078,1.617548,-0.043982,-0.084299,-0.037873
2026-03-26T22:33:11.165844,3.005385,-9.389435,1.540977,-0.042760,-0.089186,-0.041538
2026-03-26T22:33:11.175844,3.086741,-9.365507,1.488335,-0.028099,-0.085521,-0.039095
2026-03-26T22:33:11.184844,3.053241,-9.336793,1.521835,-0.010995,-0.083077,-0.034208
2026-03-26T22:33:11.194844,3.058027,-9.389435,1.478764,0.002443,-0.080634,-0.025656
2026-03-26T22:33:11.204844,3.077169,-9.312865,1.555334,0.017104,-0.072082,-0.009773
2026-03-26T22:33:11.213844,3.129811,-9.351150,1.560120,0.031764,-0.072082,0.010995
2026-03-26T22:33:11.223844,3.072384,-9.322436,1.584048,0.045204,-0.069638,0.032986
2026-03-26T22:33:11.233844,3.010170,-9.389435,1.627119,0.050090,-0.069638,0.058643
2026-03-26T22:33:11.242844,3.000599,-9.355936,1.627119,0.046425,-0.072082,0.074525
2026-03-26T22:33:11.252844,3.014956,-9.355936,1.531406,0.030543,-0.079412,0.078190
2026-03-26T22:33:11.261844,2.924029,-9.332008,1.598405,0.046425,-0.067195,0.080634
2026-03-26T22:33:11.271844,2.809173,-9.461220,1.607976,0.047647,-0.073303,0.079412
2026-03-26T22:33:11.281844,2.880958,-9.379864,1.689332,0.047647,-0.057421,0.086742
2026-03-26T22:33:11.290844,3.014956,-9.451649,1.612762,0.041538,-0.056199,0.084299
2026-03-26T22:33:11.300844,2.991028,-9.389435,1.612762,0.043982,-0.047647,0.069638
2026-03-26T22:33:11.309844,2.919243,-9.399007,1.627119,0.047647,-0.036651,0.059864
2026-03-26T22:33:11.319844,2.967100,-9.341579,1.617548,0.048869,-0.037873,0.047647
2026-03-26T22:33:11.329844,2.938386,-9.355936,1.679761,0.040317,-0.040317,0.037873
2026-03-26T22:33:11.338844,2.967100,-9.327222,1.679761,0.024434,-0.048869,0.031764
2026-03-26T22:33:11.348844,2.914457,-9.303294,1.607976,0.010995,-0.056199,0.026878
2026-03-26T22:33:11.358844,2.962314,-9.341579,1.703689,-0.001221,-0.054977,0.023212
2026-03-26T22:33:11.367844,2.842673,-9.384650,1.670190,-0.012217,-0.058643,0.014660
2026-03-26T22:33:11.377844,2.947957,-9.408578,1.617548,-0.018325,-0.059864,0.003665
2026-03-26T22:33:11.386844,2.952743,-9.355936,1.603191,-0.015882,-0.052534,-0.009773
2026-03-26T22:33:11.396844,2.933600,-9.418149,1.598405,-0.001221,-0.045204,-0.023212
2026-03-26T22:33:11.406844,2.947957,-9.413364,1.540977,0.019547,-0.036651,-0.031764
2026-03-26T22:33:11.415844,2.928814,-9.370293,1.636690,0.035430,-0.031764,-0.040317
2026-03-26T22:33:11.425844,2.904886,-9.365507,1.607976,0.043982,-0.028099,-0.043982
2026-03-26T22:33:11.434844,2.876172,-9.375078,1.646261,0.046425,-0.024434,-0.043982
2026-03-26T22:33:11.444844,2.967100,-9.341579,1.617548,0.040317,-0.023212,-0.051312
2026-03-26T22:33:11.454844,2.981456,-9.422935,1.698904,0.026878,-0.028099,-0.056199
2026-03-26T22:33:11.463844,2.909672,-9.408578,1.785045,0.009773,-0.030543,-0.065973
2026-03-26T22:33:11.473844,2.957528,-9.379864,1.694118,-0.003665,-0.036651,-0.079412
2026-03-26T22:33:11.483844,2.943171,-9.360722,1.584048,-0.014660,-0.040317,-0.086742
2026-03-26T22:33:11.492844,2.991028,-9.394221,1.588834,-0.023212,-0.040317,-0.090408
2026-03-26T22:33:11.502844,3.034099,-9.394221,1.631905,-0.023212,-0.043982,-0.096516
2026-03-26T22:33:11.511844,3.024527,-9.379864,1.603191,-0.017104,-0.042760,-0.097738
2026-03-26T22:33:11.521844,3.000599,-9.322436,1.584048,0.001221,-0.031764,-0.089186
2026-03-26T22:33:11.531844,3.091526,-9.355936,1.593619,0.019547,-0.030543,-0.076969
2026-03-26T22:33:11.540844,3.029313,-9.351150,1.665404,0.023212,-0.032986,-0.067195
2026-03-26T22:33:11.550844,2.981456,-9.327222,1.655833,0.019547,-0.041538,-0.062308
2026-03-26T22:33:11.559844,3.058027,-9.365507,1.622333,0.012217,-0.051312,-0.056199
2026-03-26T22:33:11.569844,3.091526,-9.351150,1.660618,0.008552,-0.053756,-0.053756
2026-03-26T22:33:11.579844,3.067598,-9.365507,1.569691,0.007330,-0.057421,-0.045204
2026-03-26T22:33:11.588844,3.048455,-9.336793,1.622333,0.009773,-0.056199,-0.032986
2026-03-26T22:33:11.598844,3.081955,-9.341579,1.631905,0.013439,-0.058643,-0.019547
2026-03-26T22:33:11.608844,3.048455,-9.308079,1.631905,0.018325,-0.059864,-0.009773
2026-03-26T22:33:11.617844,3.072384,-9.332008,1.660618,0.021991,-0.059864,0.000000
2026-03-26T22:33:11.627844,3.192025,-9.346365,1.584048,0.020769,-0.068416,0.004886
2026-03-26T22:33:11.636844,3.172882,-9.399007,1.579262,0.020769,-0.072082,0.008552
2026-03-26T22:33:11.646844,3.177668,-9.322436,1.607976,0.017104,-0.067195,0.004886
2026-03-26T22:33:11.656844,3.024527,-9.418149,1.674975,0.019547,-0.067195,0.001221
2026-03-26T22:33:11.665844,2.995813,-9.336793,1.627119,0.051312,-0.047647,-0.003665
2026-03-26T22:33:11.675844,3.077169,-9.327222,1.684547,0.064751,-0.039095,-0.007330
2026-03-26T22:33:11.684844,3.038884,-9.284151,1.741974,0.047647,-0.053756,-0.007330
2026-03-26T22:33:11.694844,2.995813,-9.317651,1.737189,0.019547,-0.067195,-0.002443
2026-03-26T22:33:11.704844,3.019742,-9.399007,1.689332,-0.004886,-0.083077,-0.003665
2026-03-26T22:33:11.713844,3.034099,-9.408578,1.560120,-0.025656,-0.085521,-0.012217
2026-03-26T22:33:11.723844,3.048455,-9.332008,1.641476,-0.026878,-0.085521,-0.023212
2026-03-26T22:33:11.733844,3.043670,-9.365507,1.646261,-0.023212,-0.081855,-0.032986
2026-03-26T22:33:11.742844,3.086741,-9.370293,1.593619,-0.018325,-0.074525,-0.041538
2026-03-26T22:33:11.752844,3.067598,-9.351150,1.584048,-0.003665,-0.062308,-0.045204
2026-03-26T22:33:11.761844,3.048455,-9.308079,1.627119,0.021991,-0.047647,-0.045204
2026-03-26T22:33:11.771844,2.976671,-9.360722,1.603191,0.046425,-0.031764,-0.039095
2026-03-26T22:33:11.781844,2.880958,-9.336793,1.708475,0.061086,-0.019547,-0.031764
2026-03-26T22:33:11.790844,2.904886,-9.327222,1.737189,0.056199,-0.018325,-0.023212
2026-03-26T22:33:11.800844,2.976671,-9.303294,1.737189,0.042760,-0.026878,-0.014660
2026-03-26T22:33:11.809844,3.058027,-9.375078,1.703689,0.020769,-0.040317,-0.008552
2026-03-26T22:33:11.819844,3.105883,-9.312865,1.636690,0.003665,-0.054977,-0.009773
2026-03-26T22:33:11.829844,3.105883,-9.341579,1.569691,-0.008552,-0.065973,-0.017104
2026-03-26T22:33:11.838844,3.148954,-9.346365,1.564905,-0.009773,-0.069638,-0.024434
2026-03-26T22:33:11.848844,3.206382,-9.379864,1.531406,-0.001221,-0.070860,-0.031764
2026-03-26T22:33:11.858844,3.120240,-9.351150,1.574477,-0.006108,-0.067195,-0.036651
2026-03-26T22:33:11.867844,3.105883,-9.360722,1.631905,-0.003665,-0.061086,-0.039095
2026-03-26T22:33:11.877844,3.038884,-9.375078,1.636690,0.002443,-0.058643,-0.035430
2026-03-26T22:33:11.886844,2.986242,-9.408578,1.588834,0.008552,-0.054977,-0.032986
2026-03-26T22:33:11.896844,2.986242,-9.317651,1.703689,0.023212,-0.045204,-0.031764
2026-03-26T22:33:11.906844,2.976671,-9.293722,1.670190,0.034208,-0.037873,-0.026878
2026-03-26T22:33:11.915844,3.005385,-9.288937,1.698904,0.039095,-0.036651,-0.023212
2026-03-26T22:33:11.925844,3.029313,-9.336793,1.741974,0.030543,-0.042760,-0.020769
2026-03-26T22:33:11.934844,3.014956,-9.293722,1.670190,0.017104,-0.054977,-0.019547
2026-03-26T22:33:11.944844,3.158525,-9.322436,1.603191,0.006108,-0.063529,-0.023212
2026-03-26T22:33:11.954844,3.120240,-9.332008,1.603191,0.001221,-0.065973,-0.024434
2026-03-26T22:33:11.963844,3.129811,-9.360722,1.598405,0.001221,-0.065973,-0.030543
2026-03-26T22:33:11.973844,3.110669,-9.341579,1.612762,0.006108,-0.062308,-0.030543
2026-03-26T22:33:11.983844,3.153740,-9.317651,1.593619,0.008552,-0.061086,-0.030543
2026-03-26T22:33:11.992844,3.110669,-9.308079,1.627119,0.008552,-0.058643,-0.026878
2026-03-26T22:33:12.002844,3.096312,-9.336793,1.670190,0.008552,-0.054977,-0.020769
2026-03-26T22:33:12.011844,3.062812,-9.293722,1.684547,0.010995,-0.053756,-0.013439
2026-03-26T22:33:12.021844,3.038884,-9.303294,1.741974,0.012217,-0.052534,-0.004886
2026-03-26T22:33:12.031844,3.120240,-9.308079,1.756331,0.012217,-0.059864,0.002443
2026-03-26T22:33:12.040844,3.110669,-9.351150,1.665404,0.008552,-0.068416,0.009773
2026-03-26T22:33:12.050844,3.096312,-9.332008,1.651047,0.004886,-0.078190,0.021991
2026-03-26T22:33:12.059844,3.062812,-9.379864,1.627119,0.006108,-0.075747,0.035430
2026-03-26T22:33:12.069844,3.115455,-9.379864,1.631905,0.015882,-0.069638,0.042760
2026-03-26T22:33:12.079844,3.115455,-9.332008,1.612762,0.026878,-0.064751,0.041538
2026-03-26T22:33:12.088844,3.077169,-9.360722,1.689332,0.030543,-0.063529,0.041538
2026-03-26T22:33:12.098844,3.101098,-9.384650,1.488335,0.046425,-0.056199,0.025656
2026-03-26T22:33:12.108844,3.058027,-9.284151,1.636690,0.062308,-0.045204,0.018325
2026-03-26T22:33:12.117844,3.067598,-9.317651,1.684547,0.058643,-0.041538,0.019547
2026-03-26T22:33:12.127844,3.053241,-9.327222,1.722832,0.041538,-0.046425,0.021991
2026-03-26T22:33:12.136844,3.024527,-9.332008,1.732403,0.031764,-0.048869,0.025656
2026-03-26T22:33:12.146844,3.067598,-9.322436,1.674975,0.023212,-0.052534,0.024434
2026-03-26T22:33:12.156844,3.077169,-9.312865,1.684547,0.017104,-0.053756,0.020769
2026-03-26T22:33:12.165844,3.010170,-9.308079,1.727617,0.007330,-0.058643,0.024434
2026-03-26T22:33:12.175844,3.062812,-9.355936,1.651047,0.007330,-0.058643,0.025656
2026-03-26T22:33:12.184844,3.038884,-9.322436,1.665404,0.013439,-0.056199,0.020769
2026-03-26T22:33:12.194844,2.957528,-9.346365,1.627119,0.021991,-0.046425,0.008552
2026-03-26T22:33:12.204844,2.991028,-9.346365,1.694118,0.025656,-0.039095,-0.006108
2026-03-26T22:33:12.213844,3.024527,-9.360722,1.674975,0.026878,-0.035430,-0.018325
2026-03-26T22:33:12.223844,3.024527,-9.341579,1.718046,0.023212,-0.031764,-0.029321
2026-03-26T22:33:12.233844,2.995813,-9.293722,1.703689,0.010995,-0.031764,-0.042760
2026-03-26T22:33:12.242844,3.019742,-9.317651,1.765903,-0.002443,-0.041538,-0.056199
2026-03-26T22:33:12.252844,2.991028,-9.312865,1.732403,-0.017104,-0.051312,-0.065973
2026-03-26T22:33:12.261844,3.072384,-9.341579,1.741974,-0.034208,-0.061086,-0.069638
2026-03-26T22:33:12.271844,3.139383,-9.332008,1.718046,-0.047647,-0.070860,-0.064751
2026-03-26T22:33:12.281844,3.110669,-9.355936,1.603191,-0.043982,-0.072082,-0.052534
2026-03-26T22:33:12.290844,3.134597,-9.360722,1.584048,-0.024434,-0.063529,-0.040317
2026-03-26T22:33:12.300844,3.091526,-9.341579,1.612762,-0.002443,-0.058643,-0.026878
2026-03-26T22:33:12.309844,3.081955,-9.332008,1.660618,0.008552,-0.056199,-0.021991
2026-03-26T22:33:12.319844,3.072384,-9.322436,1.655833,0.009773,-0.061086,-0.015882
2026-03-26T22:33:12.329844,3.048455,-9.322436,1.679761,0.000000,-0.063529,-0.008552
2026-03-26T22:33:12.338844,3.081955,-9.332008,1.631905,-0.008552,-0.067195,-0.009773
2026-03-26T22:33:12.348844,3.053241,-9.375078,1.627119,-0.010995,-0.062308,-0.014660
2026-03-26T22:33:12.358844,2.991028,-9.394221,1.584048,-0.006108,-0.058643,-0.021991
2026-03-26T22:33:12.367844,3.058027,-9.317651,1.660618,0.002443,-0.051312,-0.030543
2026-03-26T22:33:12.377844,3.086741,-9.379864,1.627119,0.012217,-0.048869,-0.039095
2026-03-26T22:33:12.386844,3.096312,-9.375078,1.679761,0.018325,-0.047647,-0.040317
2026-03-26T22:33:12.396844,3.120240,-9.355936,1.651047,0.019547,-0.046425,-0.035430
2026-03-26T22:33:12.406844,3.120240,-9.332008,1.665404,0.017104,-0.052534,-0.024434
2026-03-26T22:33:12.415844,3.110669,-9.370293,1.631905,0.019547,-0.056199,-0.008552
2026-03-26T22:33:12.425844,3.091526,-9.341579,1.588834,0.023212,-0.054977,0.006108
2026-03-26T22:33:12.434844,3.120240,-9.336793,1.670190,0.025656,-0.052534,0.013439
2026-03-26T22:33:12.444844,3.086741,-9.293722,1.670190,0.019547,-0.052534,0.018325
2026-03-26T22:33:12.454844,3.062812,-9.365507,1.679761,0.015882,-0.058643,0.021991
2026-03-26T22:33:12.463844,3.048455,-9.312865,1.660618,0.004886,-0.058643,0.023212
2026-03-26T22:33:12.473844,3.034099,-9.355936,1.651047,0.000000,-0.058643,0.021991
2026-03-26T22:33:12.483844,3.034099,-9.370293,1.622333,0.003665,-0.057421,0.017104
2026-03-26T22:33:12.492844,3.034099,-9.351150,1.670190,0.013439,-0.051312,0.012217
2026-03-26T22:33:12.502844,3.038884,-9.260223,1.622333,0.020769,-0.045204,0.006108
2026-03-26T22:33:12.511844,3.005385,-9.365507,1.694118,0.013439,-0.045204,0.000000
2026-03-26T22:33:12.521844,3.019742,-9.355936,1.684547,0.006108,-0.050090,-0.006108
2026-03-26T22:33:12.531844,3.058027,-9.394221,1.660618,0.000000,-0.051312,-0.007330
2026-03-26T22:33:12.540844,3.048455,-9.293722,1.655833,-0.002443,-0.052534,-0.004886
2026-03-26T22:33:12.550844,3.058027,-9.288937,1.579262,-0.001221,-0.053756,-0.001221
2026-03-26T22:33:12.559844,3.058027,-9.365507,1.627119,0.003665,-0.053756,0.003665
2026-03-26T22:33:12.569844,3.091526,-9.327222,1.636690,0.006108,-0.054977,0.010995
2026-03-26T22:33:12.579844,3.048455,-9.375078,1.665404,0.009773,-0.059864,0.014660
2026-03-26T22:33:12.588844,3.038884,-9.317651,1.665404,0.007330,-0.061086,0.018325
2026-03-26T22:33:12.598844,3.077169,-9.336793,1.598405,0.008552,-0.061086,0.023212
2026-03-26T22:33:12.608844,3.038884,-9.379864,1.612762,0.015882,-0.058643,0.021991
2026-03-26T22:33:12.617844,3.053241,-9.365507,1.593619,0.019547,-0.051312,0.018325
2026-03-26T22:33:12.627844,3.091526,-9.317651,1.694118,0.014660,-0.050090,0.014660
2026-03-26T22:33:12.636844,3.043670,-9.365507,1.684547,0.003665,-0.052534,0.010995
2026-03-26T22:33:12.646844,3.014956,-9.293722,1.636690,-0.002443,-0.056199,0.003665
2026-03-26T22:33:12.656844,3.019742,-9.375078,1.612762,-0.004886,-0.053756,-0.006108
2026-03-26T22:33:12.665844,3.029313,-9.317651,1.631905,-0.006108,-0.053756,-0.013439
2026-03-26T22:33:12.675844,3.072384,-9.336793,1.651047,-0.008552,-0.059864,-0.017104
2026-03-26T22:33:12.684844,3.048455,-9.317651,1.674975,-0.012217,-0.061086,-0.019547
2026-03-26T22:33:12.694844,3.086741,-9.355936,1.660618,-0.010995,-0.061086,-0.021991
2026-03-26T22:33:12.704844,3.062812,-9.346365,1.631905,-0.007330,-0.056199,-0.023212
2026-03-26T22:33:12.713844,3.091526,-9.341579,1.627119,0.000000,-0.050090,-0.024434
2026-03-26T22:33:12.723844,3.086741,-9.346365,1.636690,0.001221,-0.053756,-0.020769
2026-03-26T22:33:12.733844,2.995813,-9.317651,1.631905,0.020769,-0.042760,-0.013439
2026-03-26T22:33:12.742844,3.067598,-9.355936,1.670190,0.019547,-0.042760,-0.012217
2026-03-26T22:33:12.752844,3.048455,-9.284151,1.665404,0.013439,-0.046425,-0.017104
2026-03-26T22:33:12.761844,3.034099,-9.346365,1.708475,0.003665,-0.052534,-0.023212
2026-03-26T22:33:12.771844,3.034099,-9.355936,1.670190,-0.014660,-0.063529,-0.026878
2026-03-26T22:33:12.781844,3.101098,-9.384650,1.627119,-0.026878,-0.070860,-0.025656
2026-03-26T22:33:12.790844,3.081955,-9.336793,1.679761,-0.031764,-0.079412,-0.019547
2026-03-26T22:33:12.800844,3.105883,-9.413364,1.579262,-0.023212,-0.075747,-0.012217
2026-03-26T22:33:12.809844,3.091526,-9.389435,1.564905,0.002443,-0.062308,-0.006108
2026-03-26T22:33:12.819844,3.125026,-9.341579,1.545763,0.032986,-0.051312,-0.002443
2026-03-26T22:33:12.829844,3.086741,-9.341579,1.651047,0.045204,-0.046425,0.003665
2026-03-26T22:33:12.838844,3.034099,-9.379864,1.684547,0.047647,-0.052534,0.006108
2026-03-26T22:33:12.848844,3.048455,-9.308079,1.713260,0.043982,-0.059864,0.008552
2026-03-26T22:33:12.858844,3.077169,-9.308079,1.694118,0.031764,-0.063529,0.015882
2026-03-26T22:33:12.867844,3.072384,-9.336793,1.651047,0.020769,-0.064751,0.021991
2026-03-26T22:33:12.877844,3.048455,-9.317651,1.722832,0.008552,-0.065973,0.021991
2026-03-26T22:33:12.886844,3.072384,-9.375078,1.679761,-0.004886,-0.067195,0.015882
2026-03-26T22:33:12.896844,2.991028,-9.355936,1.684547,-0.008552,-0.062308,0.001221
2026-03-26T22:33:12.906844,3.000599,-9.346365,1.660618,-0.012217,-0.059864,-0.006108
2026-03-26T22:33:12.915844,3.034099,-9.308079,1.651047,-0.008552,-0.061086,-0.010995
2026-03-26T22:33:12.925844,3.029313,-9.308079,1.584048,-0.004886,-0.059864,-0.013439
2026-03-26T22:33:12.934844,3.086741,-9.298508,1.919043,0.020769,-0.094073,0.041538
2026-03-26T22:33:12.944844,3.172882,-9.332008,1.579262,0.013439,-0.075747,0.006108
2026-03-26T22:33:12.954844,3.048455,-9.332008,1.617548,0.009773,-0.058643,-0.012217
2026-03-26T22:33:12.963844,3.058027,-9.365507,1.612762,0.007330,-0.052534,-0.007330
2026-03-26T22:33:12.973844,3.053241,-9.312865,1.617548,0.009773,-0.053756,-0.007330
2026-03-26T22:33:12.983844,3.029313,-9.332008,1.593619,0.010995,-0.050090,-0.010995
2026-03-26T22:33:12.992844,3.019742,-9.351150,1.617548,0.010995,-0.050090,-0.017104
2026-03-26T22:33:13.002844,3.038884,-9.332008,1.722832,0.000000,-0.059864,-0.028099
2026-03-26T22:33:13.011844,3.058027,-9.389435,1.627119,-0.017104,-0.064751,-0.034208
2026-03-26T22:33:13.021844,3.000599,-9.341579,1.607976,-0.026878,-0.069638,-0.031764
2026-03-26T22:33:13.031844,3.053241,-9.308079,1.584048,-0.018325,-0.072082,-0.025656
2026-03-26T22:33:13.040844,3.115455,-9.379864,1.569691,-0.006108,-0.068416,-0.019547
2026-03-26T22:33:13.050844,3.096312,-9.346365,1.574477,0.007330,-0.057421,-0.001221
2026-03-26T22:33:13.059844,3.067598,-9.379864,1.579262,0.019547,-0.051312,0.014660
2026-03-26T22:33:13.069844,3.086741,-9.365507,1.603191,0.024434,-0.047647,0.025656
2026-03-26T22:33:13.079844,3.043670,-9.303294,1.631905,0.024434,-0.051312,0.026878
2026-03-26T22:33:13.088844,3.029313,-9.365507,1.574477,0.020769,-0.053756,0.020769
2026-03-26T22:33:13.098844,3.010170,-9.360722,1.655833,0.015882,-0.051312,0.013439
2026-03-26T22:33:13.108844,3.010170,-9.351150,1.598405,0.008552,-0.056199,0.004886
2026-03-26T22:33:13.117844,2.991028,-9.379864,1.670190,0.002443,-0.059864,-0.004886
2026-03-26T22:33:13.127844,3.062812,-9.312865,1.636690,-0.009773,-0.068416,-0.009773
2026-03-26T22:33:13.136844,3.038884,-9.360722,1.617548,-0.019547,-0.070860,-0.009773
2026-03-26T22:33:13.146844,3.072384,-9.384650,1.617548,-0.021991,-0.070860,-0.003665
2026-03-26T22:33:13.156844,3.062812,-9.317651,1.617548,-0.019547,-0.063529,-0.002443
2026-03-26T22:33:13.165844,3.067598,-9.336793,1.555334,-0.006108,-0.053756,-0.001221
2026-03-26T22:33:13.175844,3.038884,-9.351150,1.555334,0.008552,-0.045204,-0.001221
2026-03-26T22:33:13.184844,3.048455,-9.332008,1.598405,0.019547,-0.043982,0.000000
2026-03-26T22:33:13.194844,3.067598,-9.360722,1.579262,0.024434,-0.042760,0.000000
2026-03-26T22:33:13.204844,3.024527,-9.360722,1.636690,0.024434,-0.042760,-0.001221
2026-03-26T22:33:13.213844,3.058027,-9.341579,1.679761,0.023212,-0.043982,-0.002443
2026-03-26T22:33:13.223844,3.058027,-9.360722,1.579262,0.020769,-0.046425,-0.002443
2026-03-26T22:33:13.233844,3.034099,-9.288937,1.641476,0.018325,-0.048869,0.002443
2026-03-26T22:33:13.242844,3.043670,-9.375078,1.698904,0.009773,-0.056199,0.006108
2026-03-26T22:33:13.252844,3.062812,-9.346365,1.560120,0.006108,-0.058643,0.014660
2026-03-26T22:33:13.261844,2.933600,-9.370293,1.593619,0.004886,-0.062308,0.021991
2026-03-26T22:33:13.271844,3.038884,-9.370293,1.641476,0.007330,-0.065973,0.024434
2026-03-26T22:33:13.281844,3.010170,-9.322436,1.651047,0.010995,-0.058643,0.019547
2026-03-26T22:33:13.290844,2.976671,-9.379864,1.574477,0.015882,-0.054977,0.013439
2026-03-26T22:33:13.300844,3.019742,-9.389435,1.622333,0.021991,-0.053756,0.007330
2026-03-26T22:33:13.309844,2.986242,-9.365507,1.607976,0.024434,-0.048869,0.000000
2026-03-26T22:33:13.319844,3.034099,-9.327222,1.694118,0.024434,-0.043982,-0.006108
2026-03-26T22:33:13.329844,3.005385,-9.384650,1.655833,0.021991,-0.043982,-0.009773
2026-03-26T22:33:13.338844,3.029313,-9.389435,1.684547,0.015882,-0.052534,-0.010995
2026-03-26T22:33:13.348844,3.024527,-9.303294,1.607976,0.004886,-0.051312,-0.009773
2026-03-26T22:33:13.358844,3.062812,-9.403792,1.550549,0.008552,-0.050090,-0.008552
2026-03-26T22:33:13.367844,3.029313,-9.418149,1.622333,0.020769,-0.045204,-0.008552
2026-03-26T22:33:13.377844,3.029313,-9.317651,1.665404,0.028099,-0.043982,-0.009773
2026-03-26T22:33:13.386844,2.981456,-9.303294,1.646261,0.019547,-0.046425,-0.012217
2026-03-26T22:33:13.396844,3.053241,-9.341579,1.708475,0.004886,-0.054977,-0.010995
2026-03-26T22:33:13.406844,3.010170,-9.346365,1.641476,-0.008552,-0.057421,-0.008552
2026-03-26T22:33:13.415844,3.000599,-9.346365,1.593619,-0.012217,-0.061086,-0.009773
2026-03-26T22:33:13.425844,3.029313,-9.346365,1.526620,0.004886,-0.050090,-0.015882
2026-03-26T22:33:13.434844,3.010170,-9.298508,1.536192,0.030543,-0.037873,-0.020769
2026-03-26T22:33:13.444844,2.995813,-9.346365,1.641476,0.052534,-0.028099,-0.021991
2026-03-26T22:33:13.454844,3.048455,-9.336793,1.665404,0.059864,-0.026878,-0.019547
2026-03-26T22:33:13.463844,3.019742,-9.317651,1.698904,0.050090,-0.029321,-0.019547
2026-03-26T22:33:13.473844,2.976671,-9.365507,1.684547,0.034208,-0.037873,-0.023212
2026-03-26T22:33:13.483844,3.014956,-9.341579,1.684547,0.018325,-0.045204,-0.024434
2026-03-26T22:33:13.492844,3.038884,-9.322436,1.708475,0.003665,-0.054977,-0.025656
2026-03-26T22:33:13.502844,3.077169,-9.413364,1.631905,-0.002443,-0.051312,-0.024434
2026-03-26T22:33:13.511844,3.086741,-9.332008,1.584048,-0.001221,-0.048869,-0.024434
2026-03-26T22:33:13.521844,3.048455,-9.408578,1.627119,0.008552,-0.040317,-0.026878
2026-03-26T22:33:13.531844,3.024527,-9.284151,1.631905,0.015882,-0.036651,-0.030543
2026-03-26T22:33:13.540844,3.086741,-9.327222,1.694118,0.019547,-0.040317,-0.030543
2026-03-26T22:33:13.550844,3.072384,-9.341579,1.718046,0.014660,-0.045204,-0.025656
2026-03-26T22:33:13.559844,3.048455,-9.312865,1.617548,0.008552,-0.052534,-0.019547
2026-03-26T22:33:13.569844,3.072384,-9.355936,1.684547,0.007330,-0.053756,-0.012217
2026-03-26T22:33:13.579844,3.091526,-9.312865,1.655833,0.010995,-0.052534,-0.002443
2026-03-26T22:33:13.588844,3.072384,-9.360722,1.622333,0.017104,-0.052534,0.002443
2026-03-26T22:33:13.598844,3.053241,-9.375078,1.655833,0.018325,-0.045204,0.004886
2026-03-26T22:33:13.608844,3.019742,-9.403792,1.627119,0.026878,-0.039095,0.000000
2026-03-26T22:33:13.617844,3.024527,-9.355936,1.598405,0.035430,-0.035430,-0.007330
2026-03-26T22:33:13.627844,2.995813,-9.308079,1.651047,0.034208,-0.035430,-0.014660
2026-03-26T22:33:13.636844,3.038884,-9.360722,1.689332,0.021991,-0.036651,-0.023212
2026-03-26T22:33:13.646844,3.005385,-9.365507,1.679761,0.004886,-0.043982,-0.028099
2026-03-26T22:33:13.656844,3.081955,-9.355936,1.703689,-0.012217,-0.053756,-0.026878
2026-03-26T22:33:13.665844,3.053241,-9.351150,1.689332,-0.020769,-0.061086,-0.018325
2026-03-26T22:33:13.675844,3.081955,-9.379864,1.612762,-0.013439,-0.061086,-0.008552
2026-03-26T22:33:13.684844,3.091526,-9.365507,1.560120,0.007330,-0.058643,-0.001221
2026-03-26T22:33:13.694844,3.067598,-9.336793,1.593619,0.023212,-0.052534,0.003665
2026-03-26T22:33:13.704844,3.029313,-9.341579,1.679761,0.034208,-0.047647,0.004886
2026-03-26T22:33:13.713844,3.062812,-9.355936,1.641476,0.031764,-0.045204,0.004886
2026-03-26T22:33:13.723844,3.043670,-9.370293,1.689332,0.025656,-0.047647,0.003665
2026-03-26T22:33:13.733844,3.000599,-9.365507,1.603191,0.021991,-0.045204,-0.001221
2026-03-26T22:33:13.742844,3.067598,-9.336793,1.627119,0.026878,-0.036651,-0.012217
2026-03-26T22:33:13.752844,3.058027,-9.379864,1.741974,0.032986,-0.031764,-0.021991
2026-03-26T22:33:13.761844,2.976671,-9.317651,1.732403,0.026878,-0.037873,-0.025656
2026-03-26T22:33:13.771844,3.067598,-9.336793,1.722832,0.015882,-0.045204,-0.024434
2026-03-26T22:33:13.781844,3.067598,-9.408578,1.718046,0.002443,-0.056199,-0.018325
2026-03-26T22:33:13.790844,3.086741,-9.351150,1.665404,-0.007330,-0.062308,-0.006108
2026-03-26T22:33:13.800844,3.072384,-9.322436,1.627119,-0.014660,-0.067195,0.007330
2026-03-26T22:33:13.809844,3.058027,-9.399007,1.622333,-0.012217,-0.065973,0.020769
2026-03-26T22:33:13.819844,3.077169,-9.351150,1.607976,0.001221,-0.059864,0.031764
2026-03-26T22:33:13.829844,2.995813,-9.379864,1.622333,0.015882,-0.051312,0.034208
2026-03-26T22:33:13.838844,3.014956,-9.375078,1.622333,0.024434,-0.045204,0.025656
2026-03-26T22:33:13.848844,3.010170,-9.365507,1.737189,0.032986,-0.039095,0.014660
2026-03-26T22:33:13.858844,2.995813,-9.370293,1.732403,0.031764,-0.035430,0.006108
2026-03-26T22:33:13.867844,3.034099,-9.336793,1.670190,0.029321,-0.034208,-0.001221
2026-03-26T22:33:13.877844,3.043670,-9.351150,1.689332,0.014660,-0.041538,-0.007330
2026-03-26T22:33:13.886844,3.034099,-9.332008,1.674975,0.006108,-0.048869,-0.009773
2026-03-26T22:33:13.896844,3.043670,-9.360722,1.641476,0.001221,-0.051312,-0.008552
2026-03-26T22:33:13.906844,3.067598,-9.336793,1.593619,-0.002443,-0.051312,-0.003665
2026-03-26T22:33:13.915844,3.038884,-9.346365,1.689332,0.002443,-0.052534,-0.001221
2026-03-26T22:33:13.925844,2.991028,-9.322436,1.703689,-0.002443,-0.054977,0.003665
2026-03-26T22:33:13.934844,2.971885,-9.379864,1.741974,-0.009773,-0.062308,0.002443
2026-03-26T22:33:13.944844,2.967100,-9.312865,1.617548,-0.018325,-0.062308,-0.006108
2026-03-26T22:33:13.954844,2.986242,-9.317651,1.627119,-0.021991,-0.059864,-0.017104
2026-03-26T22:33:13.963844,3.081955,-9.322436,1.627119,-0.015882,-0.057421,-0.028099
2026-03-26T22:33:13.973844,3.000599,-9.360722,1.607976,-0.001221,-0.046425,-0.035430
2026-03-26T22:33:13.983844,3.058027,-9.370293,1.579262,0.008552,-0.036651,-0.034208
2026-03-26T22:33:13.992844,3.024527,-9.346365,1.660618,0.019547,-0.032986,-0.026878
2026-03-26T22:33:14.002844,2.981456,-9.355936,1.651047,0.024434,-0.034208,-0.020769
2026-03-26T22:33:14.011844,3.005385,-9.351150,1.674975,0.023212,-0.036651,-0.014660
2026-03-26T22:33:14.021844,3.043670,-9.365507,1.636690,0.019547,-0.043982,-0.009773
2026-03-26T22:33:14.031844,3.067598,-9.312865,1.670190,0.013439,-0.050090,-0.009773
2026-03-26T22:33:14.040844,2.986242,-9.360722,1.679761,0.004886,-0.053756,-0.007330
2026-03-26T22:33:14.050844,3.053241,-9.394221,1.708475,-0.003665,-0.059864,-0.012217
2026-03-26T22:33:14.059844,3.010170,-9.375078,1.679761,-0.014660,-0.065973,-0.017104
2026-03-26T22:33:14.069844,3.024527,-9.346365,1.627119,-0.014660,-0.058643,-0.023212
2026-03-26T22:33:14.079844,2.991028,-9.370293,1.560120,-0.010995,-0.052534,-0.024434
2026-03-26T22:33:14.088844,3.010170,-9.365507,1.631905,-0.004886,-0.045204,-0.028099
2026-03-26T22:33:14.098844,3.029313,-9.312865,1.651047,-0.002443,-0.042760,-0.029321
2026-03-26T22:33:14.108844,3.019742,-9.322436,1.718046,0.001221,-0.043982,-0.026878
2026-03-26T22:33:14.117844,3.067598,-9.293722,1.670190,0.002443,-0.047647,-0.023212
2026-03-26T22:33:14.127844,3.000599,-9.336793,1.631905,-0.006108,-0.057421,-0.015882
2026-03-26T22:33:14.136844,3.086741,-9.403792,1.641476,-0.013439,-0.064751,-0.012217
2026-03-26T22:33:14.146844,3.053241,-9.394221,1.612762,-0.018325,-0.072082,-0.010995
2026-03-26T22:33:14.156844,3.034099,-9.322436,1.660618,-0.014660,-0.068416,-0.014660
2026-03-26T22:33:14.165844,3.024527,-9.322436,1.593619,-0.010995,-0.067195,-0.019547
2026-03-26T22:33:14.175844,3.053241,-9.351150,1.612762,-0.003665,-0.067195,-0.018325
2026-03-26T22:33:14.184844,3.048455,-9.360722,1.641476,0.000000,-0.061086,-0.012217
2026-03-26T22:33:14.194844,3.096312,-9.351150,1.607976,0.010995,-0.054977,-0.009773
2026-03-26T22:33:14.204844,3.034099,-9.336793,1.536192,0.025656,-0.047647,-0.004886
2026-03-26T22:33:14.213844,3.072384,-9.360722,1.622333,0.036651,-0.037873,-0.003665
2026-03-26T22:33:14.223844,3.067598,-9.336793,1.603191,0.043982,-0.035430,-0.001221
2026-03-26T22:33:14.233844,3.034099,-9.403792,1.636690,0.035430,-0.040317,0.000000
2026-03-26T22:33:14.242844,3.029313,-9.317651,1.651047,0.018325,-0.048869,-0.004886
2026-03-26T22:33:14.252844,3.010170,-9.341579,1.670190,0.000000,-0.053756,-0.013439
2026-03-26T22:33:14.261844,3.048455,-9.375078,1.598405,-0.008552,-0.057421,-0.018325
2026-03-26T22:33:14.271844,3.101098,-9.293722,1.636690,-0.007330,-0.061086,-0.019547
2026-03-26T22:33:14.281844,3.034099,-9.327222,1.622333,-0.004886,-0.051312,-0.020769
2026-03-26T22:33:14.290844,3.062812,-9.370293,1.612762,0.008552,-0.041538,-0.021991
2026-03-26T22:33:14.300844,3.048455,-9.327222,1.631905,0.021991,-0.034208,-0.020769
2026-03-26T22:33:14.309844,3.038884,-9.317651,1.694118,0.017104,-0.037873,-0.019547
2026-03-26T22:33:14.319844,3.086741,-9.365507,1.627119,0.002443,-0.052534,-0.017104
2026-03-26T22:33:14.329844,3.081955,-9.322436,1.622333,-0.008552,-0.062308,-0.010995
2026-03-26T22:33:14.338844,3.048455,-9.322436,1.564905,-0.014660,-0.064751,0.000000
2026-03-26T22:33:14.348844,3.048455,-9.370293,1.641476,-0.009773,-0.062308,0.006108
2026-03-26T22:33:14.358844,3.014956,-9.360722,1.622333,0.001221,-0.059864,0.009773
2026-03-26T22:33:14.367844,3.010170,-9.355936,1.588834,0.007330,-0.056199,0.007330
2026-03-26T22:33:14.377844,2.995813,-9.327222,1.660618,0.008552,-0.056199,0.001221
2026-03-26T22:33:14.386844,3.077169,-9.346365,1.627119,0.006108,-0.053756,-0.008552
2026-03-26T22:33:14.396844,3.043670,-9.375078,1.646261,0.008552,-0.050090,-0.020769
2026-03-26T22:33:14.406844,3.043670,-9.379864,1.574477,0.019547,-0.041538,-0.026878
2026-03-26T22:33:14.415844,3.072384,-9.355936,1.646261,0.035430,-0.037873,-0.029321
2026-03-26T22:33:14.425844,3.053241,-9.355936,1.689332,0.037873,-0.039095,-0.026878
2026-03-26T22:33:14.434844,3.067598,-9.379864,1.665404,0.032986,-0.043982,-0.018325
2026-03-26T22:33:14.444844,3.129811,-9.365507,1.684547,0.020769,-0.043982,-0.010995
2026-03-26T22:33:14.454844,3.019742,-9.365507,1.660618,0.006108,-0.050090,-0.006108
2026-03-26T22:33:14.463844,2.976671,-9.379864,1.622333,0.002443,-0.052534,-0.002443
2026-03-26T22:33:14.473844,3.058027,-9.360722,1.574477,0.009773,-0.053756,-0.003665
2026-03-26T22:33:14.483844,3.019742,-9.360722,1.655833,0.023212,-0.048869,-0.008552
2026-03-26T22:33:14.492844,3.062812,-9.365507,1.651047,0.030543,-0.045204,-0.013439
2026-03-26T22:33:14.502844,3.038884,-9.351150,1.670190,0.025656,-0.047647,-0.017104
2026-03-26T22:33:14.511844,3.048455,-9.312865,1.684547,0.012217,-0.048869,-0.020769
2026-03-26T22:33:14.521844,3.005385,-9.322436,1.746760,-0.006108,-0.053756,-0.025656
2026-03-26T22:33:14.531844,3.038884,-9.312865,1.713260,-0.023212,-0.057421,-0.036651
2026-03-26T22:33:14.540844,3.043670,-9.351150,1.655833,-0.031764,-0.057421,-0.042760
2026-03-26T22:33:14.550844,3.081955,-9.360722,1.703689,-0.036651,-0.063529,-0.042760
2026-03-26T22:33:14.559844,3.101098,-9.370293,1.617548,-0.025656,-0.069638,-0.034208
2026-03-26T22:33:14.569844,3.120240,-9.375078,1.540977,-0.013439,-0.070860,-0.018325
2026-03-26T22:33:14.579844,3.105883,-9.293722,1.584048,0.000000,-0.068416,-0.002443
2026-03-26T22:33:14.588844,3.096312,-9.308079,1.555334,0.004886,-0.067195,0.004886
2026-03-26T22:33:14.598844,3.077169,-9.365507,1.598405,0.007330,-0.062308,0.010995
2026-03-26T22:33:14.608844,3.024527,-9.341579,1.631905,0.015882,-0.056199,0.013439
2026-03-26T22:33:14.617844,3.034099,-9.327222,1.531406,0.025656,-0.047647,0.013439
2026-03-26T22:33:14.627844,3.043670,-9.360722,1.631905,0.035430,-0.045204,0.009773
2026-03-26T22:33:14.636844,2.976671,-9.355936,1.674975,0.037873,-0.045204,0.007330
2026-03-26T22:33:14.646844,3.014956,-9.298508,1.665404,0.023212,-0.050090,0.002443
2026-03-26T22:33:14.656844,2.991028,-9.322436,1.689332,0.002443,-0.058643,-0.003665
2026-03-26T22:33:14.665844,3.038884,-9.346365,1.684547,-0.013439,-0.067195,-0.009773
2026-03-26T22:33:14.675844,3.048455,-9.360722,1.569691,-0.018325,-0.065973,-0.013439
2026-03-26T22:33:14.684844,3.081955,-9.375078,1.555334,-0.004886,-0.059864,-0.014660
2026-03-26T22:33:14.694844,3.086741,-9.351150,1.521835,0.024434,-0.048869,-0.013439
2026-03-26T22:33:14.704844,3.053241,-9.308079,1.617548,0.043982,-0.043982,-0.007330
2026-03-26T22:33:14.713844,3.062812,-9.355936,1.569691,0.053756,-0.043982,0.002443
2026-03-26T22:33:14.723844,3.043670,-9.355936,1.631905,0.048869,-0.046425,0.009773
2026-03-26T22:33:14.733844,3.072384,-9.360722,1.502692,0.046425,-0.040317,-0.001221
2026-03-26T22:33:14.742844,3.005385,-9.370293,1.598405,0.035430,-0.041538,0.008552
2026-03-26T22:33:14.752844,3.077169,-9.322436,1.746760,0.034208,-0.045204,0.009773
2026-03-26T22:33:14.761844,3.019742,-9.370293,1.646261,0.026878,-0.053756,0.007330
2026-03-26T22:33:14.771844,3.024527,-9.360722,1.651047,0.013439,-0.062308,0.007330
2026-03-26T22:33:14.781844,3.038884,-9.389435,1.674975,-0.003665,-0.064751,0.004886
2026-03-26T22:33:14.790844,2.995813,-9.370293,1.641476,-0.012217,-0.069638,-0.002443
2026-03-26T22:33:14.800844,3.029313,-9.370293,1.694118,-0.017104,-0.074525,-0.013439
2026-03-26T22:33:14.809844,3.058027,-9.360722,1.641476,-0.021991,-0.074525,-0.023212
2026-03-26T22:33:14.819844,3.029313,-9.360722,1.665404,-0.017104,-0.070860,-0.025656
2026-03-26T22:33:14.829844,3.024527,-9.327222,1.660618,-0.014660,-0.070860,-0.023212
2026-03-26T22:33:14.838844,3.091526,-9.355936,1.622333,-0.013439,-0.069638,-0.017104
2026-03-26T22:33:14.848844,3.053241,-9.332008,1.593619,-0.013439,-0.065973,-0.008552
2026-03-26T22:33:14.858844,3.053241,-9.355936,1.617548,-0.007330,-0.059864,-0.001221
2026-03-26T22:33:14.867844,3.053241,-9.346365,1.593619,0.003665,-0.054977,0.003665
2026-03-26T22:33:14.877844,3.053241,-9.351150,1.617548,0.014660,-0.053756,0.007330
2026-03-26T22:33:14.886844,3.014956,-9.312865,1.674975,0.021991,-0.053756,0.004886
2026-03-26T22:33:14.896844,3.048455,-9.375078,1.603191,0.024434,-0.056199,0.001221
2026-03-26T22:33:14.906844,3.081955,-9.336793,1.641476,0.015882,-0.063529,0.002443
2026-03-26T22:33:14.915844,3.058027,-9.336793,1.665404,0.008552,-0.068416,0.004886
2026-03-26T22:33:14.925844,3.086741,-9.312865,1.526620,0.007330,-0.068416,0.003665
2026-03-26T22:33:14.934844,3.034099,-9.360722,1.651047,0.017104,-0.062308,0.001221
2026-03-26T22:33:14.944844,3.029313,-9.346365,1.641476,0.024434,-0.054977,0.002443
2026-03-26T22:33:14.954844,3.081955,-9.408578,1.670190,0.024434,-0.054977,0.003665
2026-03-26T22:33:14.963844,3.091526,-9.375078,1.598405,0.020769,-0.053756,0.002443
2026-03-26T22:33:14.973844,3.053241,-9.375078,1.684547,0.018325,-0.052534,0.001221
2026-03-26T22:33:14.983844,2.976671,-9.370293,1.655833,0.021991,-0.045204,-0.002443
2026-03-26T22:33:14.992844,3.014956,-9.394221,1.627119,0.025656,-0.037873,-0.010995
2026-03-26T22:33:15.002844,2.971885,-9.332008,1.679761,0.030543,-0.034208,-0.020769
2026-03-26T22:33:15.011844,3.019742,-9.346365,1.684547,0.039095,-0.037873,-0.028099
2026-03-26T22:33:15.021844,3.034099,-9.332008,1.684547,0.037873,-0.039095,-0.031764
2026-03-26T22:33:15.031844,3.000599,-9.317651,1.718046,0.032986,-0.047647,-0.030543
2026-03-26T22:33:15.040844,3.034099,-9.332008,1.641476,0.020769,-0.059864,-0.028099
2026-03-26T22:33:15.050844,3.034099,-9.312865,1.679761,0.002443,-0.070860,-0.024434
2026-03-26T22:33:15.059844,3.072384,-9.355936,1.698904,-0.010995,-0.081855,-0.026878
2026-03-26T22:33:15.069844,3.101098,-9.355936,1.670190,-0.019547,-0.083077,-0.030543
2026-03-26T22:33:15.079844,3.105883,-9.274580,1.603191,-0.018325,-0.075747,-0.028099
2026-03-26T22:33:15.088844,3.077169,-9.336793,1.622333,-0.019547,-0.076969,-0.024434
2026-03-26T22:33:15.098844,3.101098,-9.346365,1.651047,-0.020769,-0.078190,-0.018325
2026-03-26T22:33:15.108844,3.005385,-9.327222,1.674975,-0.026878,-0.080634,-0.014660
2026-03-26T22:33:15.117844,3.058027,-9.288937,1.607976,-0.029321,-0.078190,-0.017104
2026-03-26T22:33:15.127844,3.053241,-9.308079,1.636690,-0.039095,-0.084299,-0.018325
2026-03-26T22:33:15.136844,3.043670,-9.394221,1.612762,-0.047647,-0.089186,-0.015882
2026-03-26T22:33:15.146844,3.077169,-9.346365,1.584048,-0.037873,-0.086742,-0.012217
2026-03-26T22:33:15.156844,3.062812,-9.346365,1.507478,-0.012217,-0.073303,-0.007330
2026-03-26T22:33:15.165844,3.110669,-9.308079,1.531406,0.015882,-0.050090,-0.006108
2026-03-26T22:33:15.175844,3.038884,-9.351150,1.550549,0.037873,-0.032986,-0.001221
2026-03-26T22:33:15.184844,3.072384,-9.279366,1.622333,0.045204,-0.028099,0.001221
2026-03-26T22:33:15.194844,2.991028,-9.308079,1.660618,0.041538,-0.032986,0.003665
2026-03-26T22:33:15.204844,3.048455,-9.370293,1.651047,0.025656,-0.040317,0.001221
2026-03-26T22:33:15.213844,3.081955,-9.322436,1.579262,0.007330,-0.050090,-0.002443
2026-03-26T22:33:15.223844,3.038884,-9.322436,1.684547,-0.004886,-0.053756,-0.006108
2026-03-26T22:33:15.233844,3.067598,-9.379864,1.574477,-0.001221,-0.052534,-0.008552
2026-03-26T22:33:15.242844,3.081955,-9.399007,1.526620,0.014660,-0.045204,-0.007330
2026-03-26T22:33:15.252844,3.110669,-9.327222,1.603191,0.031764,-0.041538,-0.003665
2026-03-26T22:33:15.261844,3.110669,-9.351150,1.536192,0.036651,-0.037873,0.006108
2026-03-26T22:33:15.271844,3.043670,-9.365507,1.564905,0.034208,-0.045204,0.019547
2026-03-26T22:33:15.281844,3.005385,-9.346365,1.684547,0.024434,-0.051312,0.024434
2026-03-26T22:33:15.290844,3.005385,-9.317651,1.636690,0.015882,-0.054977,0.023212
2026-03-26T22:33:15.300844,3.014956,-9.394221,1.579262,0.012217,-0.052534,0.019547
2026-03-26T22:33:15.309844,3.000599,-9.351150,1.641476,0.015882,-0.051312,0.009773
2026-03-26T22:33:15.319844,3.014956,-9.427721,1.655833,0.020769,-0.045204,0.001221
2026-03-26T22:33:15.329844,3.005385,-9.384650,1.646261,0.023212,-0.039095,-0.007330
2026-03-26T22:33:15.338844,3.058027,-9.327222,1.636690,0.019547,-0.039095,-0.014660
2026-03-26T22:33:15.348844,3.014956,-9.346365,1.598405,0.012217,-0.040317,-0.023212
2026-03-26T22:33:15.358844,3.005385,-9.317651,1.713260,0.004886,-0.047647,-0.025656
2026-03-26T22:33:15.367844,3.043670,-9.379864,1.617548,-0.006108,-0.050090,-0.021991
2026-03-26T22:33:15.377844,3.086741,-9.365507,1.617548,-0.006108,-0.053756,-0.014660
2026-03-26T22:33:15.386844,3.081955,-9.365507,1.579262,-0.002443,-0.056199,-0.004886
2026-03-26T22:33:15.396844,3.038884,-9.303294,1.574477,0.007330,-0.057421,0.001221
2026-03-26T22:33:15.406844,3.014956,-9.298508,1.603191,0.017104,-0.052534,0.001221
2026-03-26T22:33:15.415844,3.019742,-9.336793,1.617548,0.028099,-0.043982,0.000000
2026-03-26T22:33:15.425844,3.053241,-9.360722,1.694118,0.034208,-0.035430,-0.002443
2026-03-26T22:33:15.434844,3.048455,-9.365507,1.651047,0.029321,-0.037873,-0.004886
2026-03-26T22:33:15.444844,3.048455,-9.375078,1.655833,0.018325,-0.047647,-0.008552
2026-03-26T22:33:15.454844,3.019742,-9.389435,1.698904,0.004886,-0.052534,-0.009773
2026-03-26T22:33:15.463844,3.034099,-9.322436,1.588834,0.002443,-0.053756,-0.012217
2026-03-26T22:33:15.473844,3.034099,-9.312865,1.655833,0.004886,-0.051312,-0.015882
2026-03-26T22:33:15.483844,3.034099,-9.355936,1.588834,0.004886,-0.053756,-0.017104
2026-03-26T22:33:15.492844,3.129811,-9.346365,1.646261,0.006108,-0.056199,-0.015882
2026-03-26T22:33:15.502844,3.081955,-9.365507,1.603191,0.003665,-0.057421,-0.009773
2026-03-26T22:33:15.511844,3.048455,-9.288937,1.641476,0.004886,-0.054977,-0.004886
2026-03-26T22:33:15.521844,3.038884,-9.336793,1.622333,0.014660,-0.050090,-0.004886
2026-03-26T22:33:15.531844,3.034099,-9.370293,1.593619,0.025656,-0.045204,-0.004886
2026-03-26T22:33:15.540844,3.048455,-9.332008,1.631905,0.029321,-0.041538,-0.004886
2026-03-26T22:33:15.550844,3.038884,-9.265009,1.684547,0.017104,-0.048869,-0.007330
2026-03-26T22:33:15.559844,2.971885,-9.360722,1.684547,0.003665,-0.052534,-0.014660
2026-03-26T22:33:15.569844,3.024527,-9.379864,1.584048,-0.003665,-0.057421,-0.021991
2026-03-26T22:33:15.579844,3.072384,-9.375078,1.607976,-0.002443,-0.057421,-0.030543
2026-03-26T22:33:15.588844,3.067598,-9.384650,1.598405,0.002443,-0.052534,-0.030543
2026-03-26T22:33:15.598844,3.086741,-9.346365,1.646261,0.007330,-0.050090,-0.026878
2026-03-26T22:33:15.608844,3.062812,-9.317651,1.655833,0.009773,-0.051312,-0.021991
2026-03-26T22:33:15.617844,3.067598,-9.351150,1.588834,0.007330,-0.051312,-0.017104
2026-03-26T22:33:15.627844,3.077169,-9.341579,1.627119,0.003665,-0.051312,-0.013439
2026-03-26T22:33:15.636844,3.005385,-9.265009,1.622333,-0.001221,-0.053756,-0.010995
2026-03-26T22:33:15.646844,3.077169,-9.375078,1.612762,-0.006108,-0.054977,-0.010995
2026-03-26T22:33:15.656844,3.043670,-9.336793,1.651047,-0.002443,-0.051312,-0.013439
2026-03-26T22:33:15.665844,3.043670,-9.375078,1.574477,0.009773,-0.047647,-0.014660
2026-03-26T22:33:15.675844,3.062812,-9.365507,1.593619,0.018325,-0.042760,-0.017104
2026-03-26T22:33:15.684844,3.034099,-9.365507,1.612762,0.020769,-0.036651,-0.017104
2026-03-26T22:33:15.694844,3.072384,-9.370293,1.655833,0.023212,-0.037873,-0.015882
2026-03-26T22:33:15.704844,3.038884,-9.351150,1.631905,0.019547,-0.040317,-0.015882
2026-03-26T22:33:15.713844,3.086741,-9.322436,1.612762,0.012217,-0.042760,-0.015882
2026-03-26T22:33:15.723844,3.038884,-9.389435,1.679761,0.006108,-0.052534,-0.014660
2026-03-26T22:33:15.733844,3.067598,-9.355936,1.674975,-0.002443,-0.054977,-0.010995
2026-03-26T22:33:15.742844,3.038884,-9.355936,1.694118,-0.017104,-0.058643,-0.008552
2026-03-26T22:33:15.752844,3.048455,-9.355936,1.612762,-0.015882,-0.059864,-0.006108
2026-03-26T22:33:15.761844,3.077169,-9.370293,1.555334,-0.004886,-0.056199,-0.008552
2026-03-26T22:33:15.771844,3.058027,-9.403792,1.540977,0.009773,-0.048869,-0.003665
2026-03-26T22:33:15.781844,3.067598,-9.351150,1.617548,0.015882,-0.048869,-0.002443
2026-03-26T22:33:15.790844,3.053241,-9.327222,1.684547,0.009773,-0.056199,-0.002443
2026-03-26T22:33:15.800844,3.077169,-9.336793,1.636690,-0.001221,-0.058643,-0.003665
2026-03-26T22:33:15.809844,3.058027,-9.284151,1.636690,-0.008552,-0.059864,-0.006108
2026-03-26T22:33:15.819844,3.058027,-9.355936,1.564905,-0.006108,-0.058643,-0.010995
2026-03-26T22:33:15.829844,3.086741,-9.317651,1.584048,0.001221,-0.053756,-0.013439
2026-03-26T22:33:15.838844,3.086741,-9.322436,1.588834,0.008552,-0.053756,-0.010995
2026-03-26T22:33:15.848844,3.067598,-9.370293,1.622333,0.015882,-0.053756,-0.012217
2026-03-26T22:33:15.858844,3.043670,-9.403792,1.569691,0.006108,-0.054977,-0.010995
2026-03-26T22:33:15.867844,3.038884,-9.332008,1.627119,0.002443,-0.053756,-0.008552
2026-03-26T22:33:15.877844,3.019742,-9.327222,1.617548,0.003665,-0.052534,-0.006108
2026-03-26T22:33:15.886844,3.067598,-9.370293,1.641476,0.008552,-0.051312,-0.008552
2026-03-26T22:33:15.896844,2.995813,-9.389435,1.540977,0.015882,-0.050090,-0.012217
2026-03-26T22:33:15.906844,3.043670,-9.351150,1.646261,0.017104,-0.052534,-0.017104
2026-03-26T22:33:15.915844,3.058027,-9.317651,1.588834,0.018325,-0.052534,-0.018325
2026-03-26T22:33:15.925844,3.067598,-9.346365,1.607976,0.017104,-0.048869,-0.013439
2026-03-26T22:33:15.934844,3.048455,-9.351150,1.569691,0.021991,-0.047647,-0.006108
2026-03-26T22:33:15.944844,3.048455,-9.312865,1.646261,0.023212,-0.047647,-0.003665
2026-03-26T22:33:15.954844,3.024527,-9.379864,1.708475,0.014660,-0.048869,-0.006108
2026-03-26T22:33:15.963844,3.010170,-9.327222,1.655833,-0.001221,-0.058643,-0.012217
2026-03-26T22:33:15.973844,3.058027,-9.355936,1.617548,-0.015882,-0.067195,-0.015882
2026-03-26T22:33:15.983844,3.086741,-9.346365,1.579262,-0.024434,-0.073303,-0.017104
2026-03-26T22:33:15.992844,3.077169,-9.336793,1.550549,-0.019547,-0.073303,-0.010995
2026-03-26T22:33:16.002844,3.105883,-9.394221,1.584048,-0.009773,-0.065973,-0.006108
2026-03-26T22:33:16.011844,3.072384,-9.384650,1.588834,0.003665,-0.054977,-0.002443
2026-03-26T22:33:16.021844,3.019742,-9.351150,1.569691,0.010995,-0.045204,-0.001221
2026-03-26T22:33:16.031844,3.096312,-9.346365,1.641476,0.015882,-0.040317,-0.001221
2026-03-26T22:33:16.040844,3.014956,-9.322436,1.660618,0.020769,-0.030543,0.000000
2026-03-26T22:33:16.050844,3.034099,-9.399007,1.636690,0.020769,-0.031764,-0.001221
2026-03-26T22:33:16.059844,3.081955,-9.327222,1.665404,0.015882,-0.032986,-0.003665
2026-03-26T22:33:16.069844,3.077169,-9.375078,1.631905,0.010995,-0.037873,-0.010995
2026-03-26T22:33:16.079844,3.048455,-9.375078,1.579262,0.010995,-0.039095,-0.014660
2026-03-26T22:33:16.088844,3.120240,-9.332008,1.564905,0.017104,-0.039095,-0.014660
2026-03-26T22:33:16.098844,3.014956,-9.370293,1.612762,0.025656,-0.039095,-0.012217
2026-03-26T22:33:16.108844,3.110669,-9.336793,1.593619,0.032986,-0.041538,-0.008552
2026-03-26T22:33:16.117844,3.086741,-9.327222,1.689332,0.031764,-0.045204,-0.002443
2026-03-26T22:33:16.127844,2.976671,-9.322436,1.660618,0.020769,-0.053756,0.000000
2026-03-26T22:33:16.136844,3.053241,-9.375078,1.660618,0.007330,-0.058643,0.000000
2026-03-26T22:33:16.146844,3.005385,-9.370293,1.665404,-0.001221,-0.059864,-0.004886
2026-03-26T22:33:16.156844,3.062812,-9.303294,1.598405,-0.004886,-0.059864,-0.012217
2026-03-26T22:33:16.165844,3.019742,-9.327222,1.603191,0.003665,-0.052534,-0.017104
2026-03-26T22:33:16.175844,3.014956,-9.355936,1.607976,0.015882,-0.039095,-0.023212
2026-03-26T22:33:16.184844,3.067598,-9.389435,1.612762,0.029321,-0.030543,-0.028099
2026-03-26T22:33:16.194844,3.096312,-9.351150,1.703689,0.034208,-0.032986,-0.028099
2026-03-26T22:33:16.204844,3.067598,-9.327222,1.718046,0.024434,-0.042760,-0.024434
2026-03-26T22:33:16.213844,3.072384,-9.327222,1.708475,0.003665,-0.057421,-0.015882
2026-03-26T22:33:16.223844,3.029313,-9.317651,1.622333,-0.009773,-0.068416,-0.002443
2026-03-26T22:33:16.233844,3.091526,-9.360722,1.603191,-0.009773,-0.073303,0.010995
2026-03-26T22:33:16.242844,3.115455,-9.327222,1.564905,0.004886,-0.068416,0.024434
2026-03-26T22:33:16.252844,3.048455,-9.413364,1.617548,0.023212,-0.059864,0.025656
2026-03-26T22:33:16.261844,3.038884,-9.332008,1.579262,0.035430,-0.052534,0.025656
2026-03-26T22:33:16.271844,3.034099,-9.322436,1.655833,0.034208,-0.047647,0.019547
2026-03-26T22:33:16.281844,3.024527,-9.341579,1.713260,0.029321,-0.043982,0.008552
2026-03-26T22:33:16.290844,2.986242,-9.312865,1.665404,0.014660,-0.045204,-0.004886
2026-03-26T22:33:16.300844,3.053241,-9.298508,1.636690,-0.002443,-0.051312,-0.015882
2026-03-26T22:33:16.309844,3.034099,-9.284151,1.684547,-0.013439,-0.058643,-0.021991
2026-03-26T22:33:16.319844,3.086741,-9.351150,1.584048,-0.013439,-0.059864,-0.021991
2026-03-26T22:33:16.329844,3.105883,-9.408578,1.584048,-0.006108,-0.054977,-0.018325
2026-03-26T22:33:16.338844,3.081955,-9.346365,1.617548,0.000000,-0.050090,-0.010995
2026-03-26T22:33:16.348844,3.038884,-9.365507,1.598405,0.008552,-0.045204,-0.004886
2026-03-26T22:33:16.358844,3.058027,-9.322436,1.651047,0.010995,-0.045204,-0.007330
2026-03-26T22:33:16.367844,3.053241,-9.375078,1.646261,0.010995,-0.043982,-0.010995
2026-03-26T22:33:16.377844,3.024527,-9.370293,1.588834,0.004886,-0.042760,-0.018325
2026-03-26T22:33:16.386844,3.000599,-9.355936,1.694118,0.003665,-0.042760,-0.023212
2026-03-26T22:33:16.396844,3.034099,-9.336793,1.631905,-0.003665,-0.051312,-0.029321
2026-03-26T22:33:16.406844,3.034099,-9.346365,1.564905,-0.010995,-0.059864,-0.029321
2026-03-26T22:33:16.415844,3.043670,-9.355936,1.627119,-0.018325,-0.063529,-0.028099
2026-03-26T22:33:16.425844,3.105883,-9.332008,1.526620,-0.018325,-0.062308,-0.025656
2026-03-26T22:33:16.434844,3.072384,-9.327222,1.540977,-0.008552,-0.052534,-0.021991
2026-03-26T22:33:16.444844,3.120240,-9.384650,1.607976,0.008552,-0.041538,-0.014660
2026-03-26T22:33:16.454844,3.077169,-9.360722,1.622333,0.023212,-0.034208,-0.010995
2026-03-26T22:33:16.463844,3.053241,-9.341579,1.588834,0.032986,-0.025656,-0.007330
2026-03-26T22:33:16.473844,3.072384,-9.341579,1.588834,0.040317,-0.026878,-0.006108
2026-03-26T22:33:16.483844,3.077169,-9.332008,1.665404,0.037873,-0.029321,-0.003665
2026-03-26T22:33:16.492844,3.096312,-9.355936,1.674975,0.029321,-0.037873,0.000000
2026-03-26T22:33:16.502844,3.115455,-9.327222,1.674975,0.019547,-0.042760,-0.003665
2026-03-26T22:33:16.511844,3.096312,-9.355936,1.622333,0.017104,-0.043982,-0.007330
2026-03-26T22:33:16.521844,2.991028,-9.341579,1.631905,0.017104,-0.045204,-0.008552
2026-03-26T22:33:16.531844,3.048455,-9.288937,1.670190,0.014660,-0.045204,-0.007330
2026-03-26T22:33:16.540844,3.019742,-9.384650,1.641476,0.007330,-0.047647,-0.008552
2026-03-26T22:33:16.550844,3.058027,-9.298508,1.636690,0.001221,-0.051312,-0.004886
2026-03-26T22:33:16.559844,3.067598,-9.389435,1.651047,-0.001221,-0.047647,-0.002443
2026-03-26T22:33:16.569844,3.029313,-9.317651,1.612762,0.001221,-0.043982,-0.001221
2026-03-26T22:33:16.579844,3.038884,-9.375078,1.627119,0.008552,-0.042760,-0.001221
2026-03-26T22:33:16.588844,3.086741,-9.145367,1.574477,0.006108,-0.046425,0.001221
2026-03-26T22:33:16.598844,3.125026,-9.351150,1.646261,-0.015882,-0.056199,0.000000
2026-03-26T22:33:16.608844,3.029313,-9.332008,1.550549,-0.020769,-0.058643,0.002443
2026-03-26T22:33:16.617844,3.019742,-9.370293,1.665404,-0.012217,-0.056199,0.002443
2026-03-26T22:33:16.627844,3.043670,-9.389435,1.612762,-0.007330,-0.056199,0.003665
2026-03-26T22:33:16.636844,3.029313,-9.360722,1.607976,-0.002443,-0.056199,0.006108
2026-03-26T22:33:16.646844,3.024527,-9.317651,1.569691,-0.003665,-0.056199,0.003665
2026-03-26T22:33:16.656844,3.014956,-9.351150,1.564905,0.001221,-0.051312,0.003665
2026-03-26T22:33:16.665844,3.024527,-9.360722,1.584048,0.002443,-0.053756,0.000000
2026-03-26T22:33:16.675844,3.058027,-9.336793,1.607976,0.004886,-0.052534,0.000000
2026-03-26T22:33:16.684844,3.038884,-9.303294,1.598405,0.006108,-0.054977,0.000000
2026-03-26T22:33:16.694844,3.010170,-9.375078,1.622333,0.012217,-0.051312,-0.001221
2026-03-26T22:33:16.704844,3.058027,-9.379864,1.636690,0.015882,-0.052534,0.000000
2026-03-26T22:33:16.713844,3.019742,-9.360722,1.545763,0.018325,-0.051312,-0.003665
2026-03-26T22:33:16.723844,3.029313,-9.355936,1.617548,0.024434,-0.048869,-0.007330
2026-03-26T22:33:16.733844,3.067598,-9.370293,1.579262,0.035430,-0.041538,-0.009773
2026-03-26T22:33:16.742844,3.053241,-9.332008,1.579262,0.043982,-0.039095,-0.010995
2026-03-26T22:33:16.752844,3.038884,-9.308079,1.679761,0.046425,-0.040317,-0.014660
2026-03-26T22:33:16.761844,3.048455,-9.274580,1.641476,0.030543,-0.048869,-0.008552
2026-03-26T22:33:16.771844,3.077169,-9.351150,1.684547,0.014660,-0.054977,0.001221
2026-03-26T22:33:16.781844,3.086741,-9.288937,1.651047,0.008552,-0.059864,0.003665
2026-03-26T22:33:16.790844,2.995813,-9.312865,1.574477,0.007330,-0.061086,0.001221
2026-03-26T22:33:16.800844,2.957528,-9.312865,1.679761,0.001221,-0.062308,-0.007330
2026-03-26T22:33:16.809844,3.072384,-9.403792,1.617548,-0.009773,-0.064751,-0.012217
2026-03-26T22:33:16.819844,3.077169,-9.346365,1.622333,-0.009773,-0.064751,-0.015882
2026-03-26T22:33:16.829844,3.019742,-9.360722,1.574477,-0.003665,-0.058643,-0.017104
2026-03-26T22:33:16.838844,3.029313,-9.360722,1.607976,0.009773,-0.052534,-0.012217
2026-03-26T22:33:16.848844,3.048455,-9.379864,1.598405,0.019547,-0.045204,-0.007330
2026-03-26T22:33:16.858844,3.029313,-9.346365,1.560120,0.024434,-0.050090,-0.003665
2026-03-26T22:33:16.867844,3.034099,-9.336793,1.737189,0.023212,-0.050090,-0.001221
2026-03-26T22:33:16.877844,3.034099,-9.327222,1.718046,0.014660,-0.057421,0.003665
2026-03-26T22:33:16.886844,3.077169,-9.336793,1.636690,0.001221,-0.059864,0.002443
2026-03-26T22:33:16.896844,3.010170,-9.360722,1.689332,-0.006108,-0.062308,0.001221
2026-03-26T22:33:16.906844,3.029313,-9.360722,1.622333,0.000000,-0.058643,-0.004886
2026-03-26T22:33:16.915844,3.048455,-9.422935,1.598405,0.007330,-0.063529,-0.013439
2026-03-26T22:33:16.925844,3.000599,-9.341579,1.780260,0.000000,-0.057421,-0.010995
2026-03-26T22:33:16.934844,2.306680,-9.915856,2.541177,0.003665,-0.059864,-0.019547
2026-03-26T22:33:16.944844,2.780459,-9.422935,1.603191,-0.030543,-0.064751,0.000000
2026-03-26T22:33:16.954844,3.081955,-9.370293,1.569691,-0.030543,-0.072082,-0.010995
2026-03-26T22:33:16.963844,2.995813,-9.408578,1.493121,-0.006108,-0.065973,-0.021991
2026-03-26T22:33:16.973844,3.024527,-9.384650,1.708475,0.039095,-0.097738,-0.039095
2026-03-26T22:33:16.983844,2.890529,-9.427721,1.540977,0.018325,-0.062308,-0.006108
2026-03-26T22:33:16.992844,3.148954,-9.351150,1.713260,0.015882,-0.056199,-0.002443
2026-03-26T22:33:17.002844,3.072384,-9.389435,1.560120,0.007330,-0.061086,-0.004886
2026-03-26T22:33:17.011844,3.019742,-9.308079,1.665404,0.007330,-0.059864,-0.006108
2026-03-26T22:33:17.021844,3.067598,-9.370293,1.622333,0.007330,-0.054977,-0.010995
2026-03-26T22:33:17.031844,2.995813,-9.336793,1.555334,0.008552,-0.053756,-0.020769
2026-03-26T22:33:17.040844,3.014956,-9.351150,1.555334,0.004886,-0.057421,-0.029321
2026-03-26T22:33:17.050844,3.077169,-9.336793,1.708475,-0.001221,-0.068416,-0.032986
2026-03-26T22:33:17.059844,3.043670,-9.327222,1.603191,-0.010995,-0.078190,-0.024434
2026-03-26T22:33:17.069844,3.048455,-9.322436,1.598405,-0.014660,-0.084299,-0.013439
2026-03-26T22:33:17.079844,3.043670,-9.312865,1.574477,-0.013439,-0.091629,-0.004886
2026-03-26T22:33:17.088844,3.067598,-9.312865,1.603191,-0.010995,-0.095294,0.006108
2026-03-26T22:33:17.098844,3.038884,-9.355936,1.574477,-0.014660,-0.097738,0.012217
2026-03-26T22:33:17.108844,3.067598,-9.336793,1.569691,-0.008552,-0.089186,0.012217
2026-03-26T22:33:17.117844,3.048455,-9.394221,1.564905,0.000000,-0.078190,0.006108
2026-03-26T22:33:17.127844,3.034099,-9.355936,1.521835,0.013439,-0.064751,-0.003665
2026-03-26T22:33:17.136844,3.029313,-9.312865,1.560120,0.023212,-0.051312,-0.012217
2026-03-26T22:33:17.146844,3.081955,-9.346365,1.584048,0.028099,-0.046425,-0.014660
2026-03-26T22:33:17.156844,3.053241,-9.332008,1.674975,0.019547,-0.047647,-0.017104
2026-03-26T22:33:17.165844,3.067598,-9.413364,1.641476,0.007330,-0.063529,-0.019547
2026-03-26T22:33:17.175844,3.125026,-9.298508,1.603191,-0.001221,-0.070860,-0.017104
2026-03-26T22:33:17.184844,3.101098,-9.327222,1.598405,0.001221,-0.073303,-0.012217
2026-03-26T22:33:17.194844,3.077169,-9.346365,1.502692,0.008552,-0.070860,-0.004886
2026-03-26T22:33:17.204844,3.077169,-9.336793,1.612762,0.021991,-0.065973,0.002443
2026-03-26T22:33:17.213844,3.053241,-9.360722,1.545763,0.030543,-0.056199,0.007330
2026-03-26T22:33:17.223844,3.081955,-9.370293,1.598405,0.039095,-0.051312,0.006108
2026-03-26T22:33:17.233844,3.014956,-9.351150,1.603191,0.040317,-0.046425,0.000000
2026-03-26T22:33:17.242844,3.067598,-9.375078,1.593619,0.031764,-0.045204,-0.004886
2026-03-26T22:33:17.252844,3.024527,-9.317651,1.641476,0.023212,-0.047647,-0.008552
2026-03-26T22:33:17.261844,3.048455,-9.365507,1.612762,0.013439,-0.056199,-0.010995
2026-03-26T22:33:17.271844,3.086741,-9.399007,1.612762,0.008552,-0.056199,-0.010995
2026-03-26T22:33:17.281844,3.101098,-9.365507,1.627119,0.009773,-0.056199,-0.007330
2026-03-26T22:33:17.290844,3.096312,-9.365507,1.607976,0.012217,-0.054977,-0.006108
2026-03-26T22:33:17.300844,3.038884,-9.336793,1.617548,0.008552,-0.058643,-0.004886
2026-03-26T22:33:17.309844,3.067598,-9.288937,1.579262,0.002443,-0.059864,-0.003665
2026-03-26T22:33:17.319844,3.058027,-9.360722,1.579262,-0.002443,-0.063529,-0.003665
2026-03-26T22:33:17.329844,2.991028,-9.351150,1.512263,0.000000,-0.064751,-0.004886
2026-03-26T22:33:17.338844,3.053241,-9.355936,1.550549,0.002443,-0.067195,-0.004886
2026-03-26T22:33:17.348844,3.029313,-9.341579,1.507478,0.006108,-0.062308,-0.006108
2026-03-26T22:33:17.358844,3.038884,-9.399007,1.560120,0.017104,-0.051312,-0.008552
2026-03-26T22:33:17.367844,3.034099,-9.375078,1.550549,0.028099,-0.042760,-0.008552
2026-03-26T22:33:17.377844,3.053241,-9.389435,1.564905,0.037873,-0.036651,-0.009773
2026-03-26T22:33:17.386844,3.072384,-9.375078,1.574477,0.040317,-0.034208,-0.004886
2026-03-26T22:33:17.396844,3.086741,-9.336793,1.622333,0.035430,-0.039095,0.004886
2026-03-26T22:33:17.406844,3.144168,-9.389435,1.641476,0.029321,-0.045204,0.009773
2026-03-26T22:33:17.415844,3.091526,-9.360722,1.574477,0.025656,-0.047647,0.013439
2026-03-26T22:33:17.425844,3.062812,-9.389435,1.584048,0.029321,-0.050090,0.013439
2026-03-26T22:33:17.434844,3.019742,-9.336793,1.574477,0.036651,-0.046425,0.010995
2026-03-26T22:33:17.444844,2.995813,-9.322436,1.612762,0.036651,-0.050090,0.009773
2026-03-26T22:33:17.454844,3.024527,-9.355936,1.612762,0.024434,-0.057421,0.009773
2026-03-26T22:33:17.463844,3.062812,-9.351150,1.708475,0.004886,-0.065973,0.010995
2026-03-26T22:33:17.473844,3.029313,-9.336793,1.627119,-0.006108,-0.069638,0.010995
2026-03-26T22:33:17.483844,3.005385,-9.346365,1.555334,0.006108,-0.065973,0.010995
2026-03-26T22:33:17.492844,3.043670,-9.394221,1.569691,0.019547,-0.056199,0.009773
2026-03-26T22:33:17.502844,3.048455,-9.346365,1.617548,0.037873,-0.047647,0.012217
2026-03-26T22:33:17.511844,3.010170,-9.336793,1.627119,0.051312,-0.039095,0.017104
2026-03-26T22:33:17.521844,3.038884,-9.346365,1.655833,0.052534,-0.037873,0.021991
2026-03-26T22:33:17.531844,2.995813,-9.336793,1.655833,0.050090,-0.043982,0.028099
2026-03-26T22:33:17.540844,3.034099,-9.370293,1.588834,0.042760,-0.048869,0.028099
2026-03-26T22:33:17.550844,3.019742,-9.365507,1.651047,0.034208,-0.054977,0.023212
2026-03-26T22:33:17.559844,3.029313,-9.394221,1.593619,0.031764,-0.056199,0.014660
2026-03-26T22:33:17.569844,3.038884,-9.365507,1.636690,0.026878,-0.057421,0.009773
2026-03-26T22:33:17.579844,3.043670,-9.355936,1.646261,0.021991,-0.058643,0.010995
2026-03-26T22:33:17.588844,2.986242,-9.379864,1.655833,0.017104,-0.059864,0.012217
2026-03-26T22:33:17.598844,3.019742,-9.399007,1.622333,0.012217,-0.063529,0.008552
2026-03-26T22:33:17.608844,2.981456,-9.413364,1.665404,0.006108,-0.065973,0.001221
2026-03-26T22:33:17.617844,3.048455,-9.379864,1.631905,0.007330,-0.065973,-0.003665
2026-03-26T22:33:17.627844,2.991028,-9.351150,1.622333,0.013439,-0.061086,-0.003665
2026-03-26T22:33:17.636844,2.991028,-9.346365,1.674975,0.024434,-0.050090,-0.002443
2026-03-26T22:33:17.646844,3.005385,-9.418149,1.627119,0.030543,-0.042760,0.000000
2026-03-26T22:33:17.656844,3.000599,-9.384650,1.722832,0.031764,-0.040317,0.002443
2026-03-26T22:33:17.665844,2.976671,-9.394221,1.646261,0.021991,-0.042760,0.007330
2026-03-26T22:33:17.675844,3.034099,-9.355936,1.708475,0.013439,-0.050090,0.010995
2026-03-26T22:33:17.684844,3.038884,-9.355936,1.627119,0.006108,-0.056199,0.014660
2026-03-26T22:33:17.694844,2.991028,-9.403792,1.641476,0.002443,-0.061086,0.018325
2026-03-26T22:33:17.704844,2.967100,-9.389435,1.612762,0.007330,-0.058643,0.017104
2026-03-26T22:33:17.713844,2.986242,-9.403792,1.655833,0.009773,-0.053756,0.013439
2026-03-26T22:33:17.723844,3.010170,-9.355936,1.660618,0.012217,-0.050090,0.008552
2026-03-26T22:33:17.733844,3.024527,-9.341579,1.627119,0.014660,-0.043982,0.000000
2026-03-26T22:33:17.742844,2.952743,-9.389435,1.660618,0.012217,-0.036651,-0.006108
2026-03-26T22:33:17.752844,2.952743,-9.379864,1.746760,-0.004886,-0.036651,-0.008552
2026-03-26T22:33:17.761844,3.005385,-9.322436,1.550549,-0.017104,-0.037873,-0.017104
2026-03-26T22:33:17.771844,2.933600,-9.360722,1.627119,-0.015882,-0.028099,-0.026878
2026-03-26T22:33:17.781844,2.895315,-9.379864,1.655833,-0.007330,-0.020769,-0.036651
2026-03-26T22:33:17.790844,3.010170,-9.389435,1.622333,0.000000,-0.014660,-0.046425
2026-03-26T22:33:17.800844,2.986242,-9.332008,1.660618,0.000000,-0.015882,-0.047647
2026-03-26T22:33:17.809844,3.014956,-9.346365,1.622333,-0.004886,-0.023212,-0.041538
2026-03-26T22:33:17.819844,3.067598,-9.403792,1.679761,-0.002443,-0.032986,-0.030543
2026-03-26T22:33:17.829844,3.024527,-9.389435,1.593619,0.003665,-0.042760,-0.014660
2026-03-26T22:33:17.838844,2.991028,-9.355936,1.617548,0.010995,-0.048869,0.003665
2026-03-26T22:33:17.848844,3.005385,-9.370293,1.588834,0.025656,-0.047647,0.018325
2026-03-26T22:33:17.858844,3.043670,-9.379864,1.588834,0.045204,-0.046425,0.028099
2026-03-26T22:33:17.867844,3.072384,-9.360722,1.703689,0.059864,-0.041538,0.037873
2026-03-26T22:33:17.877844,3.000599,-9.375078,1.670190,0.064751,-0.039095,0.046425
2026-03-26T22:33:17.886844,2.995813,-9.293722,1.694118,0.062308,-0.036651,0.052534
2026-03-26T22:33:17.896844,2.971885,-9.336793,1.780260,0.050090,-0.037873,0.054977
2026-03-26T22:33:17.906844,2.957528,-9.322436,1.679761,0.035430,-0.040317,0.059864
2026-03-26T22:33:17.915844,2.957528,-9.375078,1.612762,0.029321,-0.039095,0.063529
2026-03-26T22:33:17.925844,2.943171,-9.427721,1.660618,0.032986,-0.034208,0.061086
2026-03-26T22:33:17.934844,2.943171,-9.399007,1.560120,0.052534,-0.024434,0.052534
2026-03-26T22:33:17.944844,2.904886,-9.379864,1.708475,0.069638,-0.014660,0.037873
2026-03-26T22:33:17.954844,2.924029,-9.384650,1.722832,0.061086,-0.021991,0.028099
2026-03-26T22:33:17.963844,2.857030,-9.303294,1.775474,0.036651,-0.030543,0.017104
2026-03-26T22:33:17.973844,2.938386,-9.389435,1.737189,0.012217,-0.040317,0.009773
2026-03-26T22:33:17.983844,2.924029,-9.408578,1.641476,0.001221,-0.047647,0.006108
2026-03-26T22:33:17.992844,2.995813,-9.389435,1.655833,0.000000,-0.043982,0.007330
2026-03-26T22:33:18.002844,2.904886,-9.379864,1.655833,0.013439,-0.032986,0.010995
2026-03-26T22:33:18.011844,2.957528,-9.403792,1.655833,0.025656,-0.024434,0.012217
2026-03-26T22:33:18.021844,2.885744,-9.351150,1.665404,0.034208,-0.024434,0.010995
2026-03-26T22:33:18.031844,2.952743,-9.355936,1.689332,0.031764,-0.023212,0.007330
2026-03-26T22:33:18.040844,2.943171,-9.379864,1.756331,0.023212,-0.030543,0.006108
2026-03-26T22:33:18.050844,2.919243,-9.379864,1.684547,0.019547,-0.036651,0.008552
2026-03-26T22:33:18.059844,2.947957,-9.332008,1.761117,0.019547,-0.040317,0.014660
2026-03-26T22:33:18.069844,2.952743,-9.427721,1.660618,0.020769,-0.039095,0.021991
2026-03-26T22:33:18.079844,2.933600,-9.355936,1.646261,0.035430,-0.052534,0.019547
2026-03-26T22:33:18.088844,2.861815,-9.322436,1.718046,0.037873,-0.037873,0.032986
2026-03-26T22:33:18.098844,2.794816,-9.461220,1.761117,0.041538,-0.042760,0.028099
2026-03-26T22:33:18.108844,2.770888,-9.365507,1.794616,0.028099,-0.042760,0.028099
2026-03-26T22:33:18.117844,2.890529,-9.408578,1.694118,0.020769,-0.042760,0.019547
2026-03-26T22:33:18.127844,2.876172,-9.399007,1.756331,0.023212,-0.042760,0.002443
2026-03-26T22:33:18.136844,2.904886,-9.399007,1.713260,0.025656,-0.031764,-0.010995
2026-03-26T22:33:18.146844,2.885744,-9.389435,1.684547,0.028099,-0.029321,-0.018325
2026-03-26T22:33:18.156844,2.904886,-9.413364,1.761117,0.024434,-0.030543,-0.021991
2026-03-26T22:33:18.165844,2.933600,-9.360722,1.746760,0.023212,-0.028099,-0.021991
2026-03-26T22:33:18.175844,2.900100,-9.365507,1.718046,0.019547,-0.029321,-0.021991
2026-03-26T22:33:18.184844,2.861815,-9.389435,1.770688,0.007330,-0.028099,-0.024434
2026-03-26T22:33:18.194844,2.876172,-9.379864,1.789831,-0.009773,-0.030543,-0.032986
2026-03-26T22:33:18.204844,2.928814,-9.322436,1.741974,-0.035430,-0.036651,-0.046425
2026-03-26T22:33:18.213844,2.818745,-9.384650,1.780260,-0.059864,-0.037873,-0.061086
2026-03-26T22:33:18.223844,2.880958,-9.360722,1.794616,-0.079412,-0.040317,-0.074525
2026-03-26T22:33:18.233844,2.861815,-9.360722,1.741974,-0.102625,-0.053756,-0.087964
2026-03-26T22:33:18.242844,2.852244,-9.403792,1.665404,-0.117286,-0.052534,-0.105068
2026-03-26T22:33:18.252844,2.919243,-9.107082,1.631905,-0.113620,-0.046425,-0.120951
2026-03-26T22:33:18.261844,3.062812,-9.494720,1.497906,-0.076969,-0.028099,-0.130725
2026-03-26T22:33:18.271844,2.991028,-9.442077,1.560120,-0.032986,-0.009773,-0.127059
2026-03-26T22:33:18.281844,3.005385,-9.279366,1.598405,0.002443,0.001221,-0.111177
2026-03-26T22:33:18.290844,3.081955,-9.317651,1.708475,0.019547,-0.006108,-0.086742
2026-03-26T22:33:18.300844,3.053241,-9.308079,1.689332,0.006108,-0.019547,-0.054977
2026-03-26T22:33:18.309844,3.029313,-9.293722,1.655833,-0.001221,-0.026878,-0.025656
2026-03-26T22:33:18.319844,3.081955,-9.365507,1.641476,0.012217,-0.023212,-0.006108
2026-03-26T22:33:18.329844,3.048455,-9.346365,1.660618,0.023212,-0.028099,0.015882
2026-03-26T22:33:18.338844,2.981456,-9.346365,1.598405,0.034208,-0.035430,0.028099
2026-03-26T22:33:18.348844,3.005385,-9.432506,1.564905,0.042760,-0.040317,0.036651
2026-03-26T22:33:18.358844,2.909672,-9.365507,1.679761,0.053756,-0.039095,0.037873
2026-03-26T22:33:18.367844,2.914457,-9.351150,1.722832,0.054977,-0.039095,0.031764
2026-03-26T22:33:18.377844,3.125026,-9.288937,1.794616,0.059864,-0.042760,0.020769
2026-03-26T22:33:18.386844,2.943171,-9.384650,1.631905,0.051312,-0.045204,0.019547
2026-03-26T22:33:18.396844,2.971885,-9.346365,1.703689,0.048869,-0.039095,0.023212
2026-03-26T22:33:18.406844,2.900100,-9.327222,1.665404,0.043982,-0.040317,0.024434
2026-03-26T22:33:18.415844,2.933600,-9.365507,1.722832,0.039095,-0.045204,0.024434
2026-03-26T22:33:18.425844,2.904886,-9.437292,1.665404,0.034208,-0.046425,0.021991
2026-03-26T22:33:18.434844,2.842673,-9.332008,1.660618,0.032986,-0.050090,0.015882
2026-03-26T22:33:18.444844,2.933600,-9.403792,1.756331,0.029321,-0.056199,0.008552
2026-03-26T22:33:18.454844,2.924029,-9.298508,1.794616,0.019547,-0.064751,0.007330
2026-03-26T22:33:18.463844,2.976671,-9.312865,1.708475,0.003665,-0.076969,0.002443
2026-03-26T22:33:18.473844,2.981456,-9.336793,1.651047,-0.007330,-0.092851,0.004886
2026-03-26T22:33:18.483844,2.991028,-9.432506,1.636690,-0.008552,-0.096516,0.006108
2026-03-26T22:33:18.492844,2.957528,-9.327222,1.651047,0.007330,-0.080634,0.008552
2026-03-26T22:33:18.502844,2.943171,-9.399007,1.651047,0.024434,-0.065973,0.013439
2026-03-26T22:33:18.511844,2.919243,-9.413364,1.641476,0.037873,-0.054977,0.014660
2026-03-26T22:33:18.521844,2.962314,-9.351150,1.703689,0.040317,-0.051312,0.013439
2026-03-26T22:33:18.531844,2.947957,-9.355936,1.785045,0.028099,-0.057421,0.008552
2026-03-26T22:33:18.540844,2.933600,-9.360722,1.765903,0.003665,-0.065973,0.007330
2026-03-26T22:33:18.550844,2.909672,-9.341579,1.804188,-0.012217,-0.073303,0.002443
2026-03-26T22:33:18.559844,2.885744,-9.403792,1.732403,-0.023212,-0.079412,-0.001221
2026-03-26T22:33:18.569844,2.933600,-9.370293,1.679761,-0.018325,-0.079412,-0.003665
2026-03-26T22:33:18.579844,2.914457,-9.399007,1.684547,-0.002443,-0.072082,-0.010995
2026-03-26T22:33:18.588844,2.933600,-9.341579,1.708475,0.007330,-0.070860,-0.015882
2026-03-26T22:33:18.598844,2.928814,-9.418149,1.703689,0.003665,-0.074525,-0.020769
2026-03-26T22:33:18.608844,2.900100,-9.389435,1.665404,0.000000,-0.078190,-0.024434
2026-03-26T22:33:18.617844,2.933600,-9.312865,1.651047,-0.008552,-0.081855,-0.029321
2026-03-26T22:33:18.627844,2.919243,-9.461220,1.674975,0.001221,-0.074525,-0.031764
2026-03-26T22:33:18.636844,2.919243,-9.379864,1.631905,0.014660,-0.062308,-0.032986
2026-03-26T22:33:18.646844,2.957528,-9.360722,1.703689,0.025656,-0.057421,-0.035430
2026-03-26T22:33:18.656844,2.938386,-9.332008,1.751546,0.030543,-0.051312,-0.037873
2026-03-26T22:33:18.665844,2.957528,-9.351150,1.727617,0.025656,-0.051312,-0.040317
2026-03-26T22:33:18.675844,2.943171,-9.332008,1.765903,0.017104,-0.056199,-0.037873
2026-03-26T22:33:18.684844,2.943171,-9.408578,1.694118,0.001221,-0.067195,-0.039095
2026-03-26T22:33:18.694844,2.919243,-9.312865,1.770688,-0.008552,-0.072082,-0.042760
2026-03-26T22:33:18.704844,3.062812,-9.738787,1.861615,-0.009773,-0.073303,-0.051312
2026-03-26T22:33:18.713844,3.005385,-9.585647,1.698904,-0.008552,-0.070860,-0.059864
2026-03-26T22:33:18.723844,2.952743,-9.279366,1.674975,-0.003665,-0.068416,-0.068416
2026-03-26T22:33:18.733844,2.919243,-9.341579,1.646261,0.002443,-0.062308,-0.075747
2026-03-26T22:33:18.742844,2.947957,-9.375078,1.713260,0.006108,-0.054977,-0.080634
2026-03-26T22:33:18.752844,3.019742,-9.360722,1.627119,0.010995,-0.054977,-0.081855
2026-03-26T22:33:18.761844,3.077169,-9.245866,2.100898,0.043982,-0.111177,-0.006108
2026-03-26T22:33:18.771844,3.196810,-9.274580,1.684547,0.015882,-0.079412,-0.068416
2026-03-26T22:33:18.781844,3.005385,-9.341579,1.627119,-0.003665,-0.063529,-0.085521
2026-03-26T22:33:18.790844,3.062812,-9.346365,1.674975,-0.007330,-0.065973,-0.065973
2026-03-26T22:33:18.800844,2.981456,-9.049655,1.674975,-0.007330,-0.072082,-0.042760
2026-03-26T22:33:18.809844,3.134597,-9.427721,1.574477,0.014660,-0.065973,-0.021991
2026-03-26T22:33:18.819844,3.134597,-9.389435,1.598405,0.036651,-0.058643,0.001221
2026-03-26T22:33:18.829844,3.067598,-9.298508,1.694118,0.052534,-0.054977,0.025656
2026-03-26T22:33:18.838844,3.120240,-9.518648,1.708475,0.057421,-0.054977,0.039095
2026-03-26T22:33:18.848844,3.014956,-9.269794,1.732403,0.052534,-0.065973,0.047647
2026-03-26T22:33:18.858844,3.005385,-9.365507,1.703689,0.046425,-0.070860,0.057421
2026-03-26T22:33:18.867844,3.091526,-9.533005,1.579262,0.050090,-0.067195,0.062308
2026-03-26T22:33:18.877844,3.010170,-9.312865,1.665404,0.051312,-0.063529,0.062308
2026-03-26T22:33:18.886844,3.019742,-9.427721,1.703689,0.056199,-0.054977,0.062308
2026-03-26T22:33:18.896844,2.991028,-9.418149,1.689332,0.054977,-0.047647,0.056199
2026-03-26T22:33:18.906844,2.943171,-9.298508,1.674975,0.058643,-0.041538,0.048869
2026-03-26T22:33:18.915844,2.895315,-9.298508,1.741974,0.058643,-0.035430,0.035430
2026-03-26T22:33:18.925844,2.943171,-9.446863,1.694118,0.048869,-0.032986,0.019547
2026-03-26T22:33:18.934844,2.914457,-9.418149,1.761117,0.030543,-0.036651,0.004886
2026-03-26T22:33:18.944844,2.861815,-9.346365,1.751546,0.012217,-0.043982,-0.014660
2026-03-26T22:33:18.954844,2.876172,-9.260223,1.732403,-0.003665,-0.050090,-0.032986
2026-03-26T22:33:18.963844,2.947957,-9.322436,1.818545,-0.012217,-0.057421,-0.053756
2026-03-26T22:33:18.973844,2.885744,-9.379864,1.741974,-0.015882,-0.061086,-0.069638
2026-03-26T22:33:18.983844,3.019742,-9.346365,1.770688,-0.012217,-0.054977,-0.083077
2026-03-26T22:33:18.992844,3.005385,-9.341579,1.746760,-0.010995,-0.048869,-0.086742
2026-03-26T22:33:19.002844,3.010170,-9.360722,1.732403,-0.007330,-0.050090,-0.083077
2026-03-26T22:33:19.011844,3.005385,-9.308079,1.732403,-0.007330,-0.056199,-0.073303
2026-03-26T22:33:19.021844,3.024527,-9.265009,1.785045,-0.009773,-0.059864,-0.062308
2026-03-26T22:33:19.031844,3.000599,-9.370293,1.756331,-0.008552,-0.062308,-0.053756
2026-03-26T22:33:19.040844,3.010170,-9.341579,1.655833,-0.006108,-0.064751,-0.048869
2026-03-26T22:33:19.050844,3.024527,-9.332008,1.694118,-0.003665,-0.059864,-0.047647
2026-03-26T22:33:19.059844,2.962314,-9.293722,1.751546,-0.004886,-0.056199,-0.047647
2026-03-26T22:33:19.069844,3.072384,-9.332008,1.670190,-0.008552,-0.056199,-0.045204
2026-03-26T22:33:19.079844,3.000599,-9.365507,1.694118,-0.008552,-0.057421,-0.041538
2026-03-26T22:33:19.088844,3.043670,-9.332008,1.741974,-0.012217,-0.059864,-0.035430
2026-03-26T22:33:19.098844,3.081955,-9.303294,1.660618,-0.015882,-0.062308,-0.026878
2026-03-26T22:33:19.108844,3.096312,-9.308079,1.679761,-0.007330,-0.062308,-0.012217
2026-03-26T22:33:19.117844,3.125026,-9.341579,1.718046,0.002443,-0.063529,0.006108
2026-03-26T22:33:19.127844,3.148954,-9.346365,1.751546,0.010995,-0.065973,0.023212
2026-03-26T22:33:19.136844,3.134597,-9.379864,1.694118,0.015882,-0.070860,0.042760
2026-03-26T22:33:19.146844,3.101098,-9.293722,1.756331,0.017104,-0.079412,0.062308
2026-03-26T22:33:19.156844,3.067598,-9.384650,1.718046,0.015882,-0.084299,0.084299
2026-03-26T22:33:19.165844,3.034099,-9.394221,1.737189,0.015882,-0.086742,0.097738
2026-03-26T22:33:19.175844,3.010170,-9.379864,1.684547,0.017104,-0.086742,0.106290
2026-03-26T22:33:19.184844,3.024527,-9.312865,1.569691,0.031764,-0.089186,0.096516
2026-03-26T22:33:19.194844,2.952743,-9.365507,1.722832,0.018325,-0.087964,0.100181
2026-03-26T22:33:19.204844,2.895315,-9.403792,1.727617,0.020769,-0.087964,0.084299
2026-03-26T22:33:19.213844,2.871387,-9.384650,1.636690,0.021991,-0.084299,0.067195
2026-03-26T22:33:19.223844,2.957528,-9.365507,1.718046,0.026878,-0.083077,0.057421
2026-03-26T22:33:19.233844,2.938386,-9.322436,1.703689,0.025656,-0.079412,0.056199
2026-03-26T22:33:19.242844,2.928814,-9.355936,1.674975,0.015882,-0.083077,0.062308
2026-03-26T22:33:19.252844,3.005385,-9.312865,1.641476,0.009773,-0.081855,0.073303
2026-03-26T22:33:19.261844,2.924029,-9.375078,1.641476,0.014660,-0.078190,0.084299
2026-03-26T22:33:19.271844,2.928814,-9.379864,1.636690,0.029321,-0.074525,0.090408
2026-03-26T22:33:19.281844,2.842673,-9.360722,1.689332,0.034208,-0.073303,0.087964
2026-03-26T22:33:19.290844,2.866601,-9.365507,1.737189,0.034208,-0.078190,0.076969
2026-03-26T22:33:19.300844,2.895315,-9.370293,1.722832,0.019547,-0.081855,0.058643
2026-03-26T22:33:19.309844,2.837887,-9.375078,1.789831,0.006108,-0.085521,0.041538
2026-03-26T22:33:19.319844,2.871387,-9.355936,1.727617,-0.006108,-0.089186,0.023212
2026-03-26T22:33:19.329844,2.890529,-9.408578,1.708475,-0.010995,-0.085521,0.009773
2026-03-26T22:33:19.338844,2.847458,-9.351150,1.689332,-0.012217,-0.078190,0.000000
2026-03-26T22:33:19.348844,2.857030,-9.432506,1.722832,-0.010995,-0.069638,-0.006108
2026-03-26T22:33:19.358844,2.871387,-9.399007,1.651047,-0.008552,-0.063529,-0.007330
2026-03-26T22:33:19.367844,2.933600,-9.384650,1.641476,-0.010995,-0.058643,-0.004886
2026-03-26T22:33:19.377844,2.914457,-9.355936,1.694118,-0.006108,-0.051312,0.000000
2026-03-26T22:33:19.386844,2.933600,-9.399007,1.689332,-0.004886,-0.047647,0.004886
2026-03-26T22:33:19.396844,2.837887,-9.355936,1.718046,-0.003665,-0.043982,0.003665
2026-03-26T22:33:19.406844,2.837887,-9.375078,1.732403,-0.009773,-0.040317,0.000000
2026-03-26T22:33:19.415844,2.823530,-9.418149,1.679761,-0.017104,-0.039095,-0.009773
2026-03-26T22:33:19.425844,2.861815,-9.370293,1.670190,-0.015882,-0.040317,-0.020769
2026-03-26T22:33:19.434844,2.871387,-9.360722,1.665404,-0.014660,-0.037873,-0.029321
2026-03-26T22:33:19.444844,2.928814,-9.255437,1.651047,-0.012217,-0.040317,-0.035430
2026-03-26T22:33:19.454844,2.861815,-9.360722,1.665404,-0.009773,-0.040317,-0.039095
2026-03-26T22:33:19.463844,2.804388,-9.288937,1.679761,-0.012217,-0.036651,-0.039095
2026-03-26T22:33:19.473844,2.876172,-9.308079,1.684547,-0.013439,-0.036651,-0.040317
2026-03-26T22:33:19.483844,2.938386,-9.332008,1.708475,-0.017104,-0.039095,-0.039095
2026-03-26T22:33:19.492844,2.866601,-9.355936,1.718046,-0.031764,-0.045204,-0.032986
2026-03-26T22:33:19.502844,2.928814,-9.418149,1.684547,-0.048869,-0.052534,-0.028099
2026-03-26T22:33:19.511844,2.909672,-9.370293,1.545763,-0.059864,-0.059864,-0.031764
2026-03-26T22:33:19.521844,2.890529,-9.466006,1.631905,-0.048869,-0.052534,-0.040317
2026-03-26T22:33:19.531844,2.909672,-9.403792,1.540977,-0.030543,-0.047647,-0.053756
2026-03-26T22:33:19.540844,2.971885,-9.403792,1.665404,-0.018325,-0.043982,-0.059864
2026-03-26T22:33:19.550844,2.928814,-9.298508,1.708475,-0.019547,-0.047647,-0.058643
2026-03-26T22:33:19.559844,3.038884,-9.389435,1.627119,-0.026878,-0.056199,-0.051312
2026-03-26T22:33:19.569844,3.005385,-9.365507,1.627119,-0.028099,-0.057421,-0.035430
2026-03-26T22:33:19.579844,2.928814,-9.399007,1.598405,-0.020769,-0.054977,-0.018325
2026-03-26T22:33:19.588844,2.962314,-9.394221,1.550549,-0.004886,-0.050090,0.002443
2026-03-26T22:33:19.598844,2.991028,-9.427721,1.670190,0.010995,-0.047647,0.026878
2026-03-26T22:33:19.608844,2.947957,-9.355936,1.607976,0.018325,-0.047647,0.052534
2026-03-26T22:33:19.617844,2.981456,-9.341579,1.655833,0.019547,-0.054977,0.069638
2026-03-26T22:33:19.627844,2.943171,-9.375078,1.655833,0.014660,-0.063529,0.081855
2026-03-26T22:33:19.636844,2.928814,-9.413364,1.660618,0.009773,-0.069638,0.087964
2026-03-26T22:33:19.646844,2.919243,-9.418149,1.579262,0.010995,-0.068416,0.086742
2026-03-26T22:33:19.656844,2.818745,-9.413364,1.641476,0.021991,-0.059864,0.080634
2026-03-26T22:33:19.665844,2.790031,-9.437292,1.588834,0.035430,-0.050090,0.069638
2026-03-26T22:33:19.675844,2.426322,-9.332008,1.679761,0.058643,-0.080634,0.052534
2026-03-26T22:33:19.684844,3.168097,-9.265009,1.818545,0.019547,-0.046425,0.083077
2026-03-26T22:33:19.694844,2.986242,-9.408578,1.622333,0.018325,-0.050090,0.065973
2026-03-26T22:33:19.704844,2.790031,-9.365507,1.593619,0.006108,-0.046425,0.064751
2026-03-26T22:33:19.713844,2.818745,-9.394221,1.684547,0.018325,-0.041538,0.052534
2026-03-26T22:33:19.723844,2.804388,-9.394221,1.612762,0.014660,-0.045204,0.034208
2026-03-26T22:33:19.733844,2.833101,-9.355936,1.708475,0.004886,-0.048869,0.014660
2026-03-26T22:33:19.742844,2.818745,-9.427721,1.641476,-0.009773,-0.058643,0.001221
2026-03-26T22:33:19.752844,2.837887,-9.456434,1.646261,-0.019547,-0.063529,-0.004886
2026-03-26T22:33:19.761844,2.761317,-9.418149,1.708475,-0.025656,-0.069638,-0.004886
2026-03-26T22:33:19.771844,2.818745,-9.456434,1.536192,-0.029321,-0.072082,0.002443
2026-03-26T22:33:19.781844,2.895315,-9.461220,1.517049,-0.004886,-0.069638,0.007330
2026-03-26T22:33:19.790844,2.847458,-9.446863,1.574477,0.018325,-0.062308,0.014660
2026-03-26T22:33:19.800844,2.857030,-9.418149,1.622333,0.031764,-0.057421,0.023212
2026-03-26T22:33:19.809844,2.871387,-9.403792,1.665404,0.024434,-0.054977,0.032986
2026-03-26T22:33:19.819844,2.833101,-9.403792,1.603191,0.015882,-0.057421,0.035430
2026-03-26T22:33:19.829844,2.876172,-9.399007,1.607976,0.007330,-0.058643,0.035430
2026-03-26T22:33:19.838844,2.871387,-9.231509,1.603191,0.006108,-0.059864,0.036651
2026-03-26T22:33:19.848844,2.794816,-9.485148,1.694118,0.003665,-0.057421,0.030543
2026-03-26T22:33:19.858844,2.699103,-9.403792,1.823330,0.015882,-0.054977,0.019547
2026-03-26T22:33:19.867844,2.723032,-9.489934,1.536192,-0.007330,-0.057421,0.013439
2026-03-26T22:33:19.877844,2.766102,-9.442077,1.646261,0.000000,-0.056199,0.003665
2026-03-26T22:33:19.886844,2.785245,-9.432506,1.512263,0.003665,-0.048869,-0.006108
2026-03-26T22:33:19.896844,2.823530,-9.375078,1.631905,0.010995,-0.036651,-0.012217
2026-03-26T22:33:19.906844,2.871387,-9.461220,1.722832,0.019547,-0.031764,-0.017104
2026-03-26T22:33:19.915844,2.823530,-9.403792,1.670190,0.015882,-0.032986,-0.015882
2026-03-26T22:33:19.925844,2.818745,-9.418149,1.670190,0.012217,-0.037873,-0.010995
2026-03-26T22:33:19.934844,2.785245,-9.427721,1.651047,0.004886,-0.046425,-0.009773
2026-03-26T22:33:19.944844,2.775674,-9.399007,1.631905,0.004886,-0.048869,-0.013439
2026-03-26T22:33:19.954844,2.794816,-9.451649,1.646261,0.007330,-0.052534,-0.014660
2026-03-26T22:33:19.963844,2.847458,-9.389435,1.617548,0.007330,-0.057421,-0.014660
2026-03-26T22:33:19.973844,2.813959,-9.451649,1.584048,-0.002443,-0.057421,-0.010995
2026-03-26T22:33:19.983844,2.818745,-9.422935,1.598405,-0.003665,-0.056199,-0.007330
2026-03-26T22:33:19.992844,2.818745,-9.446863,1.641476,0.003665,-0.056199,-0.002443
2026-03-26T22:33:20.002844,2.828316,-9.418149,1.655833,0.008552,-0.050090,0.001221
2026-03-26T22:33:20.011844,2.809173,-9.399007,1.550549,0.018325,-0.047647,-0.001221
2026-03-26T22:33:20.021844,2.833101,-9.399007,1.670190,0.018325,-0.047647,-0.008552
2026-03-26T22:33:20.031844,2.823530,-9.370293,1.679761,0.015882,-0.053756,-0.009773
2026-03-26T22:33:20.040844,2.813959,-9.437292,1.737189,0.003665,-0.062308,-0.009773
2026-03-26T22:33:20.050844,2.790031,-9.375078,1.689332,-0.012217,-0.069638,-0.009773
2026-03-26T22:33:20.059844,2.804388,-9.413364,1.593619,-0.023212,-0.073303,-0.013439
2026-03-26T22:33:20.069844,2.809173,-9.399007,1.584048,-0.021991,-0.070860,-0.014660
2026-03-26T22:33:20.079844,2.799602,-9.384650,1.631905,-0.009773,-0.061086,-0.013439
2026-03-26T22:33:20.088844,2.837887,-9.427721,1.674975,0.001221,-0.057421,-0.014660
2026-03-26T22:33:20.098844,2.833101,-9.437292,1.651047,0.006108,-0.057421,-0.014660
2026-03-26T22:33:20.108844,2.818745,-9.403792,1.727617,0.000000,-0.062308,-0.018325
2026-03-26T22:33:20.117844,2.804388,-9.427721,1.646261,-0.017104,-0.064751,-0.017104
2026-03-26T22:33:20.127844,2.823530,-9.384650,1.603191,-0.019547,-0.067195,-0.018325
2026-03-26T22:33:20.136844,2.866601,-9.418149,1.579262,-0.017104,-0.067195,-0.019547
2026-03-26T22:33:20.146844,2.828316,-9.442077,1.555334,-0.014660,-0.064751,-0.019547
2026-03-26T22:33:20.156844,2.818745,-9.399007,1.698904,-0.018325,-0.068416,-0.018325
2026-03-26T22:33:20.165844,2.919243,-9.351150,1.627119,-0.028099,-0.073303,-0.013439
2026-03-26T22:33:20.175844,2.876172,-9.389435,1.665404,-0.031764,-0.083077,-0.009773
2026-03-26T22:33:20.184844,2.852244,-9.485148,1.579262,-0.032986,-0.084299,0.000000
2026-03-26T22:33:20.194844,2.818745,-9.427721,1.540977,-0.018325,-0.075747,0.007330
2026-03-26T22:33:20.204844,2.866601,-9.399007,1.507478,0.000000,-0.059864,0.013439
2026-03-26T22:33:20.213844,2.833101,-9.489934,1.540977,0.014660,-0.047647,0.015882
2026-03-26T22:33:20.223844,2.804388,-9.418149,1.540977,0.020769,-0.041538,0.017104
2026-03-26T22:33:20.233844,2.770888,-9.379864,1.598405,0.021991,-0.041538,0.013439
2026-03-26T22:33:20.242844,2.761317,-9.341579,1.579262,0.021991,-0.042760,0.004886
2026-03-26T22:33:20.252844,2.818745,-9.399007,1.588834,0.019547,-0.040317,-0.004886
2026-03-26T22:33:20.261844,2.823530,-9.432506,1.607976,0.023212,-0.034208,-0.010995
2026-03-26T22:33:20.271844,2.847458,-9.427721,1.555334,0.025656,-0.034208,-0.019547
2026-03-26T22:33:20.281844,2.837887,-9.399007,1.646261,0.015882,-0.037873,-0.024434
2026-03-26T22:33:20.290844,2.847458,-9.394221,1.636690,-0.006108,-0.045204,-0.023212
2026-03-26T22:33:20.300844,2.799602,-9.375078,1.603191,-0.023212,-0.056199,-0.021991
2026-03-26T22:33:20.309844,2.857030,-9.475577,1.555334,-0.029321,-0.065973,-0.017104
2026-03-26T22:33:20.319844,2.837887,-9.480363,1.545763,-0.015882,-0.063529,-0.012217
2026-03-26T22:33:20.329844,2.828316,-9.442077,1.564905,0.008552,-0.054977,-0.006108
2026-03-26T22:33:20.338844,2.880958,-9.456434,1.612762,0.032986,-0.048869,-0.004886
2026-03-26T22:33:20.348844,2.861815,-9.379864,1.603191,0.034208,-0.043982,0.001221
2026-03-26T22:33:20.358844,2.804388,-9.427721,1.617548,0.028099,-0.047647,0.007330
2026-03-26T22:33:20.367844,2.790031,-9.418149,1.603191,0.020769,-0.050090,0.004886
2026-03-26T22:33:20.377844,2.828316,-9.384650,1.631905,0.014660,-0.048869,-0.003665
2026-03-26T22:33:20.386844,2.794816,-9.456434,1.612762,0.004886,-0.045204,-0.015882
2026-03-26T22:33:20.396844,2.799602,-9.461220,1.598405,-0.008552,-0.043982,-0.034208
2026-03-26T22:33:20.406844,2.861815,-9.422935,1.521835,-0.009773,-0.040317,-0.046425
2026-03-26T22:33:20.415844,2.847458,-9.260223,1.584048,-0.004886,-0.037873,-0.046425
2026-03-26T22:33:20.425844,2.852244,-9.403792,1.622333,0.003665,-0.036651,-0.040317
2026-03-26T22:33:20.434844,2.794816,-9.375078,1.598405,0.006108,-0.040317,-0.031764
2026-03-26T22:33:20.444844,2.828316,-9.437292,1.631905,0.001221,-0.043982,-0.023212
2026-03-26T22:33:20.454844,2.914457,-9.360722,1.665404,-0.020769,-0.047647,-0.010995
