Timestamp,Acceleration_X,Acceleration_Y,Acceleration_Z,Gyro_X,Gyro_Y,Gyro_Z
2026-01-18T19:52:04.175777,9.729216,-0.133998,1.048056,-0.021991,0.051312,0.046425
2026-01-18T19:52:04.185777,9.719645,-0.248853,1.076770,-0.050090,0.056199,0.052534
2026-01-18T19:52:04.194777,9.552147,-0.239282,1.081555,-0.067195,0.052534,0.056199
2026-01-18T19:52:04.204777,9.494720,-0.387637,1.129412,-0.076969,0.035430,0.054977
2026-01-18T19:52:04.213777,9.590432,-0.430708,1.186840,-0.067195,0.010995,0.052534
2026-01-18T19:52:04.223777,9.681360,-0.693918,1.081555,-0.037873,-0.012217,0.045204
2026-01-18T19:52:04.233777,9.891928,-0.684347,1.110269,0.019547,-0.021991,0.040317
2026-01-18T19:52:04.242777,10.006784,-0.641276,1.115055,0.083077,-0.017104,0.036651
2026-01-18T19:52:04.252777,10.078568,-0.468993,1.062413,0.122173,-0.003665,0.035430
2026-01-18T19:52:04.262777,10.092925,-0.253639,1.043270,0.117286,0.009773,0.042760
2026-01-18T19:52:04.271777,10.126425,-0.066999,0.990628,0.079412,0.021991,0.056199
2026-01-18T19:52:04.281777,10.116853,0.052642,0.990628,0.029321,0.029321,0.068416
2026-01-18T19:52:04.290777,9.958927,-0.052642,0.952343,-0.025656,0.037873,0.079412
2026-01-18T19:52:04.300777,9.911071,-0.162711,0.961914,-0.061086,0.030543,0.085521
2026-01-18T19:52:04.310777,9.781858,-0.239282,1.076770,-0.083077,0.019547,0.095294
2026-01-18T19:52:04.319777,9.868000,-0.435493,1.119840,-0.084299,0.007330,0.102625
2026-01-18T19:52:04.329777,9.853643,-0.478564,1.186840,-0.061086,0.003665,0.106290
2026-01-18T19:52:04.338777,9.896714,-0.468993,1.191625,-0.024434,0.006108,0.105068
2026-01-18T19:52:04.348777,9.901499,-0.430708,1.162911,0.009773,0.010995,0.103847
2026-01-18T19:52:04.358777,9.896714,-0.306281,1.134197,0.037873,0.015882,0.098960
2026-01-18T19:52:04.367777,9.781858,-0.157926,1.048056,0.047647,0.010995,0.095294
2026-01-18T19:52:04.377777,9.820143,-0.153140,0.961914,0.043982,-0.002443,0.094073
2026-01-18T19:52:04.387777,9.868000,-0.196211,0.995414,0.047647,-0.014660,0.091629
2026-01-18T19:52:04.396777,10.001998,-0.119641,1.062413,0.051312,-0.013439,0.086742
2026-01-18T19:52:04.406777,9.973284,-0.081355,0.966700,0.039095,-0.001221,0.086742
2026-01-18T19:52:04.415777,9.982855,-0.071784,0.976271,0.025656,0.010995,0.086742
2026-01-18T19:52:04.425777,9.824929,-0.167497,1.019342,0.012217,0.020769,0.085521
2026-01-18T19:52:04.435777,9.801001,-0.162711,1.095912,0.000000,0.013439,0.085521
2026-01-18T19:52:04.444777,9.786644,-0.110069,1.086341,-0.012217,-0.004886,0.086742
2026-01-18T19:52:04.454777,9.872786,-0.200997,1.129412,-0.015882,-0.018325,0.084299
2026-01-18T19:52:04.463777,9.891928,-0.224925,1.148554,-0.018325,-0.023212,0.087964
2026-01-18T19:52:04.473777,9.934999,-0.196211,1.148554,-0.021991,-0.018325,0.086742
2026-01-18T19:52:04.483777,9.930213,-0.186640,1.182054,-0.024434,-0.015882,0.085521
2026-01-18T19:52:04.492777,9.968498,-0.191425,1.172483,-0.023212,-0.017104,0.081855
2026-01-18T19:52:04.502777,10.035497,-0.157926,1.191625,-0.023212,-0.017104,0.080634
2026-01-18T19:52:04.512777,10.035497,-0.086141,1.205982,-0.031764,-0.015882,0.079412
2026-01-18T19:52:04.521777,9.997212,-0.133998,1.158126,-0.040317,0.000000,0.076969
2026-01-18T19:52:04.531777,9.834500,-0.191425,1.105484,-0.047647,0.010995,0.070860
2026-01-18T19:52:04.540777,9.777073,-0.186640,1.158126,-0.041538,0.009773,0.063529
2026-01-18T19:52:04.550777,9.676574,-0.215354,1.258624,-0.031764,-0.006108,0.057421
2026-01-18T19:52:04.560777,9.676574,-0.220139,1.277767,-0.034208,-0.029321,0.054977
2026-01-18T19:52:04.569777,9.772287,-0.282353,1.196411,-0.029321,-0.047647,0.053756
2026-01-18T19:52:04.579777,9.872786,-0.349352,1.244267,-0.014660,-0.053756,0.047647
2026-01-18T19:52:04.588777,9.968498,-0.311066,1.253839,0.000000,-0.057421,0.043982
2026-01-18T19:52:04.598777,10.006784,-0.320638,1.316052,0.018325,-0.056199,0.039095
2026-01-18T19:52:04.608777,10.030712,-0.334995,1.287338,0.039095,-0.045204,0.037873
2026-01-18T19:52:04.617777,10.016355,-0.263210,1.316052,0.043982,-0.036651,0.036651
2026-01-18T19:52:04.627777,10.001998,-0.234496,1.268195,0.040317,-0.024434,0.035430
2026-01-18T19:52:04.637777,9.939785,-0.239282,1.258624,0.034208,-0.010995,0.032986
2026-01-18T19:52:04.646777,9.925428,-0.191425,1.253839,0.028099,-0.006108,0.028099
2026-01-18T19:52:04.656777,9.791430,-0.162711,1.249053,0.023212,-0.012217,0.024434
2026-01-18T19:52:04.665777,9.738787,-0.205782,1.339980,0.030543,-0.019547,0.018325
2026-01-18T19:52:04.675777,9.848857,-0.133998,1.373480,0.030543,-0.017104,0.014660
2026-01-18T19:52:04.685777,9.748359,-0.162711,1.311266,0.026878,-0.012217,0.006108
2026-01-18T19:52:04.694777,9.762716,-0.081355,1.339980,0.023212,-0.008552,-0.001221
2026-01-18T19:52:04.704777,9.748359,-0.143569,1.277767,0.004886,-0.012217,-0.004886
2026-01-18T19:52:04.713777,9.786644,-0.124426,1.263410,-0.021991,-0.017104,-0.008552
2026-01-18T19:52:04.723777,9.882357,-0.124426,1.229910,-0.040317,-0.023212,-0.015882
2026-01-18T19:52:04.733777,9.882357,-0.153140,1.172483,-0.056199,-0.019547,-0.019547
2026-01-18T19:52:04.742777,9.944570,-0.244067,1.239482,-0.063529,-0.020769,-0.026878
2026-01-18T19:52:04.752777,9.997212,-0.291924,1.162911,-0.067195,-0.021991,-0.032986
2026-01-18T19:52:04.762777,10.068997,-0.282353,1.162911,-0.070860,-0.023212,-0.035430
2026-01-18T19:52:04.771777,10.059426,-0.291924,1.048056,-0.068416,-0.017104,-0.042760
2026-01-18T19:52:04.781777,10.049854,-0.287138,1.100698,-0.065973,-0.006108,-0.047647
2026-01-18T19:52:04.790777,9.925428,-0.287138,1.258624,-0.059864,0.001221,-0.053756
2026-01-18T19:52:04.800777,9.844072,-0.311066,1.277767,-0.052534,0.000000,-0.050090
2026-01-18T19:52:04.810777,9.805787,-0.334995,1.239482,-0.051312,-0.010995,-0.048869
2026-01-18T19:52:04.819777,9.786644,-0.387637,1.191625,-0.042760,-0.019547,-0.046425
2026-01-18T19:52:04.829777,9.753144,-0.397208,1.239482,-0.026878,-0.023212,-0.043982
2026-01-18T19:52:04.838777,9.700502,-0.382851,1.268195,-0.013439,-0.023212,-0.043982
2026-01-18T19:52:04.848777,9.695717,-0.488135,1.249053,0.004886,-0.031764,-0.042760
2026-01-18T19:52:04.858777,9.824929,-0.397208,1.301695,0.034208,-0.047647,-0.046425
2026-01-18T19:52:04.867777,9.877571,-0.425922,1.258624,0.056199,-0.061086,-0.050090
2026-01-18T19:52:04.877777,9.939785,-0.387637,1.191625,0.068416,-0.064751,-0.050090
2026-01-18T19:52:04.887777,10.016355,-0.311066,1.191625,0.083077,-0.053756,-0.050090
2026-01-18T19:52:04.896777,9.997212,-0.301495,1.210768,0.089186,-0.041538,-0.050090
2026-01-18T19:52:04.906777,9.925428,-0.263210,1.210768,0.083077,-0.037873,-0.043982
2026-01-18T19:52:04.915777,9.934999,-0.282353,1.244267,0.072082,-0.042760,-0.037873
2026-01-18T19:52:04.925777,9.911071,-0.258424,1.316052,0.053756,-0.042760,-0.032986
2026-01-18T19:52:04.935777,9.939785,-0.172283,1.316052,0.020769,-0.042760,-0.025656
2026-01-18T19:52:04.944777,9.920642,-0.177068,1.263410,-0.010995,-0.041538,-0.020769
2026-01-18T19:52:04.954777,9.954142,-0.215354,1.277767,-0.036651,-0.035430,-0.014660
2026-01-18T19:52:04.963777,9.915856,-0.234496,1.263410,-0.061086,-0.036651,-0.013439
2026-01-18T19:52:04.973777,9.963713,-0.282353,1.325623,-0.070860,-0.039095,-0.018325
2026-01-18T19:52:04.983777,9.920642,-0.392422,1.244267,-0.067195,-0.040317,-0.021991
2026-01-18T19:52:04.992777,9.930213,-0.459421,1.311266,-0.057421,-0.048869,-0.023212
2026-01-18T19:52:05.002777,9.920642,-0.468993,1.244267,-0.034208,-0.050090,-0.024434
2026-01-18T19:52:05.012777,9.949356,-0.435493,1.253839,-0.006108,-0.045204,-0.026878
2026-01-18T19:52:05.021777,9.968498,-0.459421,1.301695,0.015882,-0.039095,-0.025656
2026-01-18T19:52:05.031777,9.954142,-0.421136,1.320838,0.031764,-0.028099,-0.020769
2026-01-18T19:52:05.040777,9.834500,-0.330209,1.359123,0.030543,-0.019547,-0.014660
2026-01-18T19:52:05.050777,9.700502,-0.248853,1.320838,0.017104,-0.020769,-0.006108
2026-01-18T19:52:05.060777,9.777073,-0.205782,1.287338,-0.012217,-0.029321,0.002443
2026-01-18T19:52:05.069777,9.743573,-0.239282,1.354337,-0.041538,-0.048869,0.009773
2026-01-18T19:52:05.079777,9.844072,-0.392422,1.277767,-0.052534,-0.064751,0.017104
2026-01-18T19:52:05.088777,9.949356,-0.502492,1.320838,-0.043982,-0.069638,0.018325
2026-01-18T19:52:05.098777,9.963713,-0.588634,1.272981,-0.014660,-0.061086,0.017104
2026-01-18T19:52:05.108777,9.982855,-0.507278,1.229910,0.023212,-0.052534,0.013439
2026-01-18T19:52:05.117777,9.915856,-0.411565,1.292124,0.054977,-0.046425,0.010995
2026-01-18T19:52:05.127777,9.997212,-0.306281,1.320838,0.067195,-0.041538,0.014660
2026-01-18T19:52:05.137777,9.958927,-0.244067,1.272981,0.054977,-0.040317,0.024434
2026-01-18T19:52:05.146777,9.853643,-0.215354,1.277767,0.036651,-0.034208,0.026878
2026-01-18T19:52:05.156777,9.805787,-0.215354,1.196411,0.009773,-0.024434,0.034208
2026-01-18T19:52:05.165777,9.777073,-0.215354,1.287338,-0.014660,-0.023212,0.039095
2026-01-18T19:52:05.175777,9.729216,-0.349352,1.335195,-0.024434,-0.028099,0.043982
2026-01-18T19:52:05.185777,9.719645,-0.478564,1.282552,-0.013439,-0.042760,0.050090
2026-01-18T19:52:05.194777,9.810572,-0.387637,1.373480,0.007330,-0.062308,0.053756
2026-01-18T19:52:05.204777,10.016355,-0.363709,1.373480,0.030543,-0.074525,0.053756
2026-01-18T19:52:05.213777,10.092925,-0.358923,1.316052,0.047647,-0.068416,0.052534
2026-01-18T19:52:05.223777,10.179067,-0.258424,1.277767,0.056199,-0.046425,0.052534
2026-01-18T19:52:05.233777,10.150353,-0.191425,1.201196,0.054977,-0.023212,0.052534
2026-01-18T19:52:05.242777,10.035497,-0.138783,1.177268,0.040317,-0.009773,0.050090
2026-01-18T19:52:05.252777,9.882357,-0.148355,1.229910,0.020769,-0.008552,0.054977
2026-01-18T19:52:05.262777,9.872786,-0.133998,1.215553,-0.001221,-0.018325,0.053756
2026-01-18T19:52:05.271777,9.901499,-0.129212,1.234696,-0.019547,-0.025656,0.057421
2026-01-18T19:52:05.281777,9.839286,-0.186640,1.229910,-0.030543,-0.030543,0.063529
2026-01-18T19:52:05.290777,9.887142,-0.301495,1.253839,-0.026878,-0.031764,0.061086
2026-01-18T19:52:05.300777,9.930213,-0.234496,1.258624,-0.007330,-0.036651,0.058643
2026-01-18T19:52:05.310777,9.963713,-0.258424,1.301695,0.006108,-0.035430,0.058643
2026-01-18T19:52:05.319777,9.939785,-0.296710,1.225125,0.021991,-0.035430,0.054977
2026-01-18T19:52:05.329777,9.978070,-0.291924,1.210768,0.041538,-0.029321,0.052534
2026-01-18T19:52:05.338777,9.939785,-0.248853,1.177268,0.064751,-0.012217,0.048869
2026-01-18T19:52:05.348777,9.810572,-0.167497,1.172483,0.087964,0.001221,0.041538
2026-01-18T19:52:05.358777,9.777073,-0.114855,1.186840,0.091629,-0.008552,0.034208
2026-01-18T19:52:05.367777,9.767501,0.009571,1.153340,0.072082,-0.036651,0.030543
2026-01-18T19:52:05.377777,10.001998,0.009571,1.158126,0.045204,-0.068416,0.029321
2026-01-18T19:52:05.387777,10.174281,0.047856,1.110269,0.015882,-0.074525,0.026878
2026-01-18T19:52:05.396777,10.279565,-0.019142,1.196411,-0.017104,-0.056199,0.023212
2026-01-18T19:52:05.406777,10.212566,-0.066999,1.229910,-0.046425,-0.021991,0.020769
2026-01-18T19:52:05.415777,10.035497,-0.215354,1.220339,-0.061086,0.000000,0.021991
2026-01-18T19:52:05.425777,9.920642,-0.344566,1.201196,-0.052534,0.000000,0.021991
2026-01-18T19:52:05.435777,9.757930,-0.430708,1.138983,-0.021991,-0.015882,0.024434
2026-01-18T19:52:05.444777,9.796215,-0.430708,1.277767,0.020769,-0.036651,0.019547
2026-01-18T19:52:05.454777,9.839286,-0.358923,1.210768,0.062308,-0.050090,0.023212
2026-01-18T19:52:05.463777,9.963713,-0.234496,1.225125,0.090408,-0.054977,0.021991
2026-01-18T19:52:05.473777,9.954142,-0.129212,1.263410,0.107512,-0.047647,0.021991
2026-01-18T19:52:05.483777,9.934999,-0.047856,1.258624,0.097738,-0.030543,0.019547
2026-01-18T19:52:05.492777,9.882357,-0.028713,1.205982,0.067195,-0.020769,0.023212
2026-01-18T19:52:05.502777,9.853643,-0.119641,1.186840,0.034208,-0.023212,0.023212
2026-01-18T19:52:05.512777,9.762716,-0.181854,1.225125,0.019547,-0.030543,0.020769
2026-01-18T19:52:05.521777,9.805787,-0.253639,1.244267,0.012217,-0.040317,0.017104
2026-01-18T19:52:05.531777,9.882357,-0.205782,1.258624,0.020769,-0.050090,0.013439
2026-01-18T19:52:05.540777,9.958927,-0.263210,1.292124,0.029321,-0.053756,0.010995
2026-01-18T19:52:05.550777,10.035497,-0.244067,1.244267,0.029321,-0.051312,0.008552
2026-01-18T19:52:05.560777,10.097711,-0.291924,1.287338,0.028099,-0.043982,0.014660
2026-01-18T19:52:05.569777,10.083354,-0.344566,1.253839,0.025656,-0.029321,0.019547
2026-01-18T19:52:05.579777,10.102497,-0.378065,1.225125,0.024434,-0.019547,0.028099
2026-01-18T19:52:05.588777,9.944570,-0.354137,1.268195,0.025656,-0.009773,0.040317
2026-01-18T19:52:05.598777,9.863214,-0.373280,1.249053,0.035430,0.001221,0.050090
2026-01-18T19:52:05.608777,9.820143,-0.287138,1.268195,0.046425,-0.001221,0.054977
2026-01-18T19:52:05.617777,9.839286,-0.239282,1.196411,0.046425,-0.012217,0.058643
2026-01-18T19:52:05.627777,9.801001,-0.200997,1.282552,0.030543,-0.023212,0.056199
2026-01-18T19:52:05.637777,9.896714,-0.143569,1.263410,0.009773,-0.030543,0.054977
2026-01-18T19:52:05.646777,9.934999,-0.234496,1.316052,-0.003665,-0.032986,0.046425
2026-01-18T19:52:05.656777,9.915856,-0.277567,1.292124,-0.007330,-0.028099,0.042760
2026-01-18T19:52:05.665777,9.868000,-0.344566,1.272981,0.007330,-0.023212,0.037873
2026-01-18T19:52:05.675777,9.858429,-0.392422,1.320838,0.032986,-0.019547,0.032986
2026-01-18T19:52:05.685777,9.872786,-0.354137,1.306481,0.063529,-0.023212,0.030543
2026-01-18T19:52:05.694777,9.844072,-0.301495,1.330409,0.084299,-0.021991,0.026878
2026-01-18T19:52:05.704777,9.786644,-0.167497,1.378265,0.096516,-0.019547,0.023212
2026-01-18T19:52:05.713777,9.690931,-0.215354,1.445264,0.101403,-0.019547,0.018325
2026-01-18T19:52:05.723777,9.695717,-0.200997,1.430907,0.103847,-0.029321,0.010995
2026-01-18T19:52:05.733777,9.791430,-0.239282,1.421336,0.111177,-0.037873,0.003665
2026-01-18T19:52:05.742777,9.915856,-0.205782,1.373480,0.117286,-0.041538,-0.003665
2026-01-18T19:52:05.752777,9.973284,-0.157926,1.349551,0.112399,-0.036651,-0.008552
2026-01-18T19:52:05.762777,10.097711,-0.200997,1.320838,0.106290,-0.023212,-0.007330
2026-01-18T19:52:05.771777,10.145567,-0.148355,1.277767,0.081855,-0.003665,-0.003665
2026-01-18T19:52:05.781777,10.049854,-0.095712,1.239482,0.042760,0.017104,0.004886
2026-01-18T19:52:05.790777,10.040283,-0.138783,1.249053,0.007330,0.031764,0.010995
2026-01-18T19:52:05.800777,9.958927,-0.200997,1.186840,-0.035430,0.035430,0.017104
2026-01-18T19:52:05.810777,9.906285,-0.272781,1.167697,-0.062308,0.025656,0.025656
2026-01-18T19:52:05.819777,9.930213,-0.358923,1.220339,-0.057421,0.012217,0.029321
2026-01-18T19:52:05.829777,9.906285,-0.378065,1.138983,-0.037873,0.008552,0.028099
2026-01-18T19:52:05.838777,9.963713,-0.368494,1.182054,-0.009773,0.017104,0.028099
2026-01-18T19:52:05.848777,9.858429,-0.325423,1.153340,0.014660,0.031764,0.028099
2026-01-18T19:52:05.858777,9.820143,-0.239282,1.158126,0.023212,0.031764,0.028099
2026-01-18T19:52:05.867777,9.743573,-0.186640,1.009771,0.028099,0.019547,0.028099
2026-01-18T19:52:05.877777,9.772287,-0.172283,1.048056,0.031764,-0.001221,0.026878
2026-01-18T19:52:05.887777,9.834500,-0.157926,1.004985,0.021991,-0.015882,0.028099
2026-01-18T19:52:05.896777,9.815358,-0.071784,1.110269,0.006108,-0.019547,0.025656
2026-01-18T19:52:05.906777,9.896714,-0.095712,1.081555,-0.012217,-0.019547,0.019547
2026-01-18T19:52:05.915777,9.882357,-0.100498,1.138983,-0.030543,-0.015882,0.012217
2026-01-18T19:52:05.925777,9.815358,-0.215354,1.134197,-0.040317,-0.015882,0.006108
2026-01-18T19:52:05.935777,9.801001,-0.234496,1.205982,-0.031764,-0.025656,-0.001221
2026-01-18T19:52:05.944777,9.844072,-0.306281,1.124626,-0.013439,-0.041538,-0.006108
2026-01-18T19:52:05.954777,9.887142,-0.224925,1.148554,0.015882,-0.051312,-0.012217
2026-01-18T19:52:05.963777,9.958927,-0.162711,1.158126,0.037873,-0.062308,-0.018325
2026-01-18T19:52:05.973777,10.064211,-0.215354,1.129412,0.051312,-0.068416,-0.024434
2026-01-18T19:52:05.983777,10.016355,-0.200997,1.210768,0.064751,-0.064751,-0.024434
2026-01-18T19:52:05.992777,10.021141,-0.062213,1.249053,0.073303,-0.058643,-0.023212
2026-01-18T19:52:06.002777,9.973284,-0.028713,1.225125,0.069638,-0.043982,-0.023212
2026-01-18T19:52:06.012777,9.973284,0.066999,1.191625,0.052534,-0.035430,-0.021991
2026-01-18T19:52:06.021777,9.834500,0.105284,1.244267,0.035430,-0.034208,-0.024434
2026-01-18T19:52:06.031777,9.863214,0.133998,1.244267,0.007330,-0.048869,-0.021991
2026-01-18T19:52:06.040777,9.915856,0.038285,1.229910,-0.024434,-0.074525,-0.023212
2026-01-18T19:52:06.050777,10.073783,0.033499,1.268195,-0.040317,-0.079412,-0.025656
2026-01-18T19:52:06.060777,10.121639,0.028713,1.316052,-0.040317,-0.065973,-0.030543
2026-01-18T19:52:06.069777,10.073783,0.004785,1.301695,-0.029321,-0.048869,-0.041538
2026-01-18T19:52:06.079777,10.035497,0.114855,1.306481,-0.015882,-0.045204,-0.046425
2026-01-18T19:52:06.088777,10.040283,0.090927,1.272981,-0.013439,-0.052534,-0.047647
2026-01-18T19:52:06.098777,10.025926,0.205782,1.263410,-0.013439,-0.053756,-0.051312
2026-01-18T19:52:06.108777,10.011569,0.172283,1.349551,-0.007330,-0.051312,-0.057421
2026-01-18T19:52:06.117777,9.973284,0.282353,1.335195,-0.004886,-0.042760,-0.067195
2026-01-18T19:52:06.127777,9.834500,0.373280,1.316052,-0.017104,-0.031764,-0.075747
2026-01-18T19:52:06.137777,9.724431,0.315852,1.339980,-0.037873,-0.029321,-0.085521
2026-01-18T19:52:06.146777,9.757930,0.282353,1.301695,-0.057421,-0.043982,-0.098960
2026-01-18T19:52:06.156777,9.791430,0.143569,1.258624,-0.063529,-0.061086,-0.112399
2026-01-18T19:52:06.165777,9.848857,0.047856,1.306481,-0.054977,-0.072082,-0.124616
2026-01-18T19:52:06.175777,9.944570,0.047856,1.349551,-0.037873,-0.076969,-0.138055
2026-01-18T19:52:06.185777,9.978070,0.095712,1.397408,-0.023212,-0.074525,-0.149051
2026-01-18T19:52:06.194777,9.973284,0.100498,1.320838,-0.026878,-0.057421,-0.156381
2026-01-18T19:52:06.204777,9.920642,0.090927,1.249053,-0.034208,-0.045204,-0.161268
2026-01-18T19:52:06.213777,9.877571,0.019142,1.268195,-0.032986,-0.036651,-0.163711
2026-01-18T19:52:06.223777,9.844072,-0.095712,1.277767,-0.026878,-0.043982,-0.161268
2026-01-18T19:52:06.233777,9.839286,-0.129212,1.316052,-0.013439,-0.059864,-0.158824
2026-01-18T19:52:06.242777,9.925428,-0.071784,1.316052,0.006108,-0.069638,-0.155159
2026-01-18T19:52:06.252777,9.949356,-0.100498,1.320838,0.023212,-0.059864,-0.153938
2026-01-18T19:52:06.262777,9.968498,-0.038285,1.292124,0.034208,-0.043982,-0.152716
2026-01-18T19:52:06.271777,9.872786,0.043070,1.277767,0.029321,-0.032986,-0.150272
2026-01-18T19:52:06.281777,9.896714,0.076570,1.301695,0.012217,-0.035430,-0.145385
2026-01-18T19:52:06.290777,9.834500,0.052642,1.316052,-0.008552,-0.043982,-0.140498
2026-01-18T19:52:06.300777,9.896714,-0.009571,1.339980,-0.026878,-0.054977,-0.131946
2026-01-18T19:52:06.310777,10.030712,-0.086141,1.316052,-0.032986,-0.053756,-0.129503
2026-01-18T19:52:06.319777,10.092925,-0.095712,1.320838,-0.028099,-0.041538,-0.127059
2026-01-18T19:52:06.329777,10.088140,-0.086141,1.330409,-0.020769,-0.034208,-0.124616
2026-01-18T19:52:06.338777,10.126425,0.019142,1.311266,-0.018325,-0.029321,-0.116064
2026-01-18T19:52:06.348777,10.145567,0.076570,1.320838,-0.024434,-0.017104,-0.103847
2026-01-18T19:52:06.358777,10.097711,0.114855,1.287338,-0.039095,-0.002443,-0.094073
2026-01-18T19:52:06.367777,10.040283,0.177068,1.263410,-0.058643,0.009773,-0.085521
2026-01-18T19:52:06.377777,9.911071,0.196211,1.296909,-0.081855,0.009773,-0.075747
2026-01-18T19:52:06.387777,9.968498,0.138783,1.287338,-0.092851,0.001221,-0.064751
2026-01-18T19:52:06.396777,9.973284,0.162711,1.268195,-0.084299,-0.009773,-0.058643
2026-01-18T19:52:06.406777,9.930213,0.272781,1.359123,-0.061086,-0.012217,-0.058643
2026-01-18T19:52:06.415777,10.035497,0.301495,1.344766,-0.042760,-0.012217,-0.057421
2026-01-18T19:52:06.425777,10.040283,0.334995,1.387837,-0.039095,-0.008552,-0.057421
2026-01-18T19:52:06.435777,10.030712,0.454636,1.383051,-0.042760,-0.002443,-0.057421
2026-01-18T19:52:06.444777,10.112068,0.435493,1.292124,-0.047647,0.001221,-0.058643
2026-01-18T19:52:06.454777,10.088140,0.449850,1.378265,-0.043982,-0.009773,-0.062308
2026-01-18T19:52:06.463777,10.107282,0.382851,1.402194,-0.030543,-0.013439,-0.072082
2026-01-18T19:52:06.473777,10.174281,0.382851,1.464407,-0.013439,-0.019547,-0.084299
2026-01-18T19:52:06.483777,10.202995,0.334995,1.402194,0.020769,-0.028099,-0.095294
2026-01-18T19:52:06.492777,10.265208,0.445065,1.411765,0.056199,-0.032986,-0.108733
2026-01-18T19:52:06.502777,10.308279,0.488135,1.478764,0.078190,-0.023212,-0.123394
2026-01-18T19:52:06.512777,10.327422,0.531206,1.521835,0.096516,-0.012217,-0.138055
2026-01-18T19:52:06.521777,10.226923,0.564706,1.545763,0.100181,0.008552,-0.152716
2026-01-18T19:52:06.531777,10.126425,0.550349,1.569691,0.089186,0.028099,-0.163711
2026-01-18T19:52:06.540777,9.944570,0.449850,1.502692,0.076969,0.036651,-0.169820
2026-01-18T19:52:06.550777,9.848857,0.435493,1.483550,0.059864,0.035430,-0.172263
2026-01-18T19:52:06.560777,9.834500,0.306281,1.464407,0.035430,0.030543,-0.173485
2026-01-18T19:52:06.569777,9.801001,0.181854,1.478764,0.019547,0.020769,-0.171042
2026-01-18T19:52:06.579777,9.772287,-0.004785,1.435693,0.008552,0.014660,-0.164933
2026-01-18T19:52:06.588777,9.781858,-0.296710,1.363908,0.003665,0.007330,-0.157603
2026-01-18T19:52:06.598777,9.705288,-0.512064,1.277767,0.020769,0.012217,-0.145385
2026-01-18T19:52:06.608777,9.585647,-0.689132,1.191625,0.054977,0.030543,-0.131946
2026-01-18T19:52:06.617777,9.399007,-0.899701,1.244267,0.101403,0.046425,-0.119729
2026-01-18T19:52:06.627777,9.150153,-0.985842,1.249053,0.157603,0.054977,-0.106290
2026-01-18T19:52:06.637777,8.796015,-0.942772,1.287338,0.194255,0.058643,-0.092851
2026-01-18T19:52:06.646777,8.508877,-1.004985,1.292124,0.193033,0.047647,-0.075747
2026-01-18T19:52:06.656777,8.269594,-1.210768,1.167697,0.191811,0.008552,-0.052534
2026-01-18T19:52:06.665777,8.173882,-1.301695,1.239482,0.222354,-0.052534,-0.037873
2026-01-18T19:52:06.675777,8.303094,-1.402194,1.196411,0.293215,-0.113620,-0.036651
2026-01-18T19:52:06.685777,8.379664,-1.445264,1.119840,0.387288,-0.155159,-0.037873
2026-01-18T19:52:06.694777,8.327022,-1.430907,1.239482,0.485026,-0.163711,-0.041538
2026-01-18T19:52:06.704777,8.145168,-1.349551,1.191625,0.572991,-0.153938,-0.043982
2026-01-18T19:52:06.713777,7.901100,-1.392622,1.153340,0.648738,-0.135612,-0.031764
2026-01-18T19:52:06.723777,7.532605,-1.339980,1.368694,0.725707,-0.120951,-0.008552
2026-01-18T19:52:06.733777,7.226324,-1.177268,1.483550,0.758694,-0.114842,0.037873
2026-01-18T19:52:06.742777,6.915257,-1.158126,1.765903,0.736703,-0.100181,0.103847
2026-01-18T19:52:06.752777,6.570690,-0.952343,2.005185,0.701273,-0.074525,0.175929
2026-01-18T19:52:06.762777,6.116054,-0.866201,2.239681,0.635299,-0.042760,0.256563
2026-01-18T19:52:06.771777,5.718846,-0.751346,2.445464,0.541226,-0.028099,0.348193
2026-01-18T19:52:06.781777,5.379065,-0.870987,2.569891,0.458148,-0.025656,0.442266
2026-01-18T19:52:06.790777,5.125426,-0.985842,2.656033,0.421496,-0.021991,0.529009
2026-01-18T19:52:06.800777,4.991427,-1.019342,3.086741,0.472809,-0.021991,0.587652
2026-01-18T19:52:06.810777,5.230710,-0.851844,2.799602,0.537561,0.020769,0.635299
2026-01-18T19:52:06.819777,5.388636,-0.813559,2.340180,0.548556,0.140498,0.673173
2026-01-18T19:52:06.829777,5.278566,-0.626919,1.722832,0.535117,0.293215,0.712268
2026-01-18T19:52:06.838777,4.914857,-0.550349,1.612762,0.434935,0.405614,0.777020
2026-01-18T19:52:06.848777,4.728217,-0.756131,1.866401,0.265115,0.439822,0.874758
2026-01-18T19:52:06.858777,4.934000,-0.990628,2.105683,0.096516,0.419053,0.994488
2026-01-18T19:52:06.867777,5.158925,-1.296909,2.421536,-0.020769,0.397062,1.119104
2026-01-18T19:52:06.877777,5.489135,-1.368694,2.598605,-0.095294,0.392175,1.247386
2026-01-18T19:52:06.887777,5.742774,-1.521835,2.622533,-0.171042,0.425162,1.370781
2026-01-18T19:52:06.896777,5.785845,-1.737189,2.373680,-0.202807,0.470366,1.474628
2026-01-18T19:52:06.906777,5.757131,-1.986042,2.158325,-0.193033,0.507018,1.560149
2026-01-18T19:52:06.915777,5.704489,-2.234896,2.091326,-0.156381,0.500909,1.628566
2026-01-18T19:52:06.925777,5.982056,-2.455035,1.761117,-0.105068,0.455705,1.684765
2026-01-18T19:52:06.935777,6.527620,-2.679961,1.287338,-0.075747,0.408057,1.732413
2026-01-18T19:52:06.944777,7.369893,-3.067598,1.057627,-0.084299,0.422718,1.775174
2026-01-18T19:52:06.954777,7.977670,-3.795016,1.287338,-0.084299,0.497244,1.838703
2026-01-18T19:52:06.963777,8.293523,-4.819144,1.450050,-0.019547,0.508239,1.946216
2026-01-18T19:52:06.973777,8.575876,-5.714060,1.871187,0.164933,0.480139,2.036624
2026-01-18T19:52:06.983777,8.882157,-6.149554,2.129612,0.499687,0.502131,2.102597
2026-01-18T19:52:06.992777,8.982656,-6.025127,1.919043,0.878424,0.563217,2.156353
2026-01-18T19:52:07.002777,8.934799,-5.374279,1.751546,1.177747,0.620638,2.225992
2026-01-18T19:52:07.012777,8.882157,-4.512863,2.033899,1.339016,0.613308,2.313957
2026-01-18T19:52:07.021777,9.150153,-3.732803,2.431107,1.302364,0.549778,2.421469
2026-01-18T19:52:07.031777,9.858429,-3.460021,2.617747,1.110552,0.500909,2.527759
2026-01-18T19:52:07.040777,10.528419,-3.412165,2.215753,0.880867,0.554665,2.629163
2026-01-18T19:52:07.050777,10.791629,-3.436093,1.933400,0.653625,0.733038,2.717128
2026-01-18T19:52:07.060777,10.604989,-3.622733,2.009970,0.343306,0.933401,2.853961
2026-01-18T19:52:07.069777,10.159924,-4.426721,2.024327,-0.012217,1.065348,3.005456
2026-01-18T19:52:07.079777,9.466006,-5.508277,2.230110,-0.287106,1.100778,3.134959
2026-01-18T19:52:07.088777,9.145367,-6.939185,2.656033,-0.419053,1.022588,3.238806
2026-01-18T19:52:07.098777,9.269794,-8.054240,3.187239,-0.339641,0.855211,3.303558
2026-01-18T19:52:07.108777,9.978070,-8.575876,3.771088,-0.029321,0.667064,3.327993
2026-01-18T19:52:07.117777,10.849057,-8.350950,4.153940,0.388510,0.568104,3.327993
2026-01-18T19:52:07.127777,11.686545,-7.566105,4.752145,0.767246,0.641408,3.329214
2026-01-18T19:52:07.137777,12.059825,-6.460621,5.379065,1.023809,0.893084,3.338988
2026-01-18T19:52:07.146777,11.739187,-5.383850,5.149354,1.040914,1.244943,3.392744
2026-01-18T19:52:07.156777,10.705488,-4.953142,4.555934,0.810007,1.562592,3.478265
2026-01-18T19:52:07.165777,9.284151,-5.216353,4.211367,0.474031,1.733635,3.590665
2026-01-18T19:52:07.175777,8.221738,-5.862415,3.728017,0.098960,1.710422,3.726277
2026-01-18T19:52:07.185777,7.546962,-7.101897,3.254238,-0.221133,1.525941,3.867997
2026-01-18T19:52:07.194777,7.499106,-8.815158,3.522234,-0.431270,1.260825,3.997501
2026-01-18T19:52:07.204777,8.020741,-10.246066,3.464807,-0.432492,0.956614,4.120896
2026-01-18T19:52:07.213777,8.791230,-11.035697,3.871586,-0.058643,0.742811,4.111122
2026-01-18T19:52:07.223777,9.585647,-10.758130,4.800002,0.487470,0.686612,4.041483
2026-01-18T19:52:07.233777,10.155139,-9.963713,5.484349,1.045801,0.775798,3.944966
2026-01-18T19:52:07.242777,10.408778,-8.939585,5.469992,1.472184,0.974940,3.813020
2026-01-18T19:52:07.252777,10.073783,-7.920242,5.522634,1.671326,1.198517,3.711616
2026-01-18T19:52:07.262777,9.509077,-6.996613,4.546362,1.620014,1.370781,3.630982
2026-01-18T19:52:07.271777,8.561519,-6.608976,3.833301,1.329242,1.468519,3.534465
2026-01-18T19:52:07.281777,7.532605,-7.006184,3.684946,0.900415,1.430646,3.414735
2026-01-18T19:52:07.290777,6.685546,-8.035098,3.790230,0.423940,1.259603,3.297449
2026-01-18T19:52:07.300777,6.278766,-9.265009,4.709074,0.139277,1.050687,3.115412
2026-01-18T19:52:07.310777,6.297909,-10.279565,5.891129,0.085521,0.874758,2.889391
2026-01-18T19:52:07.319777,6.546762,-11.107482,6.824330,0.185702,0.801455,2.657263
2026-01-18T19:52:07.329777,6.690331,-11.274980,7.231109,0.449596,0.846659,2.388482
2026-01-18T19:52:07.338777,6.647261,-10.686345,7.312465,0.753807,0.934623,2.041511
2026-01-18T19:52:07.348777,6.407978,-9.982855,7.106683,0.919962,0.974940,1.660331
2026-01-18T19:52:07.358777,6.163911,-9.336793,7.269395,0.902858,0.941954,1.255938
2026-01-18T19:52:07.367777,6.005984,-8.891728,7.465606,0.795346,0.860098,0.824667
2026-01-18T19:52:07.377777,5.953342,-8.863014,7.456035,0.594982,0.734259,0.383623
2026-01-18T19:52:07.387777,6.068198,-9.255437,7.767102,0.360410,0.594982,-0.065973
2026-01-18T19:52:07.396777,6.293123,-9.561719,7.877171,0.208915,0.491135,-0.525343
2026-01-18T19:52:07.406777,6.273980,-9.509077,7.695317,0.041538,0.393397,-0.955393
2026-01-18T19:52:07.415777,6.149554,-9.647860,7.226324,-0.304210,0.234572,-1.312138
2026-01-18T19:52:07.425777,5.972485,-9.848857,6.800401,-0.643851,0.042760,-1.683544
2026-01-18T19:52:07.435777,5.848058,-10.030712,6.068198,-0.839328,-0.180816,-2.095267
2026-01-18T19:52:07.444777,5.910271,-10.595418,5.737988,-0.900415,-0.470366,-2.528981
2026-01-18T19:52:07.454777,6.522834,-11.140982,5.441278,-0.830776,-0.840550,-2.918713
2026-01-18T19:52:07.463777,7.365107,-11.179267,4.785645,-0.566882,-1.203404,-3.308445
2026-01-18T19:52:07.473777,8.245666,-10.432706,4.359722,-0.201585,-1.478293,-3.677407
2026-01-18T19:52:07.483777,8.920442,-9.226723,4.149154,0.140498,-1.670105,-4.001166
2026-01-18T19:52:07.492777,9.346365,-7.791030,4.359722,0.378736,-1.820378,-4.279720
2026-01-18T19:52:07.502777,9.734002,-6.513263,4.594219,0.371405,-1.979202,-4.489858
2026-01-18T19:52:07.512777,10.140782,-5.737988,5.039284,0.122173,-2.162462,-4.631579
2026-01-18T19:52:07.521777,10.868200,-5.288137,5.618347,-0.234572,-2.351830,-4.730539
2026-01-18T19:52:07.531777,12.011969,-5.843272,6.058626,-0.792902,-2.543642,-4.741535
2026-01-18T19:52:07.540777,13.864014,-7.776673,5.642275,-1.593136,-2.750114,-4.586375
2026-01-18T19:52:07.550777,15.682559,-9.753144,4.522434,-2.122145,-2.814866,-4.433658
2026-01-18T19:52:07.560777,16.902899,-10.461420,3.646661,-2.190562,-2.585181,-4.355468
2026-01-18T19:52:07.569777,16.587046,-10.035497,2.684746,-1.957211,-2.120923,-4.318816
2026-01-18T19:52:07.579777,14.979069,-8.977870,2.517249,-1.655444,-1.665218,-4.310264
2026-01-18T19:52:07.588777,12.863814,-8.087740,3.005385,-1.492954,-1.463632,-4.307820
2026-01-18T19:52:07.598777,11.590832,-8.102097,3.670589,-1.450193,-1.588249,-4.295603
2026-01-18T19:52:07.608777,11.619546,-9.087940,4.311866,-1.273042,-1.866803,-4.304155
2026-01-18T19:52:07.617777,12.662817,-9.844072,4.689932,-0.737925,-2.032959,-4.382346
2026-01-18T19:52:07.627777,13.801800,-9.303294,4.311866,0.031764,-1.937664,-4.487415
2026-01-18T19:52:07.637777,13.959727,-7.111468,2.828316,0.863763,-1.580918,-4.660900
2026-01-18T19:52:07.646777,12.725030,-4.058227,1.804188,1.428202,-1.182634,-4.776965
2026-01-18T19:52:07.656777,11.016555,-1.095912,1.071984,1.505171,-1.018923,-4.866151
2026-01-18T19:52:07.665777,9.667003,0.981057,0.703489,1.142317,-1.192408,-4.867373
2026-01-18T19:52:07.675777,9.906285,1.832902,2.172682,0.372627,-1.718974,-4.759860
2026-01-18T19:52:07.685777,12.160324,1.239482,2.751745,-0.702494,-2.366491,-4.487415
2026-01-18T19:52:07.694777,15.634702,-1.000199,2.794816,-1.736078,-2.726901,-4.194199
2026-01-18T19:52:07.704777,18.568302,-3.598805,2.847458,-2.315178,-2.520429,-3.936414
2026-01-18T19:52:07.713777,19.640287,-5.412564,2.665604,-2.320065,-1.839925,-3.718946
2026-01-18T19:52:07.723777,18.343378,-5.804987,2.608176,-1.966985,-1.028696,-3.549126
2026-01-18T19:52:07.733777,15.749558,-5.154139,2.435893,-1.521054,-0.426383,-3.409849
2026-01-18T19:52:07.742777,12.806386,-4.015156,1.852044,-1.147204,-0.180816,-3.275458
2026-01-18T19:52:07.752777,10.528419,-3.105883,1.287338,-0.907745,-0.251676,-3.144733
2026-01-18T19:52:07.762777,9.265009,-2.675175,0.617348,-0.728151,-0.494800,-3.028669
2026-01-18T19:52:07.771777,8.886943,-2.790031,0.574277,-0.487470,-0.769690,-2.910161
2026-01-18T19:52:07.781777,9.126225,-2.847458,0.545563,-0.195476,-0.949284,-2.800205
2026-01-18T19:52:07.790777,9.509077,-2.947957,0.459421,0.105068,-0.948062,-2.681697
2026-01-18T19:52:07.800777,9.446863,-2.790031,0.502492,0.353080,-0.777020,-2.550972
2026-01-18T19:52:07.810777,8.781658,-2.349751,0.708275,0.492357,-0.525343,-2.397034
2026-01-18T19:52:07.819777,7.671389,-1.856830,0.837487,0.509461,-0.309097,-2.238209
2026-01-18T19:52:07.829777,6.503691,-1.292124,0.909272,0.433714,-0.204028,-2.070832
2026-01-18T19:52:07.838777,5.580062,-0.708275,0.957129,0.261450,-0.273667,-1.903455
2026-01-18T19:52:07.848777,5.364708,-0.320638,0.870987,-0.006108,-0.508239,-1.718974
2026-01-18T19:52:07.858777,5.986842,-0.071784,0.808774,-0.302989,-0.794124,-1.541823
2026-01-18T19:52:07.867777,6.867400,0.296710,0.789631,-0.593760,-0.971275,-1.381776
2026-01-18T19:52:07.877777,7.570890,0.502492,0.784845,-0.939510,-0.935845,-1.221730
2026-01-18T19:52:07.887777,7.465606,0.526420,0.808774,-1.286481,-0.734259,-1.092226
2026-01-18T19:52:07.896777,6.613761,0.220139,0.942772,-1.599244,-0.465479,-0.995710
2026-01-18T19:52:07.906777,5.182853,-0.430708,1.009771,-1.847256,-0.282219,-0.912632
2026-01-18T19:52:07.915777,3.909872,-1.311266,1.426122,-1.942551,-0.254119,-0.834441
2026-01-18T19:52:07.925777,3.081955,-2.311466,1.540977,-1.861916,-0.354301,-0.774576
2026-01-18T19:52:07.935777,2.880958,-3.201596,1.674975,-1.602910,-0.499687,-0.725707
2026-01-18T19:52:07.944777,3.058027,-3.704089,1.832902,-1.172861,-0.612086,-0.695164
2026-01-18T19:52:07.954777,3.455235,-3.550948,1.866401,-0.634077,-0.636521,-0.686612
2026-01-18T19:52:07.963777,3.790230,-3.096312,1.962114,-0.101403,-0.559552,-0.690277
2026-01-18T19:52:07.973777,3.675375,-2.268395,1.923829,0.296880,-0.414166,-0.680503
2026-01-18T19:52:07.983777,3.354737,-1.502692,1.799402,0.530230,-0.268780,-0.654847
2026-01-18T19:52:07.992777,2.991028,-0.808774,1.789831,0.608421,-0.183259,-0.607199
2026-01-18T19:52:08.002777,2.665604,-0.334995,1.770688,0.572991,-0.189368,-0.540004
2026-01-18T19:52:08.012777,2.804388,-0.028713,1.756331,0.478918,-0.280997,-0.460592
2026-01-18T19:52:08.021777,3.383451,0.167497,1.885544,0.355523,-0.408057,-0.388510
2026-01-18T19:52:08.031777,4.197010,0.153140,2.072184,0.233350,-0.492357,-0.332310
2026-01-18T19:52:08.040777,5.077569,0.129212,2.220539,0.141720,-0.504574,-0.289550
2026-01-18T19:52:08.050777,5.876772,-0.023928,2.263610,0.079412,-0.465479,-0.256563
2026-01-18T19:52:08.060777,6.518048,-0.138783,2.445464,0.031764,-0.408057,-0.237015
2026-01-18T19:52:08.069777,7.164110,-0.397208,2.402393,0.000000,-0.349414,-0.217467
2026-01-18T19:52:08.079777,7.824529,-0.593420,2.201396,-0.024434,-0.287106,-0.190589
2026-01-18T19:52:08.088777,8.283951,-0.847059,1.981257,-0.052534,-0.212581,-0.158824
2026-01-18T19:52:08.098777,8.786444,-1.028913,1.689332,-0.068416,-0.119729,-0.119729
2026-01-18T19:52:08.108777,9.035298,-1.100698,1.641476,-0.057421,-0.018325,-0.078190
2026-01-18T19:52:08.117777,8.982656,-1.038485,1.617548,-0.034208,0.084299,-0.037873
2026-01-18T19:52:08.127777,8.930013,-0.770488,1.861615,-0.029321,0.174707,0.020769
2026-01-18T19:52:08.137777,8.752945,-0.679561,2.215753,-0.058643,0.227241,0.113620
2026-01-18T19:52:08.146777,8.528019,-0.746560,2.478964,-0.112399,0.293215,0.234572
2026-01-18T19:52:08.156777,8.197810,-0.808774,2.545963,-0.174707,0.422718,0.372627
2026-01-18T19:52:08.165777,7.484749,-0.914058,2.435893,-0.224798,0.593760,0.520457
2026-01-18T19:52:08.175777,6.518048,-0.976271,2.062613,-0.273667,0.764803,0.684168
2026-01-18T19:52:08.185777,5.326423,-0.947557,1.875972,-0.320093,0.860098,0.851545
2026-01-18T19:52:08.194777,4.158725,-1.043270,1.622333,-0.355523,0.857654,1.009149
2026-01-18T19:52:08.204777,3.254238,-1.182054,1.454836,-0.361632,0.766024,1.148426
2026-01-18T19:52:08.213777,2.880958,-1.526620,1.325623,-0.321315,0.604756,1.263269
2026-01-18T19:52:08.223777,3.043670,-2.005185,1.607976,-0.210137,0.406836,1.356120
2026-01-18T19:52:08.233777,3.890729,-2.593819,1.837687,-0.007330,0.229685,1.426980
2026-01-18T19:52:08.242777,5.125426,-3.034099,1.976471,0.305432,0.129503,1.495397
2026-01-18T19:52:08.252777,6.465406,-3.168097,2.120040,0.669508,0.153938,1.556484
2026-01-18T19:52:08.262777,7.513462,-2.847458,1.966900,1.044579,0.283441,1.621236
2026-01-18T19:52:08.271777,8.140382,-2.110469,1.622333,1.310916,0.485026,1.712865
2026-01-18T19:52:08.281777,8.274380,-1.263410,1.450050,1.391550,0.704938,1.841147
2026-01-18T19:52:08.290777,7.992027,-0.440279,1.225125,1.262047,0.896749,2.018298
2026-01-18T19:52:08.300777,7.355536,0.090927,1.115055,0.952949,1.018923,2.222327
2026-01-18T19:52:08.310777,6.819544,-0.143569,1.263410,0.571769,1.032362,2.430021
2026-01-18T19:52:08.319777,6.719045,-0.760917,1.378265,0.239459,0.924849,2.634050
2026-01-18T19:52:08.329777,7.144968,-1.727617,1.368694,0.068416,0.767246,2.814866
2026-01-18T19:52:08.338777,8.063812,-2.517249,1.737189,0.086742,0.682947,2.952921
2026-01-18T19:52:08.348777,8.968299,-2.909672,1.808973,0.216246,0.744033,3.056769
2026-01-18T19:52:08.358777,9.604789,-3.239881,1.272981,0.384845,0.901636,3.180163
2026-01-18T19:52:08.367777,9.729216,-3.263810,1.048056,0.634077,1.122770,3.269350
2026-01-18T19:52:08.377777,9.394221,-2.813959,0.928415,0.872315,1.301142,3.357314
2026-01-18T19:52:08.387777,8.805587,-2.354537,0.904486,0.967610,1.374446,3.463605
2026-01-18T19:52:08.396777,8.456235,-1.895115,1.076770,0.943175,1.331685,3.556456
2026-01-18T19:52:08.406777,8.446663,-1.665404,1.378265,0.816115,1.177747,3.640756
2026-01-18T19:52:08.415777,9.035298,-1.990828,1.832902,0.609643,0.960279,3.714059
2026-01-18T19:52:08.425777,10.068997,-2.689532,2.091326,0.414166,0.778242,3.771481
2026-01-18T19:52:08.435777,11.169695,-3.464807,1.952543,0.318871,0.709825,3.806911
2026-01-18T19:52:08.444777,12.083754,-4.340580,1.761117,0.343306,0.785572,3.794694
2026-01-18T19:52:08.454777,12.586246,-5.130211,1.277767,0.510683,0.989601,3.783698
2026-01-18T19:52:08.463777,12.533604,-5.441278,0.942772,0.830776,1.251051,3.748268
2026-01-18T19:52:08.473777,11.810972,-5.350351,1.320838,1.166752,1.516167,3.729942
2026-01-18T19:52:08.483777,10.834700,-4.857429,1.454836,1.395215,1.654222,3.780033
2026-01-18T19:52:08.492777,9.896714,-4.187439,1.847259,1.470963,1.615127,3.850893
2026-01-18T19:52:08.502777,9.499505,-3.661018,2.431107,1.270599,1.422093,3.968179
2026-01-18T19:52:08.512777,9.796215,-3.670589,2.828316,0.916297,1.139874,4.106235
2026-01-18T19:52:08.521777,10.724630,-4.197010,3.105883,0.558330,0.875980,4.211304
2026-01-18T19:52:08.531777,11.877971,-5.307280,3.101098,0.232128,0.730594,4.254064
2026-01-18T19:52:08.540777,12.734601,-6.647261,2.785245,0.075747,0.745255,4.249177
2026-01-18T19:52:08.550777,13.088739,-7.436892,2.498106,0.136833,0.839328,4.221077
2026-01-18T19:52:08.560777,12.949955,-7.762316,1.990828,0.335975,0.955393,4.164878
2026-01-18T19:52:08.569777,12.519247,-7.671389,1.981257,0.542448,1.069013,4.096461
2026-01-18T19:52:08.579777,11.844471,-7.427321,1.981257,0.728151,1.114217,4.040261
2026-01-18T19:52:08.588777,11.207981,-7.073183,2.718246,0.896749,1.093448,3.982840
2026-01-18T19:52:08.598777,10.868200,-6.857829,3.785445,0.913854,0.990823,3.970623
2026-01-18T19:52:08.608777,11.102696,-7.087540,4.575076,0.768468,0.839328,4.009718
2026-01-18T19:52:08.617777,11.471191,-7.412964,4.642075,0.548556,0.778242,4.059809
2026-01-18T19:52:08.627777,11.475977,-8.087740,4.823930,0.283441,0.839328,4.080578
2026-01-18T19:52:08.637777,11.054840,-9.001798,4.962714,0.140498,0.923628,4.052479
2026-01-18T19:52:08.646777,10.523633,-10.068997,5.087140,0.097738,0.937067,4.026822
2026-01-18T19:52:08.656777,10.207781,-10.796415,5.163711,0.158824,0.849102,3.990170
2026-01-18T19:52:08.665777,10.145567,-11.011769,5.436492,0.333532,0.736703,3.915645
2026-01-18T19:52:08.675777,10.121639,-11.121839,5.388636,0.450818,0.679282,3.839898
2026-01-18T19:52:08.685777,10.006784,-10.944770,5.824130,0.647517,0.713490,3.722611
2026-01-18T19:52:08.694777,9.399007,-10.571490,5.795416,0.836885,0.828333,3.569895
2026-01-18T19:52:08.704777,8.513662,-10.509276,5.532205,0.928514,0.966388,3.393966
2026-01-18T19:52:08.713777,7.336394,-10.083354,6.139982,1.092226,1.044579,3.175276
2026-01-18T19:52:08.723777,6.154339,-9.528219,5.838487,1.134987,1.007927,3.004234
2026-01-18T19:52:08.733777,5.225924,-9.475577,5.876772,1.032362,0.911410,2.753779
2026-01-18T19:52:08.742777,4.713860,-9.662217,6.671189,1.010370,0.769690,2.382373
2026-01-18T19:52:08.752777,4.737788,-9.796215,7.015755,1.009149,0.579100,1.974316
2026-01-18T19:52:08.762777,5.101497,-9.915856,6.910471,1.004262,0.447153,1.544267
2026-01-18T19:52:08.771777,5.307280,-9.638289,7.039684,1.084896,0.461814,1.071457
2026-01-18T19:52:08.781777,5.067998,-8.618947,6.589833,1.192408,0.522900,0.607199
2026-01-18T19:52:08.790777,4.488935,-7.317251,6.029912,1.166752,0.540004,0.152716
2026-01-18T19:52:08.800777,3.818944,-6.216553,6.336194,0.948062,0.444709,-0.290771
2026-01-18T19:52:08.810777,3.594019,-5.690132,6.628118,0.602312,0.205250,-0.741590
2026-01-18T19:52:08.819777,4.029513,-5.804987,7.432106,0.252898,-0.083077,-1.231504
2026-01-18T19:52:08.829777,4.977071,-6.647261,7.915457,-0.061086,-0.323758,-1.729969
2026-01-18T19:52:08.838777,6.082555,-7.824529,7.537391,-0.364075,-0.467922,-2.163684
2026-01-18T19:52:08.848777,6.838686,-9.236295,7.140182,-0.649960,-0.502131,-2.525316
2026-01-18T19:52:08.858777,7.164110,-10.394421,6.159125,-0.899193,-0.481361,-2.797762
2026-01-18T19:52:08.867777,6.991827,-11.030912,5.374279,-0.974940,-0.476474,-3.079981
2026-01-18T19:52:08.877777,6.618547,-11.102696,5.441278,-0.911410,-0.555887,-3.354871
2026-01-18T19:52:08.887777,6.293123,-10.748559,5.010570,-0.871093,-0.748920,-3.567452
2026-01-18T19:52:08.896777,6.321837,-10.092925,5.216353,-0.753807,-0.994488,-3.800802
2026-01-18T19:52:08.906777,6.891329,-9.030512,5.374279,-0.594982,-1.258382,-4.041483
2026-01-18T19:52:08.915777,7.637889,-8.169096,5.268995,-0.471587,-1.474628,-4.284607
2026-01-18T19:52:08.925777,8.499305,-7.460820,5.039284,-0.343306,-1.624901,-4.547279
2026-01-18T19:52:08.935777,9.418149,-7.470392,4.599005,-0.502131,-1.771508,-4.691444
2026-01-18T19:52:08.944777,10.480562,-8.417949,3.651447,-0.950506,-1.929112,-4.695108
2026-01-18T19:52:08.954777,11.447263,-9.408578,3.105883,-1.265712,-2.052506,-4.701217
2026-01-18T19:52:08.963777,12.050254,-10.054640,2.349751,-1.513723,-2.109928,-4.674339
2026-01-18T19:52:08.973777,12.667602,-10.681560,3.560520,-1.634675,-2.217440,-4.559497
2026-01-18T19:52:08.983777,13.753944,-10.585847,4.938785,-1.463632,-2.337169,-4.466645
2026-01-18T19:52:08.992777,14.825928,-9.982855,4.484149,-1.218065,-2.251648,-4.333477
2026-01-18T19:52:09.002777,15.108281,-9.456434,3.862015,-0.983492,-1.912007,-4.241847
2026-01-18T19:52:09.012777,14.447862,-8.958727,3.637090,-0.779463,-1.484402,-4.177095
2026-01-18T19:52:09.021777,12.964312,-8.484948,3.359522,-0.588873,-1.176526,-4.146552
2026-01-18T19:52:09.031777,11.332407,-7.465606,3.038884,-0.366519,-1.095892,-4.151439
2026-01-18T19:52:09.040777,9.834500,-5.737988,2.081755,-0.206472,-1.235169,-4.172208
2026-01-18T19:52:09.050777,8.877371,-3.708875,0.478564,-0.207694,-1.536936,-4.189312
2026-01-18T19:52:09.060777,8.446663,-2.134397,-0.674775,-0.342084,-1.944994,-4.233295
2026-01-18T19:52:09.069777,9.049655,-1.263410,0.038285,-0.554665,-2.437351,-4.245512
2026-01-18T19:52:09.079777,10.868200,-1.119840,0.808774,-0.833220,-2.901609,-4.205195
2026-01-18T19:52:09.088777,13.505090,-1.306481,3.340380,-1.053131,-3.192381,-4.188091
2026-01-18T19:52:09.098777,16.955540,-1.780260,5.029713,-1.392772,-3.165503,-4.100126
2026-01-18T19:52:09.108777,19.448862,-3.962514,3.933800,-1.854586,-2.698802,-3.883880
2026-01-18T19:52:09.117777,19.836498,-6.575476,3.345165,-1.817934,-1.820378,-3.769037
2026-01-18T19:52:09.127777,17.726028,-7.417750,3.010170,-1.238834,-0.835663,-3.688403
2026-01-18T19:52:09.137777,14.132010,-6.790830,2.646461,-0.570548,-0.197920,-3.622430
2026-01-18T19:52:09.146777,10.930413,-5.264209,2.292324,0.001221,-0.133168,-3.550348
2026-01-18T19:52:09.156777,8.958727,-3.259024,1.741974,0.337197,-0.497244,-3.475822
2026-01-18T19:52:09.165777,8.633303,-1.651047,1.043270,0.362853,-1.051909,-3.358536
2026-01-18T19:52:09.175777,9.686145,-0.698704,0.516849,0.186924,-1.583362,-3.194824
2026-01-18T19:52:09.185777,11.595618,-0.579063,0.143569,-0.040317,-1.893681,-3.034777
2026-01-18T19:52:09.194777,13.356735,-0.674775,0.014356,-0.223576,-1.863138,-2.913826
2026-01-18T19:52:09.204777,14.141581,-0.689132,0.248853,-0.346971,-1.556484,-2.786766
2026-01-18T19:52:09.213777,13.763515,-0.507278,0.588634,-0.471587,-1.131322,-2.656041
2026-01-18T19:52:09.223777,12.524033,-0.564706,0.531206,-0.631634,-0.768468,-2.526538
2026-01-18T19:52:09.233777,11.083554,-0.799202,0.526420,-0.770911,-0.601091,-2.386039
2026-01-18T19:52:09.242777,9.963713,-0.947557,0.545563,-0.827111,-0.618195,-2.241874
2026-01-18T19:52:09.252777,9.403792,-1.081555,0.650847,-0.849102,-0.720820,-2.091602
2026-01-18T19:52:09.262777,9.250652,-1.258624,0.803988,-0.834441,-0.829554,-1.932777
2026-01-18T19:52:09.271777,9.470791,-1.067198,1.095912,-0.770911,-0.863763,-1.771508
2026-01-18T19:52:09.281777,9.571290,-0.808774,0.976271,-0.748920,-0.773355,-1.605353
2026-01-18T19:52:09.290777,9.193224,-0.674775,0.842273,-0.750142,-0.570548,-1.434311
2026-01-18T19:52:09.300777,8.331808,-0.449850,0.837487,-0.767246,-0.302989,-1.270599
2026-01-18T19:52:09.310777,7.034898,-0.301495,0.961914,-0.827111,-0.057421,-1.111774
2026-01-18T19:52:09.319777,5.422136,-0.148355,1.091127,-0.907745,0.091629,-0.967610
2026-01-18T19:52:09.329777,4.015156,-0.138783,1.033699,-1.026253,0.113620,-0.830776
2026-01-18T19:52:09.338777,2.861815,-0.373280,1.057627,-1.121548,0.010995,-0.708603
2026-01-18T19:52:09.348777,2.277967,-0.684347,1.148554,-1.153313,-0.155159,-0.602312
2026-01-18T19:52:09.358777,2.153540,-0.947557,1.421336,-1.104444,-0.307876,-0.533896
2026-01-18T19:52:09.367777,2.268395,-1.134197,1.555334,-0.988379,-0.397062,-0.492357
2026-01-18T19:52:09.377777,2.493321,-1.124626,1.751546,-0.839328,-0.416610,-0.470366
2026-01-18T19:52:09.387777,2.699103,-1.057627,1.808973,-0.700051,-0.373849,-0.460592
2026-01-18T19:52:09.396777,2.684746,-0.971485,1.727617,-0.592539,-0.278554,-0.463035
2026-01-18T19:52:09.406777,2.522035,-0.976271,1.378265,-0.492357,-0.160046,-0.472809
2026-01-18T19:52:09.415777,2.215753,-1.028913,1.234696,-0.388510,-0.061086,-0.486248
2026-01-18T19:52:09.425777,1.703689,-1.000199,1.124626,-0.295658,0.003665,-0.492357
2026-01-18T19:52:09.435777,1.306481,-1.000199,1.158126,-0.217467,0.012217,-0.489913
2026-01-18T19:52:09.444777,1.143769,-1.033699,1.292124,-0.167377,-0.081855,-0.471587
2026-01-18T19:52:09.454777,1.593619,-0.957129,1.665404,-0.123394,-0.248011,-0.445931
2026-01-18T19:52:09.463777,2.435893,-0.861416,1.828116,-0.118507,-0.416610,-0.405614
2026-01-18T19:52:09.473777,3.637090,-1.028913,1.866401,-0.125838,-0.543669,-0.359188
2026-01-18T19:52:09.483777,4.967499,-1.167697,1.852044,-0.102625,-0.612086,-0.322536
2026-01-18T19:52:09.492777,6.240481,-1.229910,1.751546,-0.080634,-0.643851,-0.289550
2026-01-18T19:52:09.502777,7.537391,-1.493121,1.545763,-0.086742,-0.673173,-0.270002
2026-01-18T19:52:09.512777,8.729016,-1.785045,1.282552,-0.063529,-0.679282,-0.261450
2026-01-18T19:52:09.521777,9.844072,-2.033899,1.191625,-0.023212,-0.630412,-0.273667
2026-01-18T19:52:09.531777,10.724630,-2.435893,1.220339,0.058643,-0.520457,-0.276111
2026-01-18T19:52:09.540777,11.174481,-2.569891,1.402194,0.199142,-0.335975,-0.263893
2026-01-18T19:52:09.550777,11.155338,-2.407179,1.651047,0.404392,-0.086742,-0.238237
2026-01-18T19:52:09.560777,10.403992,-1.947757,1.655833,0.610865,0.217467,-0.199142
2026-01-18T19:52:09.569777,9.092725,-1.306481,1.804188,0.715933,0.538783,-0.122173
2026-01-18T19:52:09.579777,7.331608,-0.660419,1.899901,0.676838,0.761137,0.015882
2026-01-18T19:52:09.588777,5.690132,-0.186640,2.158325,0.496022,0.831998,0.212581
2026-01-18T19:52:09.598777,4.321437,-0.095712,2.493321,0.208915,0.769690,0.456927
2026-01-18T19:52:09.608777,3.598805,-0.392422,2.703889,-0.101403,0.625525,0.724486
2026-01-18T19:52:09.617777,3.546163,-0.937986,2.790031,-0.345749,0.448374,0.982271
2026-01-18T19:52:09.627777,4.278366,-1.406979,2.464607,-0.482583,0.333532,1.229060
2026-01-18T19:52:09.637777,5.091926,-1.607976,2.005185,-0.533896,0.337197,1.448972
2026-01-18T19:52:09.646777,5.575276,-1.746760,1.440479,-0.530230,0.447153,1.640783
2026-01-18T19:52:09.656777,5.862415,-1.832902,1.277767,-0.491135,0.608421,1.794721
2026-01-18T19:52:09.665777,5.737988,-2.115255,0.952343,-0.428827,0.708603,1.926668
2026-01-18T19:52:09.675777,5.891129,-2.608176,0.947557,-0.307876,0.692721,2.040289
2026-01-18T19:52:09.685777,6.398407,-2.928814,1.019342,-0.111177,0.579100,2.134362
2026-01-18T19:52:09.694777,7.274180,-3.254238,0.985842,0.141720,0.472809,2.223549
2026-01-18T19:52:09.704777,8.082954,-3.278166,1.100698,0.445931,0.475253,2.302961
2026-01-18T19:52:09.713777,8.733802,-2.675175,1.339980,0.757472,0.597426,2.366491
2026-01-18T19:52:09.723777,8.882157,-1.775474,1.249053,0.939510,0.797789,2.449569
2026-01-18T19:52:09.733777,8.417949,-0.708275,1.191625,0.940732,0.998153,2.554637
2026-01-18T19:52:09.742777,7.834101,0.009571,1.115055,0.731816,1.097113,2.692693
2026-01-18T19:52:09.752777,7.293323,0.043070,0.942772,0.383623,1.084896,2.833192
2026-01-18T19:52:09.762777,7.173682,-0.665204,0.928415,0.063529,0.972497,2.971247
2026-01-18T19:52:09.771777,7.542176,-1.871187,0.770488,-0.145385,0.802676,3.098307
2026-01-18T19:52:09.781777,8.461020,-3.407379,0.866201,-0.149051,0.664621,3.192381
2026-01-18T19:52:09.790777,9.528219,-4.819144,0.880558,0.138055,0.618195,3.258354
2026-01-18T19:52:09.800777,10.514062,-5.613561,1.024128,0.715933,0.653625,3.284010
2026-01-18T19:52:09.810777,11.255837,-5.182853,1.713260,1.425759,0.777020,3.271793
2026-01-18T19:52:09.819777,11.547761,-3.522234,1.770688,1.996307,0.990823,3.302336
2026-01-18T19:52:09.829777,11.456834,-1.497906,2.005185,2.140471,1.198517,3.364645
2026-01-18T19:52:09.838777,11.260623,-0.200997,1.856830,1.756848,1.293812,3.503922
2026-01-18T19:52:09.848777,11.198409,-0.014356,1.837687,1.125213,1.275486,3.660303
2026-01-18T19:52:09.858777,11.265408,-0.488135,1.947757,0.483805,1.226617,3.793472
2026-01-18T19:52:09.867777,11.466405,-1.923829,1.722832,-0.098960,1.193630,3.905871
2026-01-18T19:52:09.877777,11.404192,-3.771088,1.617548,-0.478918,1.180191,4.003609
2026-01-18T19:52:09.887777,11.294122,-5.551348,1.445264,-0.613308,1.143539,4.083022
2026-01-18T19:52:09.896777,11.155338,-7.044469,1.368694,-0.541226,1.073900,4.138000
2026-01-18T19:52:09.906777,11.121839,-8.288737,1.048056,-0.217467,0.987158,4.146552
2026-01-18T19:52:09.915777,11.246266,-8.719445,0.870987,0.313984,0.896749,4.136778
2026-01-18T19:52:09.925777,11.432906,-8.169096,1.244267,0.836885,0.818559,4.158769
2026-01-18T19:52:09.935777,11.653046,-7.192824,1.928615,1.178969,0.745255,4.227186
2026-01-18T19:52:09.944777,12.050254,-6.374479,2.000399,1.177747,0.663399,4.373794
2026-01-18T19:52:09.954777,12.490533,-6.087340,2.110469,0.996931,0.602312,4.519180
2026-01-18T19:52:09.963777,12.725030,-6.106483,2.225325,0.789237,0.623082,4.630357
2026-01-18T19:52:09.973777,12.519247,-6.747759,2.426322,0.508239,0.680503,4.720765
2026-01-18T19:52:09.983777,12.165110,-8.039883,2.861815,0.370184,0.726929,4.742756
2026-01-18T19:52:09.992777,11.849257,-9.207581,3.067598,0.491135,0.744033,4.712213
2026-01-18T19:52:10.002777,11.562118,-9.667003,3.038884,0.871093,0.746477,4.649905
2026-01-18T19:52:10.012777,11.174481,-9.150153,2.727817,1.392772,0.764803,4.554610
2026-01-18T19:52:10.021777,10.681560,-7.594818,2.158325,1.850921,0.799011,4.445876
2026-01-18T19:52:10.031777,10.021141,-5.871986,1.942971,1.980424,0.790459,4.364020
2026-01-18T19:52:10.040777,9.595218,-4.689932,2.191825,1.848477,0.733038,4.283386
2026-01-18T19:52:10.050777,9.384650,-4.321437,2.837887,1.511280,0.643851,4.214969
2026-01-18T19:52:10.060777,9.580861,-5.144568,3.531806,1.020144,0.533896,4.145330
2026-01-18T19:52:10.069777,10.193424,-6.675975,4.512863,0.667064,0.461814,4.012162
2026-01-18T19:52:10.079777,10.872985,-8.432306,5.455635,0.510683,0.461814,3.893654
2026-01-18T19:52:10.088777,11.255837,-10.107282,5.355136,0.621860,0.614530,3.748268
2026-01-18T19:52:10.098777,10.858628,-10.963913,4.871786,0.841772,0.879645,3.622430
2026-01-18T19:52:10.108777,9.614361,-10.968698,4.163511,1.159421,1.149648,3.480709
2026-01-18T19:52:10.117777,7.637889,-9.681360,3.996013,1.470963,1.336572,3.291341
2026-01-18T19:52:10.127777,5.599204,-8.389236,3.737588,1.428202,1.359785,3.132516
2026-01-18T19:52:10.137777,3.785445,-7.690531,4.096512,1.160643,1.244943,2.932152
2026-01-18T19:52:10.146777,2.651247,-7.417750,4.804787,0.768468,1.004262,2.670702
2026-01-18T19:52:10.156777,2.306680,-8.092526,5.297709,0.300545,0.713490,2.387260
2026-01-18T19:52:10.165777,2.555534,-9.322436,5.393422,-0.031764,0.483805,2.035402
2026-01-18T19:52:10.175777,3.096312,-10.274780,5.962913,-0.095294,0.322536,1.638340
2026-01-18T19:52:10.185777,3.857230,-10.490134,6.551548,0.087964,0.207694,1.205847
2026-01-18T19:52:10.194777,4.436293,-9.882357,6.278766,0.266337,0.185702,0.788015
2026-01-18T19:52:10.204777,4.627718,-8.987441,6.317051,0.306654,0.282219,0.350636
2026-01-18T19:52:10.213777,4.383651,-8.317451,5.948556,0.218689,0.421496,-0.114842
2026-01-18T19:52:10.223777,3.914657,-8.006384,5.446064,0.003665,0.509461,-0.610865
2026-01-18T19:52:10.233777,3.895515,-8.580661,4.766502,-0.310319,0.487470,-1.147204
2026-01-18T19:52:10.242777,4.465006,-10.451849,4.943571,-0.542448,0.399505,-1.727526
2026-01-18T19:52:10.252777,5.254638,-12.940384,4.800002,-0.533896,0.146607,-2.217440
2026-01-18T19:52:10.262777,6.494120,-14.758929,5.115854,-0.085521,-0.128281,-2.767218
2026-01-18T19:52:10.271777,7.709674,-14.596217,5.206781,0.735481,-0.304210,-3.319441
2026-01-18T19:52:10.281777,8.355736,-12.370892,5.235495,1.483180,-0.397062,-3.816685
2026-01-18T19:52:10.290777,8.307880,-9.198010,5.575276,1.811825,-0.461814,-4.224743
2026-01-18T19:52:10.300777,7.977670,-5.996413,5.594419,1.543045,-0.592539,-4.494745
2026-01-18T19:52:10.310777,7.814958,-3.790230,5.599204,0.664621,-0.814894,-4.620583
2026-01-18T19:52:10.319777,7.800601,-2.952743,5.800201,-0.477696,-1.115439,-4.708548
2026-01-18T19:52:10.329777,8.537591,-4.201796,5.546562,-1.832595,-1.535714,-4.652348
2026-01-18T19:52:10.338777,9.987641,-7.077969,4.857429,-2.872287,-1.926668,-4.643796
2026-01-18T19:52:10.348777,11.748758,-9.906285,4.230510,-3.238806,-2.129475,-4.712213
2026-01-18T19:52:10.358777,13.198809,-12.519247,4.264009,-3.203376,-2.109928,-4.745200
2026-01-18T19:52:10.367777,13.964512,-14.510076,4.211367,-2.691471,-1.844812,-4.779408
2026-01-18T19:52:10.377777,13.246665,-14.505290,4.259224,-1.651779,-1.363450,-4.875924
2026-01-18T19:52:10.387777,11.040483,-12.519247,4.010370,-0.538783,-0.879645,-5.001763
2026-01-18T19:52:10.396777,7.972884,-9.824929,4.043870,0.289550,-0.709825,-5.075067
2026-01-18T19:52:10.406777,5.685346,-7.283751,4.101297,0.613308,-1.012814,-5.082397
2026-01-18T19:52:10.415777,5.173282,-6.489334,3.852444,0.230907,-1.729969,-4.923572
2026-01-18T19:52:10.425777,7.015755,-7.068397,3.617947,-0.386066,-2.586402,-4.723209
2026-01-18T19:52:10.435777,10.150353,-7.886743,3.474378,-0.702494,-3.227811,-4.635244
2026-01-18T19:52:10.444777,13.639088,-8.628518,4.024727,-0.985936,-3.532022,-4.502075
2026-01-18T19:52:10.454777,16.802401,-9.245866,3.737588,-1.110552,-3.468492,-4.307820
2026-01-18T19:52:10.463777,18.467804,-8.609375,3.010170,-0.901636,-2.954143,-4.168543
2026-01-18T19:52:10.473777,18.132809,-7.379464,3.158525,-0.780685,-2.153910,-4.010940
2026-01-18T19:52:10.483777,15.826128,-6.541976,2.871387,-0.883310,-1.381776,-3.836232
2026-01-18T19:52:10.492777,12.825529,-6.441478,2.574677,-1.077566,-0.926071,-3.657860
2026-01-18T19:52:10.502777,10.222138,-6.790830,2.455035,-1.235169,-0.874758,-3.519804
2026-01-18T19:52:10.512777,8.685946,-7.082754,2.177468,-1.133765,-1.095892,-3.469713
2026-01-18T19:52:10.521777,8.408378,-6.757331,1.775474,-0.724486,-1.462411,-3.512474
2026-01-18T19:52:10.531777,9.442077,-5.656632,1.521835,-0.210137,-1.890016,-3.594330
2026-01-18T19:52:10.540777,11.385049,-4.110869,0.995414,0.221133,-2.202779,-3.635869
2026-01-18T19:52:10.550777,13.328021,-2.445464,0.483350,0.513126,-2.235766,-3.677407
2026-01-18T19:52:10.560777,14.749358,-0.837487,0.368494,0.587652,-2.002415,-3.674964
2026-01-18T19:52:10.569777,15.050854,0.631705,0.406779,0.437379,-1.610240,-3.639534
2026-01-18T19:52:10.579777,14.471791,1.698904,0.971485,0.081855,-1.187521,-3.569895
2026-01-18T19:52:10.588777,13.347164,2.091326,1.665404,-0.415388,-0.864984,-3.478265
2026-01-18T19:52:10.598777,12.155538,1.617548,1.440479,-0.981049,-0.701273,-3.351205
2026-01-18T19:52:10.608777,11.332407,0.277567,1.000199,-1.357342,-0.702494,-3.248580
2026-01-18T19:52:10.617777,11.069197,-0.861416,0.468993,-1.414763,-0.790459,-3.156950
2026-01-18T19:52:10.627777,11.150553,-1.584048,0.076570,-1.269377,-0.877202,-3.070208
2026-01-18T19:52:10.637777,11.337193,-1.789831,0.095712,-0.989601,-0.888197,-2.988352
2026-01-18T19:52:10.646777,11.538190,-1.627119,0.287138,-0.673173,-0.795346,-2.889391
2026-01-18T19:52:10.656777,11.509476,-1.258624,0.555134,-0.425162,-0.625525,-2.767218
2026-01-18T19:52:10.665777,10.920842,-0.751346,0.703489,-0.260228,-0.408057,-2.610837
2026-01-18T19:52:10.675777,9.820143,-0.258424,0.646062,-0.215024,-0.167377,-2.432464
2026-01-18T19:52:10.685777,8.456235,-0.253639,0.784845,-0.289550,0.017104,-2.240653
2026-01-18T19:52:10.694777,7.054041,-0.272781,0.928415,-0.382401,0.096516,-2.037846
2026-01-18T19:52:10.704777,5.771488,-0.248853,0.942772,-0.470366,0.085521,-1.837482
2026-01-18T19:52:10.713777,4.651647,-0.229710,1.091127,-0.587652,0.006108,-1.665218
2026-01-18T19:52:10.723777,4.015156,-0.540777,1.019342,-0.717155,-0.133168,-1.489289
2026-01-18T19:52:10.733777,3.895515,-0.655633,0.789631,-0.812450,-0.296880,-1.313359
2026-01-18T19:52:10.742777,3.957728,-0.813559,0.641276,-0.858876,-0.416610,-1.164308
2026-01-18T19:52:10.752777,4.082155,-0.894915,0.397208,-0.895528,-0.434935,-1.037248
2026-01-18T19:52:10.762777,3.924229,-1.028913,0.311066,-0.905302,-0.377514,-0.933401
2026-01-18T19:52:10.771777,3.541377,-1.191625,0.454636,-0.864984,-0.285884,-0.864984
2026-01-18T19:52:10.781777,3.062812,-1.526620,0.631705,-0.795346,-0.222354,-0.803898
2026-01-18T19:52:10.790777,2.727817,-1.875972,0.780060,-0.671951,-0.228463,-0.748920
2026-01-18T19:52:10.800777,2.536391,-2.005185,0.909272,-0.478918,-0.291993,-0.687834
2026-01-18T19:52:10.810777,2.790031,-1.914258,1.134197,-0.251676,-0.376292,-0.629191
2026-01-18T19:52:10.819777,3.091526,-1.584048,1.430907,-0.052534,-0.437379,-0.572991
2026-01-18T19:52:10.829777,3.531806,-1.110269,1.454836,0.075747,-0.425162,-0.514348
2026-01-18T19:52:10.838777,3.862015,-0.684347,1.598405,0.125838,-0.344527,-0.474031
2026-01-18T19:52:10.848777,3.962514,-0.492921,1.617548,0.083077,-0.267558,-0.415388
2026-01-18T19:52:10.858777,4.149154,-0.631705,1.651047,0.009773,-0.248011,-0.348193
2026-01-18T19:52:10.867777,4.460221,-0.947557,1.593619,-0.015882,-0.256563,-0.284663
2026-01-18T19:52:10.877777,4.876572,-1.081555,1.148554,0.035430,-0.268780,-0.228463
2026-01-18T19:52:10.887777,5.340780,-1.048056,1.019342,0.111177,-0.279776,-0.172263
2026-01-18T19:52:10.896777,5.967699,-0.894915,0.880558,0.164933,-0.291993,-0.101403
2026-01-18T19:52:10.906777,6.498906,-0.502492,0.784845,0.194255,-0.289550,-0.028099
2026-01-18T19:52:10.915777,7.034898,0.028713,0.914058,0.175929,-0.277332,0.024434
2026-01-18T19:52:10.925777,7.556533,0.282353,1.028913,0.059864,-0.285884,0.078190
2026-01-18T19:52:10.935777,8.260023,0.181854,1.091127,-0.079412,-0.332310,0.130725
2026-01-18T19:52:10.944777,9.154939,-0.057427,1.129412,-0.212581,-0.378736,0.188146
2026-01-18T19:52:10.954777,10.135996,-0.507278,1.119840,-0.295658,-0.389731,0.254119
2026-01-18T19:52:10.963777,10.762916,-0.890130,1.469193,-0.249232,-0.318871,0.316428
2026-01-18T19:52:10.973777,11.035697,-1.076770,1.727617,-0.097738,-0.141720,0.392175
2026-01-18T19:52:10.983777,10.734202,-1.301695,1.770688,0.090408,0.153938,0.480139
2026-01-18T19:52:10.992777,9.681360,-1.368694,1.947757,0.306654,0.493579,0.588873
2026-01-18T19:52:11.002777,8.044669,-1.239482,1.713260,0.533896,0.753807,0.728151
2026-01-18T19:52:11.012777,6.518048,-0.995414,1.837687,0.684168,0.855211,0.906523
2026-01-18T19:52:11.021777,5.402993,-0.832702,1.986042,0.750142,0.807563,1.126435
2026-01-18T19:52:11.031777,4.804787,-0.732203,2.105683,0.786794,0.674395,1.351233
2026-01-18T19:52:11.040777,4.862215,-0.598205,2.153540,0.799011,0.527787,1.562592
2026-01-18T19:52:11.050777,5.479563,-0.378065,2.191825,0.783129,0.434935,1.761734
2026-01-18T19:52:11.060777,6.384050,-0.086141,2.330609,0.761137,0.425162,1.925446
2026-01-18T19:52:11.069777,7.369893,0.301495,1.866401,0.685390,0.507018,2.078163
2026-01-18T19:52:11.079777,8.307880,0.674775,1.741974,0.536339,0.680503,2.210109
2026-01-18T19:52:11.088777,8.939585,1.000199,1.172483,0.312762,0.911410,2.349387
2026-01-18T19:52:11.098777,9.422935,0.981057,0.851844,-0.026878,1.183856,2.495994
2026-01-18T19:52:11.108777,9.523433,0.593420,0.985842,-0.395840,1.457524,2.665815
2026-01-18T19:52:11.117777,9.164510,-0.110069,0.971485,-0.671951,1.610240,2.889391
2026-01-18T19:52:11.127777,8.685946,-0.693918,1.177268,-0.867428,1.621236,3.106859
2026-01-18T19:52:11.137777,8.437092,-1.536192,1.076770,-0.966388,1.582140,3.313332
2026-01-18T19:52:11.146777,8.264809,-1.981257,1.263410,-0.877202,1.524719,3.474600
2026-01-18T19:52:11.156777,8.145168,-2.067398,1.024128,-0.678060,1.463632,3.585778
2026-01-18T19:52:11.165777,8.121239,-1.895115,0.937986,-0.465479,1.404989,3.657860
2026-01-18T19:52:11.175777,8.126025,-1.622333,1.019342,-0.255341,1.352455,3.687181
2026-01-18T19:52:11.185777,8.054240,-1.177268,0.971485,-0.113620,1.313359,3.693290
2026-01-18T19:52:11.194777,7.996813,-1.028913,0.693918,-0.146607,1.288925,3.711616
2026-01-18T19:52:11.204777,7.791030,-1.603191,0.473778,-0.243124,1.297477,3.734829
2026-01-18T19:52:11.213777,7.642675,-2.574677,0.669990,-0.249232,1.306029,3.764150
2026-01-18T19:52:11.223777,7.384250,-3.708875,0.765703,-0.142942,1.270599,3.799580
2026-01-18T19:52:11.233777,7.245466,-4.603790,0.990628,0.127059,1.204625,3.824015
2026-01-18T19:52:11.242777,7.188039,-4.814359,1.076770,0.532674,1.115439,3.816685
2026-01-18T19:52:11.252777,7.307680,-4.460221,1.110269,0.893084,1.005483,3.814241
2026-01-18T19:52:11.262777,7.508677,-3.790230,1.368694,1.132543,0.895528,3.805689
2026-01-18T19:52:11.271777,7.862815,-3.163311,1.430907,1.203404,0.796568,3.820350
2026-01-18T19:52:11.281777,8.398807,-2.636890,1.665404,1.150869,0.724486,3.828902
2026-01-18T19:52:11.290777,8.848657,-2.182254,1.861615,1.007927,0.684168,3.830124
2026-01-18T19:52:11.300777,9.217152,-2.263610,1.990828,0.737925,0.667064,3.858224
2026-01-18T19:52:11.310777,9.528219,-2.790031,2.249253,0.458148,0.674395,3.887545
2026-01-18T19:52:11.319777,9.609575,-3.694518,2.239681,0.228463,0.714712,3.893654
2026-01-18T19:52:11.329777,9.389435,-4.766502,2.100898,0.070860,0.792902,3.891210
2026-01-18T19:52:11.338777,9.030512,-5.862415,2.148754,0.101403,0.889419,3.867997
2026-01-18T19:52:11.348777,8.451449,-6.403193,1.971685,0.277332,0.935845,3.835011
2026-01-18T19:52:11.358777,7.814958,-6.594619,1.823330,0.533896,0.905302,3.781255
2026-01-18T19:52:11.367777,7.331608,-6.460621,1.995614,0.763581,0.784350,3.723833
2026-01-18T19:52:11.377777,7.283751,-6.211767,1.885544,0.923628,0.601091,3.665190
2026-01-18T19:52:11.387777,7.503891,-5.819344,1.823330,1.066570,0.463035,3.555234
2026-01-18T19:52:11.396777,7.609175,-5.460421,2.033899,1.205847,0.411723,3.420844
2026-01-18T19:52:11.406777,7.355536,-4.666004,2.139183,1.401324,0.419053,3.285232
2026-01-18T19:52:11.415777,6.915257,-3.723231,2.550748,1.502728,0.436157,3.150842
2026-01-18T19:52:11.425777,6.465406,-3.445664,3.115455,1.473406,0.406836,3.006678
2026-01-18T19:52:11.435777,6.154339,-3.785445,4.144368,1.384220,0.321315,2.861292
2026-01-18T19:52:11.444777,6.350551,-5.230710,4.914857,1.203404,0.199142,2.744006
2026-01-18T19:52:11.454777,7.025327,-7.178467,4.823930,1.045801,0.064751,2.656041
2026-01-18T19:52:11.463777,7.958527,-8.858229,4.699503,0.998153,-0.056199,2.576629
2026-01-18T19:52:11.473777,8.982656,-10.083354,4.919643,0.895528,-0.172263,2.590068
2026-01-18T19:52:11.483777,9.872786,-10.126425,4.699503,0.780685,-0.245567,2.664593
2026-01-18T19:52:11.492777,10.389635,-9.159724,4.756931,0.609643,-0.238237,2.693915
2026-01-18T19:52:11.502777,10.681560,-8.638089,5.508277,0.019547,-0.241902,2.763553
2026-01-18T19:52:11.512777,11.021340,-9.418149,5.962913,-0.800233,-0.221133,2.809979
2026-01-18T19:52:11.521777,11.519047,-11.495119,6.939185,-1.682322,-0.081855,2.825862
2026-01-18T19:52:11.531777,11.767901,-14.897713,7.910671,-2.310291,0.166155,2.829527
2026-01-18T19:52:11.540777,11.408978,-18.352949,8.231309,-2.228435,0.546113,2.783101
2026-01-18T19:52:11.550777,10.408778,-20.961124,7.858029,-1.455080,0.943175,2.690249
2026-01-18T19:52:11.560777,8.896514,-22.238894,6.943971,-0.226020,1.286481,2.576629
2026-01-18T19:52:11.569777,7.049255,-21.521046,5.790630,1.285260,1.512502,2.421469
2026-01-18T19:52:11.579777,5.134997,-19.166510,5.005784,2.625498,1.554040,2.243096
2026-01-18T19:52:11.588777,3.876372,-16.036697,4.934000,3.510030,1.396437,2.091602
2026-01-18T19:52:11.598777,3.455235,-12.686745,5.053641,3.940079,1.130100,1.883908
2026-01-18T19:52:11.608777,3.684946,-9.777073,5.575276,3.841119,0.836885,1.612683
2026-01-18T19:52:11.617777,4.402793,-7.704888,6.388836,3.308445,0.608421,1.279151
2026-01-18T19:52:11.627777,4.986642,-6.345765,7.379464,2.548529,0.504574,0.879645
2026-01-18T19:52:11.637777,5.369493,-5.776273,8.178667,1.685987,0.494800,0.455705
2026-01-18T19:52:11.646777,5.436492,-5.757131,8.260023,0.836885,0.520457,0.009773
2026-01-18T19:52:11.656777,5.106283,-6.412764,7.920242,0.106290,0.499687,-0.417831
2026-01-18T19:52:11.665777,4.536791,-7.312465,7.508677,-0.443488,0.384845,-0.810007
2026-01-18T19:52:11.675777,4.163511,-8.360522,6.719045,-0.874758,0.185702,-1.161865
2026-01-18T19:52:11.685777,4.053441,-9.623932,6.044269,-1.241277,-0.073303,-1.474628
2026-01-18T19:52:11.694777,4.168296,-10.662417,6.034698,-1.364672,-0.386066,-1.811825
2026-01-18T19:52:11.704777,4.670789,-10.557133,6.321837,-1.111774,-0.740368,-2.222327
2026-01-18T19:52:11.713777,5.546562,-9.734002,6.082555,-0.747698,-1.111774,-2.618167
2026-01-18T19:52:11.723777,6.637689,-8.489734,5.666203,-0.425162,-1.390328,-3.018895
2026-01-18T19:52:11.733777,7.393821,-7.054041,5.254638,-0.155159,-1.532049,-3.414735
2026-01-18T19:52:11.742777,7.944171,-5.800201,4.938785,-0.112399,-1.623679,-3.762929
2026-01-18T19:52:11.752777,8.403592,-5.618347,4.546362,-0.379958,-1.754404,-3.995057
2026-01-18T19:52:11.762777,8.920442,-6.163911,4.378865,-0.780685,-1.920559,-4.141665
2026-01-18T19:52:11.771777,9.705288,-7.465606,4.599005,-1.285260,-2.111149,-4.173430
2026-01-18T19:52:11.781777,10.796415,-9.159724,4.627718,-1.726304,-2.312735,-4.114787
2026-01-18T19:52:11.790777,11.940184,-10.016355,4.517649,-1.629788,-2.348165,-4.153882
2026-01-18T19:52:11.800777,12.658031,-9.513862,5.044070,-1.183856,-2.134362,-4.225964
2026-01-18T19:52:11.810777,12.581461,-8.417949,4.579862,-0.768468,-1.769065,-4.240625
2026-01-18T19:52:11.819777,11.648260,-7.168896,4.139583,-0.505796,-1.419650,-4.254064
2026-01-18T19:52:11.829777,10.308279,-5.996413,3.823730,-0.489913,-1.211956,-4.282164
2026-01-18T19:52:11.838777,9.059226,-5.288137,2.933600,-0.649960,-1.205847,-4.324924
2026-01-18T19:52:11.848777,8.145168,-4.555934,1.311266,-0.761137,-1.356120,-4.429993
2026-01-18T19:52:11.858777,7.704888,-4.077369,0.267996,-0.864984,-1.650557,-4.530175
2026-01-18T19:52:11.867777,8.106882,-3.809373,0.253639,-1.065348,-2.084271,-4.597370
2026-01-18T19:52:11.877777,9.619146,-3.986442,1.124626,-1.242499,-2.588846,-4.659679
2026-01-18T19:52:11.887777,12.476177,-4.474578,2.545963,-1.445306,-3.044551,-4.643796
2026-01-18T19:52:11.896777,16.017553,-5.804987,3.048455,-1.617570,-3.215593,-4.526510
2026-01-18T19:52:11.906777,18.927225,-6.977470,3.148954,-1.481958,-2.869844,-4.451984
2026-01-18T19:52:11.915777,19.889141,-7.546962,3.292523,-1.115439,-2.046398,-4.393341
2026-01-18T19:52:11.925777,18.362520,-7.374679,2.598605,-0.717155,-1.069013,-4.333477
2026-01-18T19:52:11.935777,15.065211,-6.561119,1.909472,-0.328645,-0.366519,-4.279720
2026-01-18T19:52:11.944777,11.887542,-5.154139,2.086541,-0.032986,-0.197920,-4.224743
2026-01-18T19:52:11.954777,9.662217,-3.541377,1.732403,0.083077,-0.488692,-4.148995
2026-01-18T19:52:11.963777,8.882157,-2.206182,1.172483,0.010995,-1.014036,-4.058587
2026-01-18T19:52:11.973777,9.619146,-1.215553,0.430708,-0.206472,-1.585805,-3.963292
2026-01-18T19:52:11.983777,11.380264,-0.827916,0.129212,-0.500909,-2.043954,-3.846006
2026-01-18T19:52:11.992777,13.409377,-0.899701,-0.153140,-0.768468,-2.260200,-3.732385
2026-01-18T19:52:12.002777,15.098710,-1.301695,-0.363709,-0.932180,-2.177123,-3.623651
2026-01-18T19:52:12.012777,15.835699,-1.971685,0.210568,-0.961501,-1.872912,-3.532022
2026-01-18T19:52:12.021777,15.711273,-2.493321,0.928415,-0.850324,-1.491732,-3.418401
2026-01-18T19:52:12.031777,14.763715,-2.775674,0.961914,-0.658512,-1.132543,-3.270571
2026-01-18T19:52:12.040777,13.481162,-2.794816,1.134197,-0.422718,-0.868650,-3.114190
2026-01-18T19:52:12.050777,12.184252,-2.407179,1.287338,-0.173485,-0.714712,-2.963917
2026-01-18T19:52:12.060777,10.959127,-1.718046,1.162911,0.015882,-0.632856,-2.801427
2026-01-18T19:52:12.069777,10.021141,-1.205982,1.095912,0.135612,-0.601091,-2.654819
2026-01-18T19:52:12.079777,9.241080,-0.689132,0.961914,0.171042,-0.613308,-2.495994
2026-01-18T19:52:12.088777,8.671589,-0.354137,0.674775,0.118507,-0.646295,-2.323730
2026-01-18T19:52:12.098777,8.288737,-0.267996,0.727418,-0.001221,-0.681725,-2.149023
2026-01-18T19:52:12.108777,8.111668,-0.330209,0.789631,-0.098960,-0.714712,-1.980424
2026-01-18T19:52:12.117777,8.183453,-0.191425,1.028913,-0.168598,-0.752585,-1.816712
2026-01-18T19:52:12.127777,8.379664,0.009571,1.153340,-0.255341,-0.778242,-1.663996
2026-01-18T19:52:12.137777,8.561519,0.210568,1.043270,-0.386066,-0.720820,-1.508836
2026-01-18T19:52:12.146777,8.288737,0.291924,0.856630,-0.535117,-0.536339,-1.365894
2026-01-18T19:52:12.156777,7.317251,0.205782,0.756131,-0.674395,-0.263893,-1.255938
2026-01-18T19:52:12.165777,5.838487,-0.076570,0.861416,-0.792902,-0.014660,-1.159421
2026-01-18T19:52:12.175777,4.063012,-0.468993,1.057627,-0.879645,0.118507,-1.065348
2026-01-18T19:52:12.185777,2.450250,-0.909272,1.234696,-0.902858,0.106290,-0.973718
2026-01-18T19:52:12.194777,1.349551,-1.339980,1.483550,-0.839328,-0.029321,-0.896749
2026-01-18T19:52:12.204777,0.741775,-1.794616,1.354337,-0.687834,-0.211359,-0.830776
2026-01-18T19:52:12.213777,0.741775,-1.976471,1.158126,-0.460592,-0.381179,-0.785572
2026-01-18T19:52:12.223777,1.043270,-2.005185,1.316052,-0.182037,-0.505796,-0.761137
2026-01-18T19:52:12.233777,1.555334,-1.646261,1.440479,0.079412,-0.570548,-0.739146
2026-01-18T19:52:12.242777,2.163111,-1.062413,1.430907,0.259006,-0.569326,-0.717155
2026-01-18T19:52:12.252777,2.699103,-0.488135,1.359123,0.318871,-0.507018,-0.704938
2026-01-18T19:52:12.262777,3.048455,-0.090927,1.406979,0.249232,-0.431270,-0.684168
2026-01-18T19:52:12.271777,3.603590,0.004785,1.373480,0.103847,-0.412944,-0.648738
2026-01-18T19:52:12.281777,4.297509,-0.129212,1.387837,0.000000,-0.453261,-0.614530
2026-01-18T19:52:12.290777,5.221138,-0.124426,1.521835,-0.048869,-0.486248,-0.596204
2026-01-18T19:52:12.300777,6.125625,-0.009571,1.244267,-0.120951,-0.469144,-0.566882
2026-01-18T19:52:12.310777,6.900900,0.186640,0.942772,-0.224798,-0.428827,-0.530230
2026-01-18T19:52:12.319777,7.618747,0.334995,0.909272,-0.353080,-0.397062,-0.491135
2026-01-18T19:52:12.329777,8.250452,0.435493,0.847059,-0.543669,-0.383623,-0.430049
2026-01-18T19:52:12.338777,8.934799,0.258424,0.856630,-0.751364,-0.376292,-0.362853
2026-01-18T19:52:12.348777,9.561719,-0.028713,0.722632,-0.908967,-0.377514,-0.282219
2026-01-18T19:52:12.358777,10.198209,-0.330209,0.837487,-1.011592,-0.362853,-0.199142
2026-01-18T19:52:12.367777,10.542776,-0.866201,1.076770,-1.018923,-0.278554,-0.108733
2026-01-18T19:52:12.377777,10.485348,-1.440479,1.253839,-0.910189,-0.122173,-0.025656
2026-01-18T19:52:12.387777,10.025926,-1.852044,1.646261,-0.697607,0.072082,0.063529
2026-01-18T19:52:12.396777,9.188438,-2.120040,2.057827,-0.395840,0.243124,0.166155
2026-01-18T19:52:12.406777,8.236095,-2.053041,2.057827,-0.075747,0.351858,0.294436
2026-01-18T19:52:12.415777,7.360322,-1.794616,1.780260,0.210137,0.401949,0.442266
2026-01-18T19:52:12.425777,6.518048,-1.196411,1.818545,0.434935,0.405614,0.599869
2026-01-18T19:52:12.435777,5.982056,-0.607776,1.775474,0.554665,0.377514,0.762359
2026-01-18T19:52:12.444777,5.522634,-0.148355,1.665404,0.585208,0.337197,0.908967
2026-01-18T19:52:12.454777,5.307280,0.320638,1.732403,0.546113,0.285884,1.025031
2026-01-18T19:52:12.463777,5.173282,0.440279,1.813759,0.452040,0.229685,1.120326
2026-01-18T19:52:12.473777,5.350351,0.224925,1.962114,0.360410,0.163711,1.194852
2026-01-18T19:52:12.483777,5.891129,-0.167497,2.120040,0.335975,0.107512,1.252273
2026-01-18T19:52:12.492777,6.551548,-0.502492,2.043470,0.393397,0.131946,1.301142
2026-01-18T19:52:12.502777,7.020541,-0.507278,1.986042,0.503352,0.280997,1.330464
2026-01-18T19:52:12.512777,7.063612,-0.186640,1.804188,0.613308,0.511904,1.362229
2026-01-18T19:52:12.521777,6.647261,0.363709,1.904686,0.629191,0.728151,1.418428
2026-01-18T19:52:12.531777,6.125625,0.875773,1.947757,0.486248,0.856432,1.534493
2026-01-18T19:52:12.540777,5.694917,0.928415,1.698904,0.219911,0.897971,1.688431
2026-01-18T19:52:12.550777,5.594419,0.449850,1.445264,-0.064751,0.880867,1.859473
2026-01-18T19:52:12.560777,5.728417,-0.200997,1.210768,-0.265115,0.840550,2.020741
2026-01-18T19:52:12.569777,6.068198,-0.770488,1.244267,-0.302989,0.789237,2.163684
2026-01-18T19:52:12.579777,6.786044,-1.076770,1.019342,-0.233350,0.729372,2.285857
2026-01-18T19:52:12.588777,7.585247,-1.488335,0.698704,-0.127059,0.723264,2.387260
2026-01-18T19:52:12.598777,8.197810,-2.043470,0.406779,0.045204,0.813672,2.445903
2026-01-18T19:52:12.608777,8.508877,-3.024527,0.047856,0.342084,0.961501,2.456899
2026-01-18T19:52:12.617777,8.465806,-3.555734,0.028713,0.739146,1.103222,2.461786
2026-01-18T19:52:12.627777,8.212167,-3.756731,0.334995,1.222951,1.191186,2.460564
2026-01-18T19:52:12.637777,7.920242,-2.928814,0.607776,1.699426,1.224173,2.478890
2026-01-18T19:52:12.646777,7.599604,-1.373480,0.775274,1.964542,1.199739,2.515542
2026-01-18T19:52:12.656777,7.508677,-0.023928,1.076770,1.929112,1.115439,2.572963
2026-01-18T19:52:12.665777,7.819744,1.186840,1.598405,1.643227,1.007927,2.642602
2026-01-18T19:52:12.675777,8.599804,1.622333,1.861615,1.125213,0.919962,2.745227
2026-01-18T19:52:12.685777,9.461220,1.067198,1.473978,0.447153,0.888197,2.888170
2026-01-18T19:52:12.694777,10.250852,-0.401994,1.095912,-0.149051,0.954171,3.023782
2026-01-18T19:52:12.704777,10.485348,-2.172682,0.942772,-0.472809,1.103222,3.137403
2026-01-18T19:52:12.713777,10.380064,-3.871586,0.918843,-0.483805,1.240056,3.213150
2026-01-18T19:52:12.723777,10.159924,-5.201996,1.167697,-0.265115,1.271821,3.273015
2026-01-18T19:52:12.733777,10.006784,-5.934200,1.110269,0.105068,1.185078,3.337766
2026-01-18T19:52:12.742777,10.298708,-5.982056,1.373480,0.591317,1.009149,3.354871
2026-01-18T19:52:12.752777,11.140982,-5.393422,1.536192,1.078787,0.767246,3.363423
2026-01-18T19:52:12.762777,12.361321,-4.311866,1.919043,1.462411,0.544891,3.385414
2026-01-18T19:52:12.771777,13.792229,-3.096312,1.909472,1.618792,0.481361,3.440392
2026-01-18T19:52:12.781777,14.802000,-2.220539,1.607976,1.459967,0.647517,3.533243
2026-01-18T19:52:12.790777,14.883356,-2.182254,1.320838,1.028696,0.965166,3.667634
2026-01-18T19:52:12.800777,14.036297,-3.125026,1.182054,0.493579,1.284038,3.824015
2026-01-18T19:52:12.810777,12.859028,-5.087140,1.177268,0.040317,1.458745,3.968179
2026-01-18T19:52:12.819777,12.035897,-7.389036,1.138983,-0.119729,1.426980,4.102570
2026-01-18T19:52:12.829777,11.662617,-9.174081,1.560120,0.036651,1.211956,4.216190
2026-01-18T19:52:12.838777,12.021540,-10.159924,1.651047,0.465479,0.897971,4.287051
2026-01-18T19:52:12.848777,12.820743,-10.045069,1.402194,1.043357,0.643851,4.295603
2026-01-18T19:52:12.858777,13.557732,-8.867800,1.607976,1.492954,0.564439,4.289494
2026-01-18T19:52:12.867777,13.840085,-6.762116,2.450250,1.646892,0.654847,4.338364
2026-01-18T19:52:12.877777,13.361521,-4.642075,2.981456,1.419650,0.842993,4.447098
2026-01-18T19:52:12.887777,12.409178,-3.278166,3.555734,0.877202,1.025031,4.585153
2026-01-18T19:52:12.896777,11.466405,-2.952743,3.900300,0.182037,1.120326,4.719543
2026-01-18T19:52:12.906777,10.738987,-3.728017,3.699303,-0.425162,1.167974,4.792847
2026-01-18T19:52:12.915777,10.250852,-5.240281,4.120440,-0.746477,1.235169,4.767191
2026-01-18T19:52:12.925777,9.801001,-6.628118,3.952942,-0.741590,1.263269,4.691444
2026-01-18T19:52:12.935777,9.174081,-7.278966,3.397808,-0.521678,1.213178,4.585153
2026-01-18T19:52:12.944777,8.451449,-7.652246,2.900100,-0.356745,1.104444,4.469089
2026-01-18T19:52:12.954777,7.695317,-8.078169,2.986242,-0.324980,0.951727,4.400672
2026-01-18T19:52:12.963777,7.307680,-8.925228,3.182454,-0.367740,0.757472,4.331033
2026-01-18T19:52:12.973777,7.188039,-10.131210,3.192025,-0.333532,0.577878,4.250399
2026-01-18T19:52:12.983777,7.216752,-10.925627,3.158525,-0.018325,0.476474,4.056144
2026-01-18T19:52:12.992777,7.058826,-10.925627,3.881158,0.540004,0.467922,3.739716
2026-01-18T19:52:13.002777,6.766902,-10.365707,4.527220,1.154535,0.499687,3.321884
2026-01-18T19:52:13.012777,6.398407,-9.489934,5.101497,1.712865,0.549778,2.831970
2026-01-18T19:52:13.021777,6.034698,-8.379664,5.670989,2.056171,0.580321,2.344500
2026-01-18T19:52:13.031777,5.828915,-7.542176,5.862415,2.043954,0.561995,1.937664
2026-01-18T19:52:13.040777,5.785845,-6.910471,5.599204,1.765400,0.563217,1.596801
2026-01-18T19:52:13.050777,5.326423,-6.374479,5.623133,1.335351,0.605978,1.270599
2026-01-18T19:52:13.060777,4.761716,-6.163911,5.675775,0.763581,0.625525,0.981049
2026-01-18T19:52:13.069777,4.082155,-6.202196,5.594419,0.219911,0.571769,0.670729
2026-01-18T19:52:13.079777,3.493520,-6.350551,5.197210,-0.305432,0.434935,0.351858
2026-01-18T19:52:13.088777,3.287738,-7.345965,5.307280,-0.812450,0.229685,-0.013439
2026-01-18T19:52:13.098777,3.656232,-9.111868,5.249852,-1.128878,0.006108,-0.453261
2026-01-18T19:52:13.108777,4.474578,-11.140982,4.910071,-1.207069,-0.163711,-0.945619
2026-01-18T19:52:13.117777,5.484349,-13.591232,4.551148,-1.197295,-0.250454,-1.370781
2026-01-18T19:52:13.127777,6.053841,-15.701701,4.575076,-1.023809,-0.284663,-1.726304
2026-01-18T19:52:13.137777,6.230910,-16.429119,4.685146,-0.445931,-0.245567,-2.157575
2026-01-18T19:52:13.146777,5.804987,-15.419348,4.814359,0.316428,-0.190589,-2.592511
2026-01-18T19:52:13.156777,5.010570,-13.021740,5.465206,1.004262,-0.261450,-2.977356
2026-01-18T19:52:13.165777,4.675575,-9.724431,6.010770,1.441641,-0.536339,-3.326771
2026-01-18T19:52:13.175777,5.206781,-7.135396,6.025127,1.324355,-0.973718,-3.565008
2026-01-18T19:52:13.185777,6.886543,-6.240481,5.838487,0.599869,-1.450193,-3.660303
2026-01-18T19:52:13.194777,9.121439,-6.628118,5.436492,-0.251676,-1.767843,-3.737272
2026-01-18T19:52:13.204777,11.155338,-7.384250,4.785645,-0.965166,-1.825264,-3.827680
2026-01-18T19:52:13.213777,12.433106,-8.676374,4.240081,-1.561371,-1.645670,-3.904649
2026-01-18T19:52:13.223777,12.906885,-10.274780,3.704089,-1.830151,-1.309694,-3.990170
2026-01-18T19:52:13.233777,12.332607,-11.394621,3.440878,-1.760513,-0.921184,-4.072026
2026-01-18T19:52:13.242777,11.059626,-11.825329,3.818944,-1.475850,-0.675616,-4.145330
2026-01-18T19:52:13.252777,9.772287,-11.298908,3.775874,-0.922406,-0.656069,-4.279720
2026-01-18T19:52:13.262777,8.858229,-9.805787,4.039084,-0.331088,-0.852767,-4.428772
2026-01-18T19:52:13.271777,8.776873,-8.236095,4.211367,0.003665,-1.222951,-4.557053
2026-01-18T19:52:13.281777,9.887142,-6.939185,3.608376,0.108733,-1.642005,-4.662122
2026-01-18T19:52:13.290777,11.294122,-6.240481,2.852244,-0.020769,-1.946216,-4.732982
2026-01-18T19:52:13.300777,13.007383,-6.575476,2.464607,-0.415388,-2.106262,-4.667009
2026-01-18T19:52:13.310777,14.557932,-7.121040,2.440679,-0.723264,-2.136806,-4.554610
2026-01-18T19:52:13.319777,15.419348,-6.790830,3.096312,-0.755029,-2.019520,-4.476419
2026-01-18T19:52:13.329777,15.701701,-5.824130,3.550948,-0.795346,-1.798386,-4.371350
2026-01-18T19:52:13.338777,15.433705,-5.067998,3.689732,-0.992044,-1.540601,-4.217412
2026-01-18T19:52:13.348777,14.620146,-4.752145,3.723231,-1.263269,-1.307251,-4.035374
2026-01-18T19:52:13.358777,13.753944,-5.106283,3.086741,-1.584584,-1.166752,-3.837454
2026-01-18T19:52:13.367777,12.949955,-5.924628,1.852044,-1.758069,-1.114217,-3.693290
2026-01-18T19:52:13.377777,12.428320,-6.460621,1.823330,-1.589471,-1.147204,-3.643199
2026-01-18T19:52:13.387777,12.557533,-6.307480,1.914258,-1.203404,-1.262047,-3.644421
2026-01-18T19:52:13.396777,12.863814,-5.623133,1.134197,-0.746477,-1.332907,-3.668855
2026-01-18T19:52:13.406777,12.892528,-4.259224,0.047856,-0.284663,-1.247386,-3.732385
2026-01-18T19:52:13.415777,12.643674,-2.947957,0.177068,-0.004886,-1.111774,-3.749490
2026-01-18T19:52:13.425777,12.294322,-2.134397,0.727418,0.008552,-1.043357,-3.714059
2026-01-18T19:52:13.435777,11.949756,-1.732403,0.784845,-0.108733,-1.037248,-3.618764
2026-01-18T19:52:13.444777,11.791829,-1.545763,1.253839,-0.283441,-1.055574,-3.505144
2026-01-18T19:52:13.454777,11.815757,-1.598405,1.603191,-0.513126,-1.082452,-3.349984
2026-01-18T19:52:13.463777,11.930613,-1.689332,1.732403,-0.707381,-1.078787,-3.185050
2026-01-18T19:52:13.473777,11.949756,-1.847259,1.478764,-0.869871,-1.027475,-3.016451
2026-01-18T19:52:13.483777,11.734402,-2.153540,1.454836,-0.962723,-0.944397,-2.864957
2026-01-18T19:52:13.492777,11.279765,-2.254038,1.454836,-0.932180,-0.852767,-2.736675
2026-01-18T19:52:13.502777,10.858628,-2.421536,1.435693,-0.845437,-0.794124,-2.632828
2026-01-18T19:52:13.512777,10.657631,-2.522035,1.153340,-0.712268,-0.783129,-2.558303
2026-01-18T19:52:13.521777,10.609775,-2.512463,0.803988,-0.530230,-0.780685,-2.477668
2026-01-18T19:52:13.531777,10.447063,-2.139183,0.306281,-0.333532,-0.723264,-2.401921
2026-01-18T19:52:13.540777,9.982855,-1.737189,0.119641,-0.188146,-0.624304,-2.304183
2026-01-18T19:52:13.550777,9.489934,-1.612762,0.196211,-0.119729,-0.529009,-2.183231
2026-01-18T19:52:13.560777,8.805587,-1.751546,0.191425,-0.067195,-0.449596,-2.031737
2026-01-18T19:52:13.569777,8.121239,-1.885544,0.181854,0.037873,-0.367740,-1.872912
2026-01-18T19:52:13.579777,7.245466,-1.732403,0.258424,0.175929,-0.302989,-1.709200
2026-01-18T19:52:13.588777,6.412764,-1.148554,0.382851,0.313984,-0.311541,-1.536936
2026-01-18T19:52:13.598777,5.752345,-0.440279,0.349352,0.390953,-0.390953,-1.374446
2026-01-18T19:52:13.608777,5.312066,0.401994,0.626919,0.357966,-0.488692,-1.248608
2026-01-18T19:52:13.617777,4.919643,1.210768,0.981057,0.227241,-0.548556,-1.164308
2026-01-18T19:52:13.627777,4.646861,1.550549,1.373480,-0.007330,-0.571769,-1.102000
2026-01-18T19:52:13.637777,4.402793,1.435693,1.555334,-0.301767,-0.587652,-1.047022
2026-01-18T19:52:13.646777,4.350151,0.780060,1.560120,-0.577878,-0.598647,-0.988379
2026-01-18T19:52:13.656777,4.321437,-0.023928,1.473978,-0.725707,-0.591317,-0.928514
2026-01-18T19:52:13.665777,4.311866,-0.823130,1.430907,-0.715933,-0.548556,-0.867428
2026-01-18T19:52:13.675777,4.235296,-1.249053,1.363908,-0.576656,-0.466700,-0.810007
2026-01-18T19:52:13.685777,3.881158,-1.402194,1.282552,-0.342084,-0.356745,-0.763581
2026-01-18T19:52:13.694777,3.306880,-1.220339,1.196411,-0.086742,-0.248011,-0.714712
2026-01-18T19:52:13.704777,2.703889,-0.842273,1.320838,0.151494,-0.184481,-0.669508
2026-01-18T19:52:13.713777,2.287538,-0.210568,1.268195,0.326201,-0.185702,-0.616973
2026-01-18T19:52:13.723777,2.105683,0.334995,1.253839,0.390953,-0.246789,-0.565661
2026-01-18T19:52:13.733777,2.258824,0.617348,1.239482,0.322536,-0.333532,-0.505796
2026-01-18T19:52:13.742777,2.651247,0.722632,1.249053,0.178372,-0.426383,-0.447153
2026-01-18T19:52:13.752777,3.335594,0.727418,1.258624,0.004886,-0.508239,-0.382401
2026-01-18T19:52:13.762777,4.216153,0.540777,1.450050,-0.161268,-0.571769,-0.324980
2026-01-18T19:52:13.771777,5.192425,0.325423,1.502692,-0.296880,-0.597426,-0.274889
2026-01-18T19:52:13.781777,6.154339,0.138783,1.368694,-0.389731,-0.592539,-0.226020
2026-01-18T19:52:13.790777,7.144968,-0.047856,1.100698,-0.448374,-0.568104,-0.171042
2026-01-18T19:52:13.800777,8.015955,-0.244067,0.837487,-0.483805,-0.525343,-0.113620
2026-01-18T19:52:13.810777,8.891728,-0.473778,0.626919,-0.483805,-0.472809,-0.052534
2026-01-18T19:52:13.819777,9.647860,-0.488135,0.564706,-0.483805,-0.434935,0.023212
2026-01-18T19:52:13.829777,10.533205,-0.607776,0.440279,-0.507018,-0.393397,0.111177
2026-01-18T19:52:13.838777,11.117053,-0.756131,0.196211,-0.504574,-0.296880,0.201585
2026-01-18T19:52:13.848777,11.327622,-0.851844,0.559920,-0.436157,-0.131946,0.267558
2026-01-18T19:52:13.858777,11.069197,-0.765703,0.832702,-0.362853,0.072082,0.334754
2026-01-18T19:52:13.867777,10.389635,-0.617348,1.071984,-0.293215,0.257785,0.395840
2026-01-18T19:52:13.877777,9.547362,-0.583848,1.416550,-0.230907,0.377514,0.461814
2026-01-18T19:52:13.887777,8.604590,-0.669990,1.378265,-0.189368,0.450818,0.542448
2026-01-18T19:52:13.896777,7.724031,-0.813559,1.445264,-0.125838,0.503352,0.614530
2026-01-18T19:52:13.906777,7.006184,-0.899701,1.909472,-0.046425,0.530230,0.696386
2026-01-18T19:52:13.915777,6.360122,-1.062413,2.469392,0.062308,0.521678,0.788015
2026-01-18T19:52:13.925777,6.101697,-1.172483,2.718246,0.194255,0.516791,0.891863
2026-01-18T19:52:13.935777,6.049055,-1.182054,2.684746,0.327423,0.560774,1.004262
2026-01-18T19:52:13.944777,5.948556,-1.043270,2.890529,0.467922,0.662177,1.119104
2026-01-18T19:52:13.954777,5.915057,-0.655633,2.809173,0.563217,0.791681,1.243721
2026-01-18T19:52:13.963777,5.962913,-0.401994,2.191825,0.520457,0.929736,1.386663
2026-01-18T19:52:13.973777,5.943771,-0.258424,1.933400,0.365297,1.048244,1.541823
2026-01-18T19:52:13.983777,6.092126,-0.258424,1.612762,0.157603,1.137430,1.706757
2026-01-18T19:52:13.992777,6.187839,-0.416351,1.545763,-0.035430,1.194852,1.870468
2026-01-18T19:52:14.002777,6.326622,-0.535992,1.450050,-0.193033,1.210734,2.032959
2026-01-18T19:52:14.012777,6.436692,-0.698704,1.426122,-0.329867,1.209512,2.188118
2026-01-18T19:52:14.021777,6.680760,-0.827916,1.469193,-0.432492,1.199739,2.329839
2026-01-18T19:52:14.031777,6.991827,-1.062413,1.373480,-0.503352,1.170417,2.460564
2026-01-18T19:52:14.040777,7.499106,-1.454836,1.411765,-0.530230,1.133765,2.577850
2026-01-18T19:52:14.050777,7.992027,-1.875972,1.411765,-0.475253,1.149648,2.679254
2026-01-18T19:52:14.060777,8.499305,-2.368894,1.517049,-0.339641,1.240056,2.745227
2026-01-18T19:52:14.069777,8.685946,-2.828316,1.148554,-0.111177,1.361007,2.808757
2026-01-18T19:52:14.079777,8.427521,-2.895315,0.636490,0.237015,1.470963,2.847853
2026-01-18T19:52:14.088777,7.992027,-2.507678,0.545563,0.563217,1.543045,2.885726
2026-01-18T19:52:14.098777,7.345965,-1.813759,0.344566,0.770911,1.561371,2.941926
2026-01-18T19:52:14.108777,6.723831,-1.201196,0.311066,0.833220,1.492954,3.021338
2026-01-18T19:52:14.117777,6.570690,-0.827916,0.550349,0.736703,1.328020,3.109303
2026-01-18T19:52:14.127777,7.006184,-0.933200,0.842273,0.543669,1.109331,3.197267
2026-01-18T19:52:14.137777,7.925028,-1.191625,1.373480,0.444709,0.938288,3.265684
2026-01-18T19:52:14.146777,8.915657,-1.282552,1.550549,0.357966,0.875980,3.338988
2026-01-18T19:52:14.156777,9.743573,-1.828116,1.560120,0.174707,0.928514,3.409849
2026-01-18T19:52:14.165777,10.131210,-2.847458,1.301695,0.043982,1.043357,3.473379
2026-01-18T19:52:14.175777,9.982855,-3.914657,0.981057,0.054977,1.187521,3.497813
2026-01-18T19:52:14.185777,9.355936,-4.718646,0.803988,0.205250,1.298699,3.516139
2026-01-18T19:52:14.194777,8.724231,-5.044070,0.794417,0.454483,1.291368,3.524691
2026-01-18T19:52:14.204777,8.327022,-4.948357,0.880558,0.740368,1.130100,3.510030
2026-01-18T19:52:14.213777,8.556733,-4.479363,0.646062,0.972497,0.885754,3.485596
2026-01-18T19:52:14.223777,9.145367,-3.785445,0.038285,1.084896,0.700051,3.459939
2026-01-18T19:52:14.233777,9.757930,-3.029313,-0.200997,1.066570,0.629191,3.426953
2026-01-18T19:52:14.242777,10.222138,-2.608176,-0.177068,0.908967,0.630412,3.379305
2026-01-18T19:52:14.252777,10.514062,-2.756531,-0.210568,0.723264,0.696386,3.276680
2026-01-18T19:52:14.262777,10.327422,-3.751945,-0.086141,0.566882,0.853989,3.169168
2026-01-18T19:52:14.271777,9.667003,-4.991427,0.531206,0.551000,1.006705,3.071429
2026-01-18T19:52:14.281777,8.843872,-6.106483,1.119840,0.681725,1.053131,3.004234
2026-01-18T19:52:14.290777,8.322237,-6.417550,1.689332,0.868650,0.950506,2.995682
2026-01-18T19:52:14.300777,8.173882,-5.747559,2.445464,1.029918,0.722042,3.009121
2026-01-18T19:52:14.310777,8.762516,-4.235296,3.230310,0.983492,0.438601,3.073873
2026-01-18T19:52:14.319777,9.882357,-2.780459,3.909872,0.647517,0.239459,3.152063
2026-01-18T19:52:14.329777,11.078768,-2.364108,4.704289,-0.014660,0.224798,3.229032
2026-01-18T19:52:14.338777,11.935399,-3.622733,5.216353,-0.841772,0.377514,3.335323
2026-01-18T19:52:14.348777,12.078968,-6.082555,5.288137,-1.425759,0.634077,3.386636
2026-01-18T19:52:14.358777,11.590832,-9.040083,5.441278,-1.622457,0.918741,3.385414
2026-01-18T19:52:14.367777,10.786844,-12.078968,5.527420,-1.318246,1.138652,3.378084
2026-01-18T19:52:14.377777,9.690931,-14.093725,5.493920,-0.509461,1.227838,3.326771
2026-01-18T19:52:14.387777,8.604590,-14.658431,6.092126,0.489913,1.174082,3.293784
2026-01-18T19:52:14.396777,7.805387,-13.605589,6.288337,1.424537,0.979827,3.314554
2026-01-18T19:52:14.406777,7.590033,-11.164910,6.446264,2.017076,0.701273,3.341432
2026-01-18T19:52:14.415777,7.925028,-8.757730,6.580262,2.054950,0.432492,3.364645
2026-01-18T19:52:14.425777,8.413164,-7.384250,6.723831,1.621236,0.285884,3.389079
2026-01-18T19:52:14.435777,8.743373,-7.255038,7.101897,0.923628,0.288328,3.419622
2026-01-18T19:52:14.444777,8.489734,-8.183453,7.010970,0.288328,0.416610,3.389079
2026-01-18T19:52:14.454777,7.786244,-9.934999,6.982256,-0.119729,0.554665,3.285232
2026-01-18T19:52:14.463777,7.044469,-12.002398,6.934399,-0.226020,0.609643,3.119077
2026-01-18T19:52:14.473777,6.340979,-13.586446,6.699903,0.001221,0.592539,2.922378
2026-01-18T19:52:14.483777,5.790630,-14.318650,6.570690,0.494800,0.551000,2.651154
2026-01-18T19:52:14.492777,5.388636,-14.213366,6.738188,1.048244,0.482583,2.348165
2026-01-18T19:52:14.502777,5.120640,-12.801600,7.207181,1.584584,0.408057,2.050063
2026-01-18T19:52:14.512777,5.082355,-10.341779,7.719245,1.842369,0.344527,1.792278
2026-01-18T19:52:14.521777,5.268995,-8.126025,7.920242,1.684765,0.326201,1.543045
2026-01-18T19:52:14.531777,5.273781,-6.455835,8.044669,1.155756,0.365297,1.323133
2026-01-18T19:52:14.540777,5.192425,-5.599204,8.489734,0.433714,0.425162,1.045801
2026-01-18T19:52:14.550777,4.919643,-5.589633,8.221738,-0.356745,0.459370,0.719599
2026-01-18T19:52:14.560777,4.512863,-6.632904,7.747959,-1.159421,0.410501,0.350636
2026-01-18T19:52:14.569777,4.532006,-8.949156,6.757331,-1.833817,0.257785,-0.046425
2026-01-18T19:52:14.579777,4.957928,-11.854043,5.958128,-2.067167,0.138055,-0.526565
2026-01-18T19:52:14.588777,5.321637,-14.208580,5.316851,-1.794721,0.052534,-1.001818
2026-01-18T19:52:14.598777,5.709274,-15.419348,4.187439,-1.211956,-0.047647,-1.415985
2026-01-18T19:52:14.608777,5.891129,-15.136995,3.565305,-0.395840,-0.171042,-1.865582
2026-01-18T19:52:14.617777,5.752345,-13.418949,3.708875,0.485026,-0.316428,-2.288300
2026-01-18T19:52:14.627777,5.599204,-11.097911,4.235296,1.018923,-0.526565,-2.609615
2026-01-18T19:52:14.637777,5.742774,-9.092725,5.254638,1.164308,-0.814894,-2.875952
2026-01-18T19:52:14.646777,6.427121,-7.513462,6.570690,1.160643,-1.169195,-3.169168
2026-01-18T19:52:14.656777,7.695317,-6.082555,7.077969,1.025031,-1.466076,-3.464826
2026-01-18T19:52:14.665777,9.116654,-5.178068,6.776473,0.796568,-1.565036,-3.751933
2026-01-18T19:52:14.675777,9.925428,-4.680361,6.264409,0.444709,-1.486845,-3.987727
2026-01-18T19:52:14.685777,10.222138,-5.000999,5.589633,-0.163711,-1.401324,-4.113565
2026-01-18T19:52:14.694777,10.322636,-6.422335,5.316851,-0.945619,-1.425759,-4.133113
2026-01-18T19:52:14.704777,10.537990,-8.403592,4.220939,-1.609018,-1.538158,-4.089131
2026-01-18T19:52:14.713777,10.920842,-10.135996,2.828316,-1.813047,-1.624901,-4.120896
2026-01-18T19:52:14.723777,11.054840,-10.719845,3.378665,-1.455080,-1.611462,-4.246734
2026-01-18T19:52:14.733777,11.011769,-10.169496,3.455235,-0.856432,-1.573588,-4.299268
2026-01-18T19:52:14.742777,10.719845,-9.054440,3.474378,-0.371405,-1.550375,-4.331033
2026-01-18T19:52:14.752777,10.451849,-7.762316,3.895515,-0.087964,-1.584584,-4.389676
2026-01-18T19:52:14.762777,10.480562,-6.671189,3.785445,-0.078190,-1.674992,-4.398228
2026-01-18T19:52:14.771777,10.576275,-6.087340,3.560520,-0.228463,-1.765400,-4.406780
2026-01-18T19:52:14.781777,10.834700,-5.450849,3.531806,-0.340862,-1.838703,-4.462980
2026-01-18T19:52:14.790777,11.054840,-4.484149,2.512463,-0.438601,-1.890016,-4.564384
2026-01-18T19:52:14.800777,11.241480,-3.670589,2.081755,-0.624304,-1.991420,-4.646240
2026-01-18T19:52:14.810777,12.174681,-3.129811,2.909672,-1.076344,-2.315178,-4.565605
2026-01-18T19:52:14.819777,14.380863,-3.680161,2.737389,-1.780060,-2.741562,-4.247955
2026-01-18T19:52:14.829777,17.185251,-4.776073,2.129612,-2.359161,-2.863735,-3.907093
2026-01-18T19:52:14.838777,19.056438,-6.178267,1.780260,-2.658484,-2.463008,-3.622430
2026-01-18T19:52:14.848777,19.099508,-7.647461,1.808973,-2.729345,-1.715309,-3.378084
2026-01-18T19:52:14.858777,17.419748,-8.843872,1.938186,-2.513099,-0.967610,-3.176498
2026-01-18T19:52:14.867777,14.701502,-9.260223,2.062613,-2.028072,-0.474031,-3.040886
2026-01-18T19:52:14.877777,12.145967,-8.729016,2.048256,-1.323133,-0.316428,-2.976134
2026-01-18T19:52:14.887777,10.236495,-7.207181,1.895115,-0.558330,-0.393397,-2.976134
2026-01-18T19:52:14.896777,9.049655,-5.426921,1.627119,0.030543,-0.596204,-3.009121
2026-01-18T19:52:14.906777,8.618947,-3.656232,1.244267,0.379958,-0.839328,-3.040886
2026-01-18T19:52:14.915777,8.705088,-2.254038,1.019342,0.507018,-1.060461,-3.065321
2026-01-18T19:52:14.925777,8.934799,-1.435693,0.851844,0.452040,-1.225395,-3.071429
2026-01-18T19:52:14.935777,9.384650,-0.756131,0.909272,0.313984,-1.347568,-3.042108
2026-01-18T19:52:14.944777,9.815358,-0.215354,0.990628,0.160046,-1.428202,-2.995682
2026-01-18T19:52:14.954777,10.298708,0.081355,1.081555,-0.036651,-1.444085,-2.938261
2026-01-18T19:52:14.963777,10.638489,0.095712,1.057627,-0.248011,-1.369559,-2.871066
2026-01-18T19:52:14.973777,10.595418,0.138783,1.091127,-0.437379,-1.218065,-2.801427
2026-01-18T19:52:14.983777,10.226923,0.004785,0.952343,-0.640186,-1.054353,-2.730567
2026-01-18T19:52:14.992777,9.638289,-0.449850,0.875773,-0.812450,-0.943175,-2.640159
2026-01-18T19:52:15.002777,9.087940,-0.803988,0.890130,-0.912632,-0.910189,-2.522872
2026-01-18T19:52:15.012777,8.700302,-1.115055,0.933200,-0.957836,-0.927293,-2.392147
2026-01-18T19:52:15.021777,8.384450,-1.478764,0.875773,-0.948062,-0.937067,-2.250427
2026-01-18T19:52:15.031777,7.987241,-1.569691,0.904486,-0.889419,-0.905302,-2.105041
2026-01-18T19:52:15.040777,7.427321,-1.560120,0.928415,-0.779463,-0.831998,-1.973094
2026-01-18T19:52:15.050777,6.599404,-1.550549,1.339980,-0.587652,-0.725707,-1.872912
2026-01-18T19:52:15.060777,5.804987,-1.426122,1.722832,-0.350636,-0.602312,-1.809382
2026-01-18T19:52:15.069777,4.905286,-1.182054,1.497906,-0.083077,-0.486248,-1.760513
2026-01-18T19:52:15.079777,3.996013,-0.894915,1.081555,0.141720,-0.390953,-1.725083
2026-01-18T19:52:15.088777,3.196810,-0.837487,0.914058,0.265115,-0.353080,-1.676213
2026-01-18T19:52:15.098777,2.612962,-1.024128,0.746560,0.317649,-0.393397,-1.604131
2026-01-18T19:52:15.108777,2.368894,-1.148554,0.713061,0.345749,-0.476474,-1.516167
2026-01-18T19:52:15.117777,2.426322,-1.186840,0.636490,0.348193,-0.540004,-1.415985
2026-01-18T19:52:15.127777,2.498106,-0.976271,0.655633,0.340862,-0.549778,-1.317025
2026-01-18T19:52:15.137777,2.440679,-0.602991,0.923629,0.311541,-0.505796,-1.227838
2026-01-18T19:52:15.146777,2.163111,-0.186640,1.062413,0.218689,-0.464257,-1.142317
2026-01-18T19:52:15.156777,2.105683,0.105284,1.335195,0.080634,-0.493579,-1.044579
2026-01-18T19:52:15.165777,2.321037,0.224925,1.569691,-0.072082,-0.608421,-0.945619
2026-01-18T19:52:15.175777,3.115455,-0.100498,1.612762,-0.223576,-0.736703,-0.842993
2026-01-18T19:52:15.185777,4.139583,-0.555134,1.684547,-0.279776,-0.790459,-0.761137
2026-01-18T19:52:15.194777,4.977071,-0.827916,1.536192,-0.237015,-0.733038,-0.704938
2026-01-18T19:52:15.204777,5.618347,-0.985842,1.301695,-0.144164,-0.608421,-0.667064
2026-01-18T19:52:15.213777,5.924628,-1.000199,1.521835,-0.040317,-0.485026,-0.624304
2026-01-18T19:52:15.223777,6.245266,-0.866201,1.674975,0.041538,-0.417831,-0.551000
2026-01-18T19:52:15.233777,6.733402,-0.583848,1.622333,0.034208,-0.403170,-0.466700
2026-01-18T19:52:15.242777,7.470392,-0.531206,1.540977,-0.056199,-0.421496,-0.379958
2026-01-18T19:52:15.252777,8.384450,-0.684347,1.502692,-0.193033,-0.454483,-0.289550
2026-01-18T19:52:15.262777,9.322436,-0.741775,1.488335,-0.318871,-0.470366,-0.195476
2026-01-18T19:52:15.271777,10.332207,-0.837487,1.469193,-0.434935,-0.432492,-0.095294
2026-01-18T19:52:15.281777,11.097911,-1.105484,1.560120,-0.521678,-0.328645,0.014660
2026-01-18T19:52:15.290777,11.495119,-1.450050,1.737189,-0.551000,-0.153938,0.136833
2026-01-18T19:52:15.300777,11.437692,-1.713260,1.770688,-0.515570,0.112399,0.251676
2026-01-18T19:52:15.310777,10.533205,-2.029113,1.933400,-0.398284,0.423940,0.373849
2026-01-18T19:52:15.319777,9.154939,-2.043470,2.148754,-0.210137,0.675616,0.500909
2026-01-18T19:52:15.329777,7.743173,-1.751546,2.167897,-0.017104,0.807563,0.653625
2026-01-18T19:52:15.338777,6.417550,-1.421336,1.861615,0.116064,0.840550,0.833220
2026-01-18T19:52:15.348777,5.474778,-1.368694,1.579262,0.183259,0.819780,1.011592
2026-01-18T19:52:15.358777,4.795216,-1.325623,1.435693,0.206472,0.781907,1.194852
2026-01-18T19:52:15.367777,4.244867,-1.464407,1.459621,0.194255,0.739146,1.387885
2026-01-18T19:52:15.377777,3.919443,-1.741974,1.674975,0.211359,0.670729,1.565036
2026-01-18T19:52:15.387777,4.029513,-1.789831,1.952543,0.272445,0.566882,1.726304
2026-01-18T19:52:15.396777,4.661218,-1.909472,2.062613,0.350636,0.426383,1.879021
2026-01-18T19:52:15.406777,5.781059,-1.837687,1.713260,0.474031,0.312762,2.008524
2026-01-18T19:52:15.415777,6.939185,-1.722832,1.464407,0.634077,0.290771,2.112371
2026-01-18T19:52:15.425777,7.867600,-1.383051,0.981057,0.772133,0.383623,2.191784
2026-01-18T19:52:15.435777,8.331808,-1.033699,0.622133,0.836885,0.574213,2.258979
2026-01-18T19:52:15.444777,8.303094,-0.827916,0.267996,0.835663,0.800233,2.332282
2026-01-18T19:52:15.454777,7.901100,-0.880558,-0.416351,0.748920,0.981049,2.437351
2026-01-18T19:52:15.463777,7.255038,-1.392622,-1.115055,0.610865,1.039692,2.575407
2026-01-18T19:52:15.473777,6.963113,-2.086541,-1.818545,0.553443,0.932180,2.728123
2026-01-18T19:52:15.483777,7.111468,-2.684746,-2.187039,0.630412,0.702494,2.853961
2026-01-18T19:52:15.492777,7.929814,-2.952743,-2.081755,0.872315,0.419053,2.928487
2026-01-18T19:52:15.502777,9.126225,-2.373680,-1.440479,1.218065,0.185702,2.971247
2026-01-18T19:52:15.512777,10.585847,-1.134197,-0.574277,1.464854,0.074525,2.992017
2026-01-18T19:52:15.521777,11.901899,0.062213,0.244067,1.469741,0.141720,3.014008
2026-01-18T19:52:15.531777,12.557533,1.043270,0.717846,1.216843,0.419053,3.051882
2026-01-18T19:52:15.540777,12.394821,1.201196,0.760917,0.747698,0.834441,3.099529
2026-01-18T19:52:15.550777,11.452048,0.210568,0.334995,0.222354,1.274264,3.164281
2026-01-18T19:52:15.560777,9.906285,-1.517049,0.129212,-0.134390,1.601688,3.238806
2026-01-18T19:52:15.569777,8.260023,-3.215953,-0.028713,-0.156381,1.710422,3.318219
2026-01-18T19:52:15.579777,7.015755,-4.536791,-0.110069,0.145385,1.585805,3.401296
2026-01-18T19:52:15.588777,6.551548,-5.178068,0.344566,0.621860,1.251051,3.479487
2026-01-18T19:52:15.598777,7.403393,-5.077569,0.693918,1.139874,0.851545,3.544239
2026-01-18T19:52:15.608777,9.092725,-4.254438,1.100698,1.546710,0.535117,3.571117
2026-01-18T19:52:15.617777,11.251051,-3.306880,1.564905,1.700648,0.408057,3.593108
2026-01-18T19:52:15.627777,12.949955,-2.325823,2.153540,1.622457,0.558330,3.606547
2026-01-18T19:52:15.637777,13.634303,-1.426122,2.541177,1.351233,0.960279,3.639534
2026-01-18T19:52:15.646777,12.954741,-1.426122,2.067398,0.927293,1.453858,3.665190
2026-01-18T19:52:15.656777,11.605189,-3.029313,1.660618,0.601091,1.868025,3.628538
2026-01-18T19:52:15.665777,9.949356,-5.508277,1.454836,0.529009,2.080606,3.602882
2026-01-18T19:52:15.675777,8.528019,-7.427321,1.091127,0.884532,2.083050,3.601660
2026-01-18T19:52:15.685777,7.360322,-7.929814,1.024128,1.536936,1.909564,3.567452
2026-01-18T19:52:15.694777,6.905686,-7.369893,1.062413,2.091602,1.567479,3.585778
2026-01-18T19:52:15.704777,7.302894,-6.264409,1.703689,2.300518,1.100778,3.663968
2026-01-18T19:52:15.713777,8.824729,-5.173282,2.421536,2.063502,0.675616,3.775146
2026-01-18T19:52:15.723777,10.681560,-4.689932,2.775674,1.446528,0.475253,3.905871
2026-01-18T19:52:15.733777,12.136396,-5.154139,2.766102,0.715933,0.559552,4.013383
2026-01-18T19:52:15.742777,12.471391,-6.053841,2.612962,0.133168,0.833220,4.081800
2026-01-18T19:52:15.752777,11.763115,-6.695117,2.139183,-0.116064,1.158200,4.098904
2026-01-18T19:52:15.762777,10.250852,-7.211967,1.746760,-0.114842,1.368337,4.087909
2026-01-18T19:52:15.771777,8.910871,-8.140382,1.603191,-0.098960,1.364672,4.072026
2026-01-18T19:52:15.781777,8.130811,-9.772287,1.684547,0.009773,1.196073,4.045148
2026-01-18T19:52:15.790777,8.011170,-11.145767,2.455035,0.377514,0.913854,3.999944
2026-01-18T19:52:15.800777,8.331808,-11.542976,3.105883,1.028696,0.658512,3.863110
2026-01-18T19:52:15.810777,8.829515,-10.695917,3.603590,1.590692,0.500909,3.747046
2026-01-18T19:52:15.819777,9.145367,-9.370293,4.211367,1.776395,0.427605,3.705507
2026-01-18T19:52:15.829777,9.317651,-7.800601,4.680361,1.626122,0.454483,3.682294
2026-01-18T19:52:15.838777,9.030512,-6.340979,4.876572,1.307251,0.601091,3.595552
2026-01-18T19:52:15.848777,8.618947,-5.781059,4.441078,0.834441,0.795346,3.439170
2026-01-18T19:52:15.858777,8.054240,-7.068397,4.608576,0.438601,1.076344,3.200933
2026-01-18T19:52:15.867777,7.312465,-8.934799,4.086941,0.270002,1.134987,3.005456
2026-01-18T19:52:15.877777,6.728617,-11.318050,4.369294,0.261450,1.071457,2.775771
2026-01-18T19:52:15.887777,6.374479,-13.060025,4.924428,0.597426,0.999375,2.502103
2026-01-18T19:52:15.896777,5.876772,-13.385449,5.517848,1.174082,0.943175,2.224770
2026-01-18T19:52:15.906777,5.331208,-12.576675,6.101697,1.692096,0.899193,1.933998
2026-01-18T19:52:15.915777,4.924428,-11.370692,6.872186,1.954768,0.840550,1.706757
2026-01-18T19:52:15.925777,4.675575,-9.662217,6.963113,2.041511,0.805120,1.477071
2026-01-18T19:52:15.935777,4.326223,-7.848458,7.039684,1.920559,0.812450,1.231504
2026-01-18T19:52:15.944777,3.771088,-6.436692,6.757331,1.525941,0.812450,1.009149
2026-01-18T19:52:15.954777,3.110669,-5.642275,6.317051,0.943175,0.722042,0.770911
2026-01-18T19:52:15.963777,3.148954,-6.384050,6.168696,0.318871,0.475253,0.483805
2026-01-18T19:52:15.973777,4.168296,-8.614161,6.116054,-0.142942,0.113620,0.160046
2026-01-18T19:52:15.983777,5.919843,-11.471191,6.154339,-0.219911,-0.318871,-0.213802
2026-01-18T19:52:15.992777,8.006384,-14.155938,6.738188,0.116064,-0.681725,-0.675616
2026-01-18T19:52:16.002777,10.045069,-15.811771,7.590033,0.853989,-0.810007,-1.268155
2026-01-18T19:52:16.012777,11.284551,-15.687344,7.843672,1.833817,-0.640186,-1.966985
2026-01-18T19:52:16.021777,11.121839,-13.552947,7.819744,2.722014,-0.295658,-2.665815
2026-01-18T19:52:16.031777,9.528219,-10.360921,8.288737,3.057990,-0.056199,-3.265684
2026-01-18T19:52:16.040777,7.671389,-6.991827,8.408378,2.723236,-0.150272,-3.694512
2026-01-18T19:52:16.050777,6.106483,-3.948157,7.929814,1.913229,-0.566882,-3.963292
2026-01-18T19:52:16.060777,5.498706,-1.966900,7.633104,0.642630,-1.166752,-4.057366
2026-01-18T19:52:16.069777,5.709274,-1.426122,7.207181,-0.928514,-1.805717,-4.021935
2026-01-18T19:52:16.079777,6.833901,-2.402393,6.570690,-2.432464,-2.345722,-3.979175
2026-01-18T19:52:16.088777,8.925228,-4.776073,6.929614,-3.854558,-2.719571,-3.902206
2026-01-18T19:52:16.098777,11.260623,-8.068597,5.556134,-4.774521,-2.779436,-3.893654
2026-01-18T19:52:16.108777,12.921242,-10.877771,4.493720,-4.827055,-2.509433,-3.990170
2026-01-18T19:52:16.117777,13.696516,-13.744373,4.307080,-4.384789,-1.973094,-4.125782
2026-01-18T19:52:16.127777,13.380663,-16.357334,3.761517,-3.448944,-1.415985,-4.232073
2026-01-18T19:52:16.137777,11.949756,-16.945969,3.938585,-1.887573,-0.960279,-4.412889
2026-01-18T19:52:16.146777,9.844072,-15.046068,4.153940,-0.211359,-0.740368,-4.618140
2026-01-18T19:52:16.156777,7.704888,-11.825329,4.316651,1.044579,-0.871093,-4.737869
2026-01-18T19:52:16.165777,6.441478,-8.231309,4.455435,1.706757,-1.352455,-4.801399
2026-01-18T19:52:16.175777,6.613761,-5.259424,4.508077,1.622457,-2.063502,-4.723209
2026-01-18T19:52:16.185777,8.350950,-3.565305,4.551148,1.011592,-2.807536,-4.555831
2026-01-18T19:52:16.194777,10.949556,-2.598605,4.077369,0.202807,-3.342653,-4.389676
2026-01-18T19:52:16.204777,13.768301,-2.636890,3.900300,-0.811228,-3.582113,-4.128226
2026-01-18T19:52:16.213777,16.529617,-3.388236,4.426721,-1.879021,-3.602882,-3.764150
2026-01-18T19:52:16.223777,18.850657,-4.383651,4.019941,-2.789210,-3.349984,-3.401296
2026-01-18T19:52:16.233777,20.056639,-5.536991,3.622733,-3.508809,-2.709797,-3.075094
2026-01-18T19:52:16.242777,19.324434,-7.283751,2.919243,-3.953518,-1.781282,-2.860070
2026-01-18T19:52:16.252777,16.931612,-8.896514,2.464607,-4.039040,-0.926071,-2.722014
2026-01-18T19:52:16.262777,13.801800,-9.882357,2.105683,-3.720168,-0.415388,-2.630385
2026-01-18T19:52:16.271777,10.872985,-9.934999,1.914258,-3.046995,-0.279776,-2.620611
2026-01-18T19:52:16.281777,8.834301,-8.872586,2.421536,-2.184453,-0.458148,-2.713462
2026-01-18T19:52:16.290777,7.963313,-7.475177,1.904686,-1.347568,-0.825889,-2.808757
2026-01-18T19:52:16.300777,8.059026,-5.666203,0.899701,-0.634077,-1.207069,-2.873509
2026-01-18T19:52:16.310777,8.767302,-3.909872,0.186640,-0.128281,-1.462411,-2.921156
2026-01-18T19:52:16.319777,9.786644,-2.565105,0.105284,0.101403,-1.544267,-2.922378
2026-01-18T19:52:16.329777,10.604989,-1.823330,-0.133998,0.153938,-1.417207,-2.913826
2026-01-18T19:52:16.338777,10.676774,-1.244267,0.047856,0.157603,-1.119104,-2.900387
2026-01-18T19:52:16.348777,10.021141,-0.746560,0.263210,0.028099,-0.805120,-2.840522
2026-01-18T19:52:16.358777,8.949156,-0.751346,0.253639,-0.249232,-0.624304,-2.746449
2026-01-18T19:52:16.367777,7.920242,-0.813559,0.401994,-0.549778,-0.621860,-2.635272
2026-01-18T19:52:16.377777,7.207181,-0.942772,0.813559,-0.796568,-0.772133,-2.530203
2026-01-18T19:52:16.387777,7.197610,-1.028913,1.296909,-0.979827,-1.009149,-2.443460
2026-01-18T19:52:16.396777,7.690531,-1.287338,1.368694,-1.111774,-1.231504,-2.350608
2026-01-18T19:52:16.406777,8.575876,-1.454836,1.411765,-1.181413,-1.339016,-2.261422
2026-01-18T19:52:16.415777,9.322436,-1.478764,1.124626,-1.204625,-1.282816,-2.169792
2026-01-18T19:52:16.425777,9.633503,-1.397408,0.449850,-1.183856,-1.058018,-2.081828
2026-01-18T19:52:16.435777,9.107082,-1.076770,-0.105284,-1.119104,-0.723264,-2.006081
2026-01-18T19:52:16.444777,7.968099,-0.684347,-0.186640,-1.083674,-0.387288,-1.930333
2026-01-18T19:52:16.454777,6.642475,-0.636490,-0.315852,-1.134987,-0.156381,-1.832595
2026-01-18T19:52:16.463777,5.254638,-0.904486,-0.234496,-1.220508,-0.083077,-1.718974
2026-01-18T19:52:16.473777,4.072584,-1.354337,-0.052642,-1.315803,-0.147829,-1.587027
2026-01-18T19:52:16.483777,3.306880,-1.947757,0.172283,-1.351233,-0.311541,-1.441641
2026-01-18T19:52:16.492777,3.058027,-2.555534,0.713061,-1.242499,-0.516791,-1.313359
2026-01-18T19:52:16.502777,3.321237,-2.804388,1.440479,-1.003040,-0.704938,-1.199739
2026-01-18T19:52:16.512777,3.986442,-2.799602,1.871187,-0.671951,-0.808785,-1.112996
2026-01-18T19:52:16.521777,4.666004,-2.478964,1.832902,-0.326201,-0.763581,-1.028696
2026-01-18T19:52:16.531777,5.039284,-1.899901,1.837687,-0.036651,-0.547335,-0.948062
2026-01-18T19:52:16.540777,4.627718,-1.301695,1.765903,0.123394,-0.224798,-0.873537
2026-01-18T19:52:16.550777,3.713660,-0.890130,1.564905,0.135612,0.069638,-0.791681
2026-01-18T19:52:16.560777,2.593819,-0.827916,1.335195,0.057421,0.238237,-0.700051
2026-01-18T19:52:16.569777,1.722832,-0.870987,1.311266,-0.052534,0.226020,-0.599869
2026-01-18T19:52:16.579777,1.277767,-1.306481,1.344766,-0.144164,0.059864,-0.500909
2026-01-18T19:52:16.588777,1.746760,-1.603191,1.464407,-0.158824,-0.197920,-0.422718
2026-01-18T19:52:16.598777,2.828316,-1.703689,1.469193,-0.102625,-0.456927,-0.364075
2026-01-18T19:52:16.608777,4.158725,-1.584048,1.421336,-0.034208,-0.614530,-0.311541
2026-01-18T19:52:16.617777,5.431707,-1.196411,1.598405,0.012217,-0.624304,-0.283441
2026-01-18T19:52:16.627777,6.465406,-0.827916,1.718046,0.002443,-0.554665,-0.259006
2026-01-18T19:52:16.637777,7.283751,-0.521635,1.478764,-0.087964,-0.489913,-0.230907
2026-01-18T19:52:16.646777,8.102097,-0.526420,1.296909,-0.219911,-0.471587,-0.208915
2026-01-18T19:52:16.656777,9.087940,-0.851844,1.258624,-0.359188,-0.514348,-0.184481
2026-01-18T19:52:16.665777,10.246066,-1.316052,1.000199,-0.450818,-0.582765,-0.160046
2026-01-18T19:52:16.675777,11.485548,-1.828116,0.799202,-0.434935,-0.610865,-0.152716
2026-01-18T19:52:16.685777,12.643674,-2.373680,0.832702,-0.321315,-0.502131,-0.145385
2026-01-18T19:52:16.694777,13.127024,-2.656033,0.803988,-0.086742,-0.222354,-0.156381
2026-01-18T19:52:16.704777,12.705888,-2.488535,0.851844,0.212581,0.207694,-0.138055
2026-01-18T19:52:16.713777,11.207981,-1.981257,1.177268,0.485026,0.675616,-0.098960
2026-01-18T19:52:16.723777,8.963513,-1.244267,1.129412,0.659734,1.000597,-0.018325
2026-01-18T19:52:16.733777,6.819544,-0.598205,1.167697,0.690277,1.100778,0.119729
2026-01-18T19:52:16.742777,5.087140,-0.224925,1.373480,0.591317,0.999375,0.304210
2026-01-18T19:52:16.752777,3.996013,-0.229710,1.612762,0.422718,0.780685,0.524122
2026-01-18T19:52:16.762777,3.570091,-0.579063,1.799402,0.260228,0.510683,0.744033
2026-01-18T19:52:16.771777,3.661018,-1.229910,2.321037,0.200363,0.276111,0.924849
2026-01-18T19:52:16.781777,4.326223,-1.689332,2.679961,0.285884,0.146607,1.040914
2026-01-18T19:52:16.790777,5.288137,-2.076970,2.617747,0.486248,0.135612,1.120326
2026-01-18T19:52:16.800777,6.154339,-1.947757,2.100898,0.759916,0.235793,1.175304
2026-01-18T19:52:16.810777,6.742974,-1.454836,1.488335,0.998153,0.432492,1.210734
2026-01-18T19:52:16.819777,6.881757,-0.899701,0.909272,1.128878,0.674395,1.227838
2026-01-18T19:52:16.829777,6.546762,-0.358923,0.689132,1.152091,0.889419,1.253495
2026-01-18T19:52:16.838777,6.197410,0.000000,0.832702,1.036027,1.055574,1.318246
2026-01-18T19:52:16.848777,5.642275,0.133998,1.091127,0.780685,1.156978,1.435533
2026-01-18T19:52:16.858777,5.249852,-0.177068,1.100698,0.445931,1.166752,1.600466
2026-01-18T19:52:16.867777,5.158925,-0.803988,0.870987,0.128281,1.089783,1.793499
2026-01-18T19:52:16.877777,5.249852,-1.718046,0.535992,-0.040317,0.959058,1.974316
2026-01-18T19:52:16.887777,5.699703,-2.670390,0.411565,-0.007330,0.830776,2.135584
2026-01-18T19:52:16.896777,6.312266,-3.436093,0.248853,0.249232,0.746477,2.243096
2026-01-18T19:52:16.906777,6.853043,-3.972085,0.746560,0.670729,0.713490,2.300518
2026-01-18T19:52:16.915777,7.470392,-4.139583,0.827916,1.105665,0.691499,2.345722
2026-01-18T19:52:16.925777,8.078169,-3.809373,0.401994,1.474628,0.712268,2.398256
2026-01-18T19:52:16.935777,8.413164,-3.067598,-0.435493,1.755626,0.797789,2.453234
2026-01-18T19:52:16.944777,8.307880,-1.990828,-0.832702,1.861916,0.940732,2.536311
2026-01-18T19:52:16.954777,7.968099,-0.626919,-0.397208,1.830151,1.089783,2.615724
2026-01-18T19:52:16.963777,7.331608,0.765703,0.177068,1.572366,1.181413,2.731788
2026-01-18T19:52:16.973777,6.987041,1.201196,0.516849,0.949284,1.130100,2.926043
2026-01-18T19:52:16.983777,7.116254,0.215354,0.626919,0.163711,0.927293,3.153285
2026-01-18T19:52:16.992777,7.939385,-1.751546,0.569491,-0.444709,0.674395,3.335323
2026-01-18T19:52:17.002777,9.001798,-3.929014,0.521635,-0.685390,0.455705,3.425731
2026-01-18T19:52:17.012777,10.346564,-5.867201,0.512064,-0.515570,0.287106,3.437948
2026-01-18T19:52:17.021777,11.753544,-7.030112,0.397208,-0.001221,0.200363,3.385414
2026-01-18T19:52:17.031777,12.993026,-7.235895,0.004785,0.698829,0.256563,3.292562
2026-01-18T19:52:17.040777,13.758729,-6.556333,-0.961914,1.378111,0.486248,3.222924
2026-01-18T19:52:17.050777,13.816157,-5.450849,-0.454636,1.830151,0.781907,3.176498
2026-01-18T19:52:17.060777,13.500305,-4.192225,0.315852,1.912007,1.026253,3.240028
2026-01-18T19:52:17.069777,12.902099,-3.115455,1.071984,1.684765,1.213178,3.379305
2026-01-18T19:52:17.079777,12.174681,-2.833101,1.684547,1.149648,1.303586,3.571117
2026-01-18T19:52:17.088777,11.638689,-3.493520,1.919043,0.470366,1.262047,3.799580
2026-01-18T19:52:17.098777,11.614760,-4.733003,2.096112,-0.061086,1.097113,4.007275
2026-01-18T19:52:17.108777,12.155538,-6.259623,2.191825,-0.395840,0.919962,4.144108
2026-01-18T19:52:17.117777,12.930813,-8.346165,2.560320,-0.546113,0.844215,4.236960
2026-01-18T19:52:17.127777,13.768301,-10.322636,1.914258,-0.353080,0.882089,4.280942
2026-01-18T19:52:17.137777,14.136795,-11.542976,1.607976,0.222354,1.136209,4.249177
2026-01-18T19:52:17.146777,13.562518,-11.787044,1.201196,0.934623,1.376889,4.261395
2026-01-18T19:52:17.156777,12.758530,-11.097911,1.378265,1.620014,1.525941,4.279720
2026-01-18T19:52:17.165777,11.734402,-9.332008,1.928615,2.134362,1.577253,4.293160
2026-01-18T19:52:17.175777,10.925627,-7.211967,2.660818,2.265087,1.494176,4.342029
2026-01-18T19:52:17.185777,10.571490,-5.383850,3.120240,1.999972,1.323133,4.401893
2026-01-18T19:52:17.194777,10.767701,-4.522434,3.723231,1.467297,1.143539,4.436102
2026-01-18T19:52:17.204777,11.035697,-4.536791,3.986442,0.829554,1.080009,4.444654
2026-01-18T19:52:17.213777,11.136196,-5.694917,4.197010,0.238237,1.167974,4.421441
2026-01-18T19:52:17.223777,10.729416,-7.604390,5.211567,-0.090408,1.343903,4.339585
2026-01-18T19:52:17.233777,9.882357,-9.064012,5.623133,0.057421,1.555262,4.202751
2026-01-18T19:52:17.242777,8.633303,-9.470791,5.489135,0.469144,1.771508,4.068361
2026-01-18T19:52:17.252777,7.125825,-9.384650,4.723431,0.871093,1.904677,3.943745
2026-01-18T19:52:17.262777,5.522634,-8.824729,3.866801,1.167974,1.897347,3.825237
2026-01-18T19:52:17.271777,4.273581,-8.255237,3.354737,1.253495,1.733635,3.709172
2026-01-18T19:52:17.281777,3.574876,-8.044669,3.220739,1.244943,1.459967,3.546682
2026-01-18T19:52:17.290777,3.335594,-8.193024,3.598805,1.204625,1.139874,3.319441
2026-01-18T19:52:17.300777,3.584448,-8.633303,4.331008,1.204625,0.844215,3.026225
2026-01-18T19:52:17.310777,4.034298,-8.685946,5.666203,1.270599,0.620638,2.654819
2026-01-18T19:52:17.319777,4.441078,-8.250452,6.920042,1.197295,0.470366,2.278526
2026-01-18T19:52:17.329777,4.699503,-7.695317,7.546962,0.883310,0.420275,1.959655
2026-01-18T19:52:17.338777,4.627718,-6.776473,8.322237,0.431270,0.431270,1.656666
2026-01-18T19:52:17.348777,4.264009,-5.814558,8.379664,-0.113620,0.458148,1.378111
2026-01-18T19:52:17.358777,3.847658,-5.340780,7.470392,-0.691499,0.497244,1.094670
2026-01-18T19:52:17.367777,3.259024,-5.651846,6.331408,-1.229060,0.596204,0.736703
2026-01-18T19:52:17.377777,2.498106,-7.164110,5.513063,-1.653000,0.685390,0.313984
2026-01-18T19:52:17.387777,1.703689,-9.600004,5.044070,-1.740965,0.693942,-0.178372
2026-01-18T19:52:17.396777,1.009771,-12.136396,5.479563,-1.418428,0.544891,-0.781907
2026-01-18T19:52:17.406777,1.100698,-14.605789,6.460621,-0.847880,0.162490,-1.402546
2026-01-18T19:52:17.415777,2.392822,-15.859628,7.010970,-0.090408,-0.351858,-1.959655
2026-01-18T19:52:17.425777,4.316651,-15.227923,7.374679,0.853989,-0.774576,-2.568076
2026-01-18T19:52:17.435777,6.307480,-13.131810,7.302894,1.522275,-1.031140,-3.075094
2026-01-18T19:52:17.444777,7.671389,-10.341779,6.417550,1.787391,-1.088561,-3.475822
2026-01-18T19:52:17.454777,8.202595,-7.489534,5.603990,1.639561,-0.987158,-3.786141
2026-01-18T19:52:17.463777,7.934599,-5.469992,4.981856,0.977384,-0.890641,-3.936414
2026-01-18T19:52:17.473777,7.211967,-4.388436,4.847858,0.127059,-0.878424,-4.096461
2026-01-18T19:52:17.483777,6.580262,-4.326223,5.106283,-0.937067,-1.080009,-4.167321
2026-01-18T19:52:17.492777,6.963113,-6.034698,5.015356,-2.171014,-1.551597,-4.133113
2026-01-18T19:52:17.502777,8.709874,-8.169096,4.680361,-2.978578,-2.103819,-4.192978
2026-01-18T19:52:17.512777,11.351550,-10.442277,4.072584,-3.232698,-2.476447,-4.337142
2026-01-18T19:52:17.521777,14.232508,-12.610175,3.369094,-3.187494,-2.520429,-4.425106
2026-01-18T19:52:17.531777,16.405191,-14.065011,3.172882,-2.698802,-2.151466,-4.536284
2026-01-18T19:52:17.540777,16.945969,-14.256437,2.861815,-1.855808,-1.400102,-4.649905
2026-01-18T19:52:17.550777,15.247065,-13.184452,2.766102,-0.981049,-0.531452,-4.754974
2026-01-18T19:52:17.560777,12.021540,-11.303693,2.837887,-0.226020,0.076969,-4.857599
2026-01-18T19:52:17.569777,8.580661,-8.915657,2.833101,0.271224,0.196698,-4.933346
2026-01-18T19:52:17.579777,5.982056,-6.991827,2.029113,0.365297,-0.210137,-4.950450
2026-01-18T19:52:17.588777,5.230710,-5.943771,1.244267,0.119729,-1.076344,-4.897916
2026-01-18T19:52:17.598777,7.173682,-6.111268,1.052841,-0.399505,-2.205223,-4.729317
2026-01-18T19:52:17.608777,11.313265,-7.063612,1.402194,-1.067792,-3.236363,-4.408002
2026-01-18T19:52:17.617777,16.453049,-7.700103,1.847259,-1.434311,-3.729942,-4.125782
2026-01-18T19:52:17.627777,20.884556,-7.255038,3.168097,-1.468519,-3.442835,-3.948632
2026-01-18T19:52:17.637777,23.004597,-6.695117,3.105883,-1.622457,-2.436130,-3.706729
2026-01-18T19:52:17.646777,21.597616,-7.006184,2.526820,-1.932777,-1.082452,-3.463605
2026-01-18T19:52:17.656777,17.515461,-7.853243,2.388036,-2.072054,0.067195,-3.312110
2026-01-18T19:52:17.665777,12.806386,-8.374879,2.005185,-1.933998,0.583987,-3.202154
2026-01-18T19:52:17.675777,9.073583,-8.360522,1.268195,-1.499062,0.478918,-3.198489
2026-01-18T19:52:17.685777,6.656832,-7.503891,0.602991,-0.831998,-0.025656,-3.285232
2026-01-18T19:52:17.694777,5.733202,-5.618347,-0.684347,-0.131946,-0.703716,-3.425731
2026-01-18T19:52:17.704777,6.068198,-3.560520,-1.383051,0.367740,-1.435533,-3.505144
2026-01-18T19:52:17.713777,8.015955,-2.062613,-0.799202,0.538783,-2.098932,-3.534465
2026-01-18T19:52:17.723777,10.719845,-1.325623,-0.507278,0.439822,-2.465451,-3.486818
2026-01-18T19:52:17.733777,13.150953,-1.009771,-0.038285,0.204028,-2.420247,-3.404962
2026-01-18T19:52:17.742777,14.495719,-1.004985,0.258424,-0.116064,-2.037846,-3.293784
2026-01-18T19:52:17.752777,14.395220,-0.837487,1.105484,-0.441044,-1.539380,-3.185050
