Timestamp,Acceleration_X,Acceleration_Y,Acceleration_Z,Gyro_X,Gyro_Y,Gyro_Z
2026-01-04T15:13:58.007711,7.039684,-4.498506,-4.273581,0.196698,-0.001221,-0.092851
2026-01-04T15:13:58.017711,7.211967,-3.967299,-4.412364,0.177150,-0.019547,-0.095294
2026-01-04T15:13:58.026711,7.288537,-3.732803,-4.345365,0.063529,0.013439,-0.084299
2026-01-04T15:13:58.036711,7.307680,-3.967299,-4.934000,-0.091629,0.074525,-0.050090
2026-01-04T15:13:58.045711,7.197610,-4.508077,-5.077569,-0.215024,0.102625,-0.023212
2026-01-04T15:13:58.055711,7.178467,-4.972285,-5.331208,-0.211359,0.090408,-0.023212
2026-01-04T15:13:58.065711,7.207181,-5.154139,-4.938785,-0.147829,0.064751,-0.031764
2026-01-04T15:13:58.074711,7.322037,-5.307280,-4.646861,-0.094073,0.048869,-0.031764
2026-01-04T15:13:58.084711,7.403393,-5.335994,-4.867001,0.002443,0.037873,-0.030543
2026-01-04T15:13:58.094711,7.724031,-5.020141,-4.809573,0.109955,0.032986,-0.035430
2026-01-04T15:13:58.103711,7.891528,-4.718646,-5.115854,0.090408,0.045204,-0.017104
2026-01-04T15:13:58.113711,7.987241,-4.718646,-4.613361,0.026878,0.065973,-0.025656
2026-01-04T15:13:58.122711,8.073383,-4.919643,-4.211367,0.028099,0.112399,-0.043982
2026-01-04T15:13:58.132711,7.905885,-5.192425,-4.689932,0.031764,0.116064,-0.059864
2026-01-04T15:13:58.142711,7.848458,-5.484349,-4.780859,0.074525,0.059864,-0.095294
2026-01-04T15:13:58.151711,7.762316,-5.455635,-4.479363,0.212581,0.019547,-0.142942
2026-01-04T15:13:58.161711,7.747959,-5.158925,-4.694717,0.321315,0.000000,-0.147829
2026-01-04T15:13:58.170711,7.877171,-4.608576,-4.144368,0.379958,-0.029321,-0.147829
2026-01-04T15:13:58.180711,8.030312,-4.053441,-3.503092,0.333532,-0.008552,-0.101403
2026-01-04T15:13:58.190711,7.786244,-3.723231,-4.479363,0.196698,0.075747,-0.014660
2026-01-04T15:13:58.199711,7.542176,-3.579662,-4.488935,0.117286,0.151494,0.014660
2026-01-04T15:13:58.209711,7.250252,-3.436093,-4.445864,-0.018325,0.211359,0.083077
2026-01-04T15:13:58.219711,6.881757,-3.976871,-4.316651,-0.248011,0.216246,0.133168
2026-01-04T15:13:58.228711,6.656832,-4.651647,-5.039284,-0.321315,0.195476,0.179594
2026-01-04T15:13:58.238711,6.766902,-5.268995,-4.934000,-0.366519,0.098960,0.189368
2026-01-04T15:13:58.247711,7.044469,-5.967699,-4.934000,-0.373849,0.001221,0.188146
2026-01-04T15:13:58.257711,7.355536,-6.403193,-4.881358,-0.221133,-0.010995,0.177150
2026-01-04T15:13:58.267711,7.427321,-6.111268,-4.431507,-0.014660,0.068416,0.149051
2026-01-04T15:13:58.276711,7.111468,-5.556134,-4.709074,0.182037,0.164933,0.139277
2026-01-04T15:13:58.286711,6.752545,-4.632504,-4.938785,0.290771,0.179594,0.133168
2026-01-04T15:13:58.295711,6.585047,-3.952942,-4.747360,0.210137,0.147829,0.141720
2026-01-04T15:13:58.305711,6.575476,-3.986442,-4.608576,0.054977,0.109955,0.156381
2026-01-04T15:13:58.315711,6.704688,-4.426721,-4.551148,-0.067195,0.041538,0.142942
2026-01-04T15:13:58.324711,6.967899,-5.077569,-4.532006,-0.144164,-0.017104,0.131946
2026-01-04T15:13:58.334711,7.130611,-5.551348,-4.479363,-0.053756,-0.021991,0.083077
2026-01-04T15:13:58.344711,7.154539,-5.407779,-4.177868,0.153938,0.034208,0.014660
2026-01-04T15:13:58.353711,6.881757,-4.747360,-4.283152,0.322536,0.109955,-0.031764
2026-01-04T15:13:58.363711,6.738188,-3.866801,-4.173082,0.393397,0.133168,-0.057421
2026-01-04T15:13:58.372711,6.752545,-3.321237,-4.776073,0.293215,0.095294,-0.026878
2026-01-04T15:13:58.382711,7.202396,-3.364308,-4.929214,0.002443,0.028099,0.032986
2026-01-04T15:13:58.392711,7.671389,-4.063012,-4.335794,-0.248011,0.028099,0.094073
2026-01-04T15:13:58.401711,7.896314,-4.900500,-4.709074,-0.340862,0.111177,0.149051
2026-01-04T15:13:58.411711,7.743173,-5.388636,-4.996213,-0.291993,0.197920,0.174707
2026-01-04T15:13:58.420711,7.384250,-5.474778,-4.651647,-0.168598,0.234572,0.162490
2026-01-04T15:13:58.430711,7.101897,-5.355136,-4.034298,-0.058643,0.201585,0.135612
2026-01-04T15:13:58.440711,6.867400,-5.144568,-4.426721,0.054977,0.109955,0.119729
2026-01-04T15:13:58.449711,6.958328,-4.752145,-4.024727,0.131946,-0.009773,0.074525
2026-01-04T15:13:58.459711,7.403393,-4.551148,-4.048655,0.116064,-0.105068,0.045204
2026-01-04T15:13:58.469711,7.877171,-4.565505,-4.340580,0.075747,-0.142942,0.036651
2026-01-04T15:13:58.478711,8.154739,-4.450650,-4.063012,0.062308,-0.070860,0.013439
2026-01-04T15:13:58.488711,7.862815,-4.350151,-4.445864,0.085521,0.111177,-0.017104
2026-01-04T15:13:58.497711,7.298108,-4.067798,-4.862215,0.086742,0.251676,-0.013439
2026-01-04T15:13:58.507711,6.766902,-3.857230,-4.819144,-0.003665,0.255341,0.019547
2026-01-04T15:13:58.517711,6.608976,-3.981656,-4.814359,-0.105068,0.153938,0.063529
2026-01-04T15:13:58.526711,6.752545,-4.287938,-4.512863,-0.227241,0.036651,0.105068
2026-01-04T15:13:58.536711,7.116254,-5.005784,-4.187439,-0.280997,-0.039095,0.112399
2026-01-04T15:13:58.545711,7.288537,-5.508277,-4.091726,-0.211359,-0.069638,0.100181
2026-01-04T15:13:58.555711,7.355536,-5.556134,-4.374079,-0.061086,-0.087964,0.072082
2026-01-04T15:13:58.565711,7.322037,-5.249852,-4.584648,0.068416,-0.092851,0.042760
2026-01-04T15:13:58.574711,7.379464,-4.819144,-4.642075,0.083077,-0.091629,0.029321
2026-01-04T15:13:58.584711,7.484749,-4.498506,-4.694717,0.062308,-0.072082,0.026878
2026-01-04T15:13:58.594711,7.465606,-4.235296,-4.785645,0.035430,-0.020769,0.025656
2026-01-04T15:13:58.603711,7.202396,-4.091726,-4.666004,-0.030543,0.068416,0.034208
2026-01-04T15:13:58.613711,6.991827,-4.240081,-4.838287,-0.149051,0.089186,0.061086
2026-01-04T15:13:58.622711,7.068397,-4.445864,-4.670789,-0.195476,0.032986,0.084299
2026-01-04T15:13:58.632711,7.178467,-4.637290,-4.211367,-0.178372,0.014660,0.097738
2026-01-04T15:13:58.642711,7.307680,-4.934000,-4.388436,-0.193033,-0.008552,0.087964
2026-01-04T15:13:58.651711,7.350751,-5.187639,-4.225724,-0.179594,-0.051312,0.084299
2026-01-04T15:13:58.661711,7.436892,-5.163711,-4.340580,-0.122173,-0.064751,0.067195
2026-01-04T15:13:58.670711,7.307680,-5.087140,-4.168296,-0.050090,-0.048869,0.028099
2026-01-04T15:13:58.680711,7.164110,-4.957928,-4.828716,-0.002443,-0.052534,0.029321
2026-01-04T15:13:58.690711,7.255038,-4.670789,-5.048855,-0.003665,-0.103847,0.032986
2026-01-04T15:13:58.699711,7.436892,-4.359722,-4.474578,0.001221,-0.118507,0.026878
2026-01-04T15:13:58.709711,7.575676,-4.216153,-4.666004,-0.054977,-0.076969,0.048869
2026-01-04T15:13:58.719711,7.537391,-4.460221,-4.828716,-0.155159,-0.053756,0.063529
2026-01-04T15:13:58.728711,7.556533,-4.790430,-4.599005,-0.226020,-0.034208,0.085521
2026-01-04T15:13:58.738711,7.436892,-5.020141,-4.096512,-0.243124,-0.008552,0.073303
2026-01-04T15:13:58.747711,7.077969,-5.292923,-4.039084,-0.175929,0.008552,0.056199
2026-01-04T15:13:58.757711,6.886543,-5.340780,-4.335794,-0.098960,-0.042760,0.047647
2026-01-04T15:13:58.767711,6.987041,-5.221138,-4.335794,-0.043982,-0.135612,0.047647
2026-01-04T15:13:58.776711,7.231109,-5.087140,-4.689932,0.013439,-0.188146,0.045204
2026-01-04T15:13:58.786711,7.508677,-4.814359,-4.469792,0.037873,-0.164933,0.031764
2026-01-04T15:13:58.795711,7.537391,-4.637290,-4.642075,0.023212,-0.087964,0.030543
2026-01-04T15:13:58.805711,7.412964,-4.570291,-4.718646,-0.017104,-0.002443,0.026878
2026-01-04T15:13:58.815711,7.144968,-4.570291,-4.508077,-0.076969,0.046425,0.030543
2026-01-04T15:13:58.824711,6.948756,-4.737788,-4.201796,-0.158824,0.047647,0.046425
2026-01-04T15:13:58.834711,6.939185,-5.091926,-4.110869,-0.207694,0.018325,0.059864
2026-01-04T15:13:58.844711,6.891329,-5.417350,-4.421936,-0.178372,-0.009773,0.074525
2026-01-04T15:13:58.853711,7.001398,-5.436492,-4.316651,-0.085521,-0.051312,0.062308
2026-01-04T15:13:58.863711,7.245466,-5.216353,-4.197010,0.018325,-0.085521,0.062308
2026-01-04T15:13:58.872711,7.475177,-4.886143,-4.488935,0.054977,-0.083077,0.061086
2026-01-04T15:13:58.882711,7.503891,-4.689932,-4.402793,0.025656,-0.030543,0.048869
2026-01-04T15:13:58.892711,7.278966,-4.670789,-4.235296,-0.025656,0.039095,0.031764
2026-01-04T15:13:58.901711,7.054041,-4.857429,-4.675575,-0.081855,0.072082,0.030543
2026-01-04T15:13:58.911711,6.929614,-5.211567,-4.785645,-0.105068,0.053756,0.026878
2026-01-04T15:13:58.920711,7.082754,-5.331208,-4.613361,-0.078190,0.018325,0.018325
2026-01-04T15:13:58.930711,7.207181,-5.273781,-4.431507,-0.002443,-0.003665,0.006108
2026-01-04T15:13:58.940711,7.326822,-5.044070,-4.560719,0.043982,-0.010995,0.007330
2026-01-04T15:13:58.949711,7.389036,-4.938785,-4.541577,0.046425,-0.020769,0.008552
2026-01-04T15:13:58.959711,7.470392,-4.737788,-4.469792,0.064751,-0.020769,0.014660
2026-01-04T15:13:58.969711,7.384250,-4.579862,-4.508077,0.051312,0.003665,0.024434
2026-01-04T15:13:58.978711,7.345965,-4.503292,-4.551148,-0.002443,0.025656,0.036651
2026-01-04T15:13:58.988711,7.255038,-4.551148,-4.144368,-0.048869,0.037873,0.040317
2026-01-04T15:13:58.997711,7.049255,-4.670789,-4.465006,-0.052534,0.057421,0.047647
2026-01-04T15:13:59.007711,6.958328,-4.656432,-4.689932,-0.046425,0.056199,0.050090
2026-01-04T15:13:59.017711,6.896114,-4.771288,-4.599005,-0.052534,0.034208,0.043982
2026-01-04T15:13:59.026711,7.010970,-4.890929,-4.493720,-0.058643,0.010995,0.042760
2026-01-04T15:13:59.036711,7.130611,-5.005784,-4.795216,-0.067195,-0.007330,0.041538
2026-01-04T15:13:59.045711,7.221538,-5.158925,-4.890929,-0.032986,-0.014660,0.034208
2026-01-04T15:13:59.055711,7.298108,-5.039284,-4.785645,0.013439,-0.002443,0.034208
2026-01-04T15:13:59.065711,7.240681,-4.761716,-4.594219,0.040317,0.019547,0.025656
2026-01-04T15:13:59.074711,7.125825,-4.646861,-4.661218,0.032986,0.020769,0.037873
2026-01-04T15:13:59.084711,6.996613,-4.522434,-4.685146,-0.006108,-0.001221,0.058643
2026-01-04T15:13:59.094711,7.106683,-4.431507,-4.685146,-0.015882,-0.017104,0.072082
2026-01-04T15:13:59.103711,7.125825,-4.431507,-4.364508,-0.063529,-0.019547,0.076969
2026-01-04T15:13:59.113711,7.178467,-4.642075,-4.469792,-0.114842,-0.034208,0.074525
2026-01-04T15:13:59.122711,7.202396,-4.924428,-4.283152,-0.114842,-0.046425,0.058643
2026-01-04T15:13:59.132711,7.302894,-5.029713,-4.455435,-0.065973,-0.039095,0.037873
2026-01-04T15:13:59.142711,7.259823,-5.010570,-4.723431,-0.001221,-0.014660,0.010995
2026-01-04T15:13:59.151711,7.154539,-4.919643,-4.431507,0.035430,-0.003665,-0.015882
2026-01-04T15:13:59.161711,7.063612,-4.761716,-4.618147,0.078190,-0.014660,-0.028099
2026-01-04T15:13:59.170711,7.063612,-4.570291,-4.536791,0.079412,-0.042760,-0.021991
2026-01-04T15:13:59.180711,7.168896,-4.474578,-4.450650,0.035430,-0.069638,-0.013439
2026-01-04T15:13:59.190711,7.283751,-4.479363,-4.402793,-0.007330,-0.078190,0.000000
2026-01-04T15:13:59.199711,7.355536,-4.613361,-4.445864,-0.041538,-0.059864,0.015882
2026-01-04T15:13:59.209711,7.350751,-4.718646,-4.637290,-0.063529,-0.045204,0.028099
2026-01-04T15:13:59.219711,7.365107,-4.776073,-4.431507,-0.047647,-0.025656,0.030543
2026-01-04T15:13:59.228711,7.345965,-4.680361,-4.579862,-0.036651,0.001221,0.031764
2026-01-04T15:13:59.238711,7.240681,-4.618147,-4.465006,-0.067195,0.025656,0.025656
2026-01-04T15:13:59.247711,7.154539,-4.608576,-4.316651,-0.068416,0.041538,0.015882
2026-01-04T15:13:59.257711,7.116254,-4.661218,-4.527220,-0.085521,0.040317,0.012217
2026-01-04T15:13:59.267711,7.049255,-4.809573,-4.532006,-0.127059,0.017104,0.017104
2026-01-04T15:13:59.276711,7.087540,-4.986642,-4.737788,-0.112399,-0.015882,0.024434
2026-01-04T15:13:59.286711,7.188039,-4.914857,-4.455435,-0.053756,-0.039095,0.015882
2026-01-04T15:13:59.295711,7.317251,-4.761716,-4.551148,-0.029321,-0.028099,0.014660
2026-01-04T15:13:59.305711,7.250252,-4.627718,-4.565505,-0.041538,-0.010995,0.012217
2026-01-04T15:13:59.315711,7.226324,-4.503292,-4.273581,-0.041538,0.012217,0.006108
2026-01-04T15:13:59.324711,7.221538,-4.469792,-4.575076,-0.061086,0.029321,0.008552
2026-01-04T15:13:59.334711,7.116254,-4.551148,-4.594219,-0.114842,0.023212,0.001221
2026-01-04T15:13:59.344711,7.197610,-4.728217,-4.378865,-0.127059,0.014660,-0.009773
2026-01-04T15:13:59.353711,7.197610,-4.800002,-4.441078,-0.106290,0.008552,-0.028099
2026-01-04T15:13:59.363711,7.322037,-4.905286,-4.383651,-0.090408,0.000000,-0.052534
2026-01-04T15:13:59.372711,7.365107,-4.948357,-4.369294,-0.063529,0.000000,-0.068416
2026-01-04T15:13:59.382711,7.322037,-4.924428,-4.575076,-0.030543,0.002443,-0.083077
2026-01-04T15:13:59.392711,7.298108,-4.943571,-4.666004,0.008552,-0.006108,-0.095294
2026-01-04T15:13:59.401711,7.307680,-4.847858,-4.594219,0.024434,-0.019547,-0.091629
2026-01-04T15:13:59.411711,7.298108,-4.723431,-4.455435,0.039095,-0.018325,-0.083077
2026-01-04T15:13:59.420711,7.240681,-4.613361,-4.881358,0.056199,-0.020769,-0.064751
2026-01-04T15:13:59.430711,7.288537,-4.546362,-4.709074,0.037873,-0.029321,-0.053756
2026-01-04T15:13:59.440711,7.317251,-4.551148,-4.670789,-0.008552,-0.029321,-0.039095
2026-01-04T15:13:59.449711,7.456035,-4.733003,-4.589433,-0.046425,-0.026878,-0.024434
2026-01-04T15:13:59.459711,7.518248,-4.886143,-4.383651,-0.063529,-0.012217,-0.013439
2026-01-04T15:13:59.469711,7.537391,-4.929214,-4.268795,-0.046425,0.015882,-0.021991
2026-01-04T15:13:59.478711,7.470392,-5.125426,-4.249652,-0.019547,0.030543,-0.036651
2026-01-04T15:13:59.488711,7.293323,-5.120640,-4.249652,0.046425,0.031764,-0.063529
2026-01-04T15:13:59.497711,7.274180,-4.867001,-4.024727,0.125838,0.007330,-0.084299
2026-01-04T15:13:59.507711,7.264609,-4.488935,-4.402793,0.162490,-0.028099,-0.079412
2026-01-04T15:13:59.517711,7.393821,-4.249652,-4.498506,0.166155,-0.047647,-0.080634
2026-01-04T15:13:59.526711,7.523034,-4.192225,-4.555934,0.101403,-0.053756,-0.070860
2026-01-04T15:13:59.536711,7.623532,-4.335794,-4.560719,0.034208,-0.046425,-0.058643
2026-01-04T15:13:59.545711,7.647461,-4.522434,-4.680361,-0.012217,-0.017104,-0.032986
2026-01-04T15:13:59.555711,7.609175,-4.819144,-4.637290,-0.097738,0.017104,-0.009773
2026-01-04T15:13:59.565711,7.479963,-5.058426,-4.522434,-0.135612,0.029321,0.003665
2026-01-04T15:13:59.574711,7.479963,-5.063212,-3.895515,-0.059864,0.034208,-0.007330
2026-01-04T15:13:59.584711,7.403393,-4.977071,-4.278366,0.002443,0.058643,0.001221
2026-01-04T15:13:59.594711,7.269395,-4.761716,-4.546362,0.048869,0.064751,-0.009773
2026-01-04T15:13:59.603711,7.173682,-4.436293,-4.398007,0.075747,0.059864,-0.007330
2026-01-04T15:13:59.613711,7.173682,-4.158725,-4.311866,0.045204,0.035430,-0.001221
2026-01-04T15:13:59.622711,7.274180,-4.130011,-4.311866,-0.009773,0.024434,0.007330
2026-01-04T15:13:59.632711,7.379464,-4.292723,-4.532006,-0.102625,0.013439,0.026878
2026-01-04T15:13:59.642711,7.542176,-4.646861,-4.359722,-0.139277,0.010995,0.032986
2026-01-04T15:13:59.651711,7.518248,-4.847858,-4.661218,-0.116064,0.037873,0.048869
2026-01-04T15:13:59.661711,7.398607,-5.015356,-4.680361,-0.095294,0.061086,0.048869
2026-01-04T15:13:59.670711,7.264609,-5.029713,-4.656432,-0.039095,0.052534,0.046425
2026-01-04T15:13:59.680711,7.221538,-4.771288,-4.512863,0.028099,0.020769,0.030543
2026-01-04T15:13:59.690711,7.283751,-4.479363,-4.498506,0.050090,0.007330,0.030543
2026-01-04T15:13:59.699711,7.369893,-4.331008,-4.187439,0.019547,-0.008552,0.020769
2026-01-04T15:13:59.709711,7.542176,-4.345365,-4.192225,-0.019547,-0.023212,0.014660
2026-01-04T15:13:59.719711,7.503891,-4.532006,-4.268795,-0.050090,-0.020769,0.019547
2026-01-04T15:13:59.728711,7.523034,-4.527220,-4.249652,-0.036651,0.002443,0.004886
2026-01-04T15:13:59.738711,7.475177,-4.536791,-4.235296,-0.020769,0.034208,0.012217
2026-01-04T15:13:59.747711,7.341179,-4.498506,-4.689932,0.001221,0.054977,0.013439
2026-01-04T15:13:59.757711,7.283751,-4.378865,-4.876572,-0.015882,0.059864,0.023212
2026-01-04T15:13:59.767711,7.211967,-4.474578,-4.895715,-0.069638,0.057421,0.036651
2026-01-04T15:13:59.776711,7.312465,-4.666004,-4.737788,-0.114842,0.032986,0.047647
2026-01-04T15:13:59.786711,7.412964,-4.819144,-4.627718,-0.123394,0.009773,0.058643
2026-01-04T15:13:59.795711,7.527819,-4.905286,-4.508077,-0.079412,0.010995,0.048869
2026-01-04T15:13:59.805711,7.489534,-4.857429,-4.479363,-0.036651,0.029321,0.040317
2026-01-04T15:13:59.815711,7.403393,-4.766502,-4.340580,-0.007330,0.040317,0.021991
2026-01-04T15:13:59.824711,7.293323,-4.603790,-4.216153,0.018325,0.031764,0.010995
2026-01-04T15:13:59.834711,7.255038,-4.508077,-4.230510,0.037873,0.004886,0.001221
2026-01-04T15:13:59.844711,7.302894,-4.359722,-4.445864,0.042760,-0.032986,0.001221
2026-01-04T15:13:59.853711,7.436892,-4.374079,-4.474578,0.021991,-0.063529,0.010995
2026-01-04T15:13:59.863711,7.551748,-4.441078,-4.589433,0.008552,-0.070860,0.018325
2026-01-04T15:13:59.872711,7.590033,-4.426721,-4.551148,0.002443,-0.047647,0.015882
2026-01-04T15:13:59.882711,7.580461,-4.613361,-4.512863,-0.029321,-0.012217,0.014660
2026-01-04T15:13:59.892711,7.489534,-4.780859,-4.594219,-0.062308,0.010995,0.010995
2026-01-04T15:13:59.901711,7.408178,-4.886143,-4.393222,-0.070860,0.012217,0.006108
2026-01-04T15:13:59.911711,7.384250,-4.948357,-4.264009,-0.052534,0.012217,-0.001221
2026-01-04T15:13:59.920711,7.379464,-4.847858,-4.283152,0.020769,0.008552,-0.014660
2026-01-04T15:13:59.930711,7.412964,-4.493720,-4.354937,0.072082,-0.002443,-0.019547
2026-01-04T15:13:59.940711,7.417750,-4.292723,-4.393222,0.069638,0.000000,-0.025656
2026-01-04T15:13:59.949711,7.408178,-4.264009,-4.335794,0.013439,0.004886,-0.025656
2026-01-04T15:13:59.959711,7.408178,-4.441078,-4.340580,-0.067195,0.000000,-0.018325
2026-01-04T15:13:59.969711,7.345965,-4.713860,-4.388436,-0.084299,0.000000,-0.013439
2026-01-04T15:13:59.978711,7.231109,-4.800002,-4.412364,-0.046425,0.008552,-0.012217
2026-01-04T15:13:59.988711,7.240681,-4.833501,-4.565505,-0.018325,0.007330,-0.013439
2026-01-04T15:13:59.997711,7.288537,-4.742574,-4.465006,0.014660,-0.009773,-0.012217
2026-01-04T15:14:00.007711,7.264609,-4.618147,-4.450650,0.034208,-0.014660,-0.008552
2026-01-04T15:14:00.017711,7.312465,-4.469792,-4.374079,0.019547,-0.007330,-0.006108
2026-01-04T15:14:00.026711,7.365107,-4.441078,-4.192225,-0.003665,-0.004886,-0.008552
2026-01-04T15:14:00.036711,7.369893,-4.383651,-4.316651,-0.018325,-0.003665,0.001221
2026-01-04T15:14:00.045711,7.326822,-4.426721,-4.292723,-0.031764,0.009773,0.002443
2026-01-04T15:14:00.055711,7.331608,-4.455435,-4.455435,-0.045204,0.019547,-0.001221
2026-01-04T15:14:00.065711,7.374679,-4.503292,-4.350151,-0.056199,0.012217,-0.004886
2026-01-04T15:14:00.074711,7.441678,-4.627718,-4.311866,-0.062308,-0.003665,-0.007330
2026-01-04T15:14:00.084711,7.518248,-4.742574,-4.378865,-0.063529,-0.010995,-0.007330
2026-01-04T15:14:00.094711,7.580461,-4.756931,-4.307080,-0.039095,0.000000,-0.017104
2026-01-04T15:14:00.103711,7.585247,-4.776073,-4.402793,-0.008552,0.014660,-0.021991
2026-01-04T15:14:00.113711,7.613961,-4.527220,-4.182653,0.014660,0.026878,-0.028099
2026-01-04T15:14:00.122711,7.566105,-4.374079,-4.163511,0.030543,0.034208,-0.029321
2026-01-04T15:14:00.132711,7.494320,-4.244867,-4.297509,0.013439,0.031764,-0.024434
2026-01-04T15:14:00.142711,7.570890,-4.331008,-4.307080,-0.030543,0.017104,-0.025656
2026-01-04T15:14:00.151711,7.542176,-4.441078,-4.206582,-0.057421,0.004886,-0.023212
2026-01-04T15:14:00.161711,7.628318,-4.575076,-4.292723,-0.070860,0.000000,-0.025656
2026-01-04T15:14:00.170711,7.738388,-4.728217,-4.283152,-0.064751,-0.001221,-0.026878
2026-01-04T15:14:00.180711,7.719245,-4.718646,-4.311866,-0.021991,0.012217,-0.039095
2026-01-04T15:14:00.190711,7.527819,-4.622933,-4.450650,0.020769,0.036651,-0.050090
2026-01-04T15:14:00.199711,7.570890,-4.445864,-4.278366,0.023212,0.034208,-0.064751
2026-01-04T15:14:00.209711,7.542176,-4.383651,-3.919443,0.021991,0.020769,-0.065973
2026-01-04T15:14:00.219711,7.537391,-4.359722,-3.938585,0.026878,0.021991,-0.063529
2026-01-04T15:14:00.228711,7.484749,-4.206582,-4.110869,0.062308,0.024434,-0.074525
2026-01-04T15:14:00.238711,7.489534,-4.067798,-4.211367,0.069638,0.034208,-0.083077
2026-01-04T15:14:00.247711,7.499106,-4.187439,-4.560719,0.024434,0.047647,-0.081855
2026-01-04T15:14:00.257711,7.642675,-4.331008,-4.187439,-0.013439,0.041538,-0.084299
2026-01-04T15:14:00.267711,7.690531,-4.469792,-4.402793,-0.008552,0.047647,-0.067195
2026-01-04T15:14:00.276711,7.590033,-4.541577,-4.613361,0.018325,0.078190,-0.068416
2026-01-04T15:14:00.286711,7.494320,-4.469792,-4.551148,0.034208,0.098960,-0.074525
2026-01-04T15:14:00.295711,7.465606,-4.388436,-3.962514,0.058643,0.102625,-0.095294
2026-01-04T15:14:00.305711,7.389036,-4.350151,-4.254438,0.083077,0.108733,-0.107512
2026-01-04T15:14:00.315711,7.412964,-4.297509,-4.259224,0.133168,0.107512,-0.144164
2026-01-04T15:14:00.324711,7.365107,-4.206582,-4.010370,0.208915,0.116064,-0.184481
2026-01-04T15:14:00.334711,7.317251,-4.484149,-4.594219,0.246789,0.095294,-0.217467
2026-01-04T15:14:00.344711,7.379464,-4.441078,-4.350151,0.215024,0.073303,-0.200363
2026-01-04T15:14:00.353711,7.350751,-4.747360,-4.455435,0.233350,0.111177,-0.237015
2026-01-04T15:14:00.363711,7.441678,-4.656432,-4.575076,0.290771,0.103847,-0.262671
2026-01-04T15:14:00.372711,7.724031,-4.374079,-3.981656,0.334754,0.080634,-0.282219
2026-01-04T15:14:00.382711,7.814958,-3.881158,-3.929014,0.355523,0.114842,-0.317649
2026-01-04T15:14:00.392711,7.872386,-3.483949,-3.584448,0.260228,0.230907,-0.332310
2026-01-04T15:14:00.401711,7.537391,-3.402593,-3.254238,0.153938,0.378736,-0.339641
2026-01-04T15:14:00.411711,6.967899,-3.431307,-3.249453,0.064751,0.500909,-0.345749
2026-01-04T15:14:00.420711,6.494120,-3.656232,-3.972085,-0.034208,0.527787,-0.327423
2026-01-04T15:14:00.430711,6.537191,-3.747160,-4.235296,-0.079412,0.377514,-0.309097
2026-01-04T15:14:00.440711,7.312465,-3.818944,-3.771088,-0.086742,0.142942,-0.272445
2026-01-04T15:14:00.449711,8.245666,-3.847658,-3.536591,-0.134390,0.029321,-0.215024
2026-01-04T15:14:00.459711,9.016155,-4.115654,-3.512663,-0.178372,0.091629,-0.199142
2026-01-04T15:14:00.469711,9.241080,-4.225724,-3.297309,-0.194255,0.228463,-0.188146
2026-01-04T15:14:00.478711,9.025726,-4.331008,-3.584448,-0.096516,0.372627,-0.210137
2026-01-04T15:14:00.488711,8.604590,-4.029513,-4.072584,-0.001221,0.460592,-0.217467
2026-01-04T15:14:00.497711,8.078169,-3.804587,-4.053441,-0.047647,0.434935,-0.218689
2026-01-04T15:14:00.507711,8.078169,-3.952942,-4.082155,-0.149051,0.322536,-0.200363
2026-01-04T15:14:00.517711,8.212167,-4.101297,-3.723231,-0.194255,0.199142,-0.184481
2026-01-04T15:14:00.526711,8.475377,-4.378865,-3.584448,-0.217467,0.122173,-0.172263
2026-01-04T15:14:00.536711,8.690731,-4.704289,-3.699303,-0.193033,0.092851,-0.146607
2026-01-04T15:14:00.545711,8.834301,-4.704289,-3.933800,-0.105068,0.084299,-0.120951
2026-01-04T15:14:00.555711,8.944370,-4.441078,-4.278366,-0.061086,0.078190,-0.090408
2026-01-04T15:14:00.565711,8.882157,-4.168296,-4.321437,-0.070860,0.087964,-0.063529
2026-01-04T15:14:00.574711,8.719445,-3.900300,-3.665804,-0.142942,0.097738,-0.031764
2026-01-04T15:14:00.584711,8.499305,-3.914657,-3.292523,-0.235793,0.076969,-0.004886
2026-01-04T15:14:00.594711,8.303094,-4.311866,-3.723231,-0.313984,0.045204,0.042760
2026-01-04T15:14:00.603711,7.953742,-4.642075,-4.565505,-0.329867,0.021991,0.094073
2026-01-04T15:14:00.613711,7.623532,-4.780859,-5.374279,-0.288328,-0.001221,0.142942
2026-01-04T15:14:00.622711,7.341179,-4.599005,-5.350351,-0.271224,-0.067195,0.186924
2026-01-04T15:14:00.632711,7.432106,-4.321437,-4.914857,-0.323758,-0.184481,0.223576
2026-01-04T15:14:00.642711,7.551748,-4.378865,-4.771288,-0.411723,-0.294436,0.263893
2026-01-04T15:14:00.651711,7.905885,-4.670789,-4.718646,-0.529009,-0.377514,0.289550
2026-01-04T15:14:00.661711,8.173882,-5.331208,-4.881358,-0.651182,-0.425162,0.322536
2026-01-04T15:14:00.670711,8.303094,-5.910271,-5.063212,-0.634077,-0.430049,0.355523
2026-01-04T15:14:00.680711,8.269594,-6.044269,-5.077569,-0.498465,-0.375071,0.383623
2026-01-04T15:14:00.690711,7.843672,-5.613561,-5.551348,-0.377514,-0.311541,0.422718
2026-01-04T15:14:00.699711,7.446463,-5.101497,-5.723631,-0.326201,-0.312762,0.488692
2026-01-04T15:14:00.709711,7.125825,-4.733003,-5.584847,-0.351858,-0.397062,0.586430
2026-01-04T15:14:00.719711,6.972685,-4.436293,-6.053841,-0.406836,-0.494800,0.657290
2026-01-04T15:14:00.728711,7.010970,-4.666004,-5.972485,-0.519235,-0.619417,0.715933
2026-01-04T15:14:00.738711,7.211967,-5.249852,-5.833701,-0.627969,-0.774576,0.790459
2026-01-04T15:14:00.747711,7.561319,-5.862415,-5.728417,-0.620638,-0.910189,0.830776
2026-01-04T15:14:00.757711,7.829315,-6.264409,-5.690132,-0.488692,-0.985936,0.821002
2026-01-04T15:14:00.767711,7.948956,-6.494120,-5.661418,-0.360410,-1.026253,0.839328
2026-01-04T15:14:00.776711,7.786244,-6.417550,-6.254838,-0.244346,-1.056796,0.857654
2026-01-04T15:14:00.786711,7.422535,-6.187839,-6.661618,-0.116064,-1.102000,0.885754
2026-01-04T15:14:00.795711,7.135396,-5.709274,-6.632904,-0.069638,-1.170417,0.940732
2026-01-04T15:14:00.805711,6.699903,-5.268995,-7.326822,-0.171042,-1.271821,1.018923
2026-01-04T15:14:00.815711,6.666403,-5.422136,-7.508677,-0.376292,-1.445306,1.094670
2026-01-04T15:14:00.824711,6.853043,-6.135197,-6.805187,-0.570548,-1.665218,1.176526
2026-01-04T15:14:00.834711,7.111468,-6.982256,-7.432106,-0.559552,-1.817934,1.221730
2026-01-04T15:14:00.844711,7.211967,-7.412964,-7.968099,-0.327423,-1.843590,1.203404
2026-01-04T15:14:00.853711,7.111468,-7.025327,-7.685746,-0.067195,-1.825264,1.189965
2026-01-04T15:14:00.863711,6.881757,-6.474977,-7.207181,0.073303,-1.864360,1.213178
2026-01-04T15:14:00.872711,6.594619,-6.154339,-7.652246,0.092851,-1.907120,1.264490
2026-01-04T15:14:00.882711,6.264409,-6.077769,-8.173882,0.083077,-1.926668,1.292590
2026-01-04T15:14:00.892711,5.915057,-6.264409,-8.097311,-0.024434,-1.963320,1.357342
2026-01-04T15:14:00.901711,5.608776,-6.532405,-8.681160,-0.134390,-2.045176,1.433089
2026-01-04T15:14:00.911711,5.608776,-6.776473,-8.470592,-0.151494,-2.161240,1.501506
2026-01-04T15:14:00.920711,5.498706,-6.881757,-8.920442,-0.190589,-2.251648,1.588249
2026-01-04T15:14:00.930711,5.422136,-7.106683,-8.920442,-0.233350,-2.329839,1.631009
2026-01-04T15:14:00.940711,5.364708,-7.470392,-8.015955,-0.218689,-2.388482,1.670105
2026-01-04T15:14:00.949711,5.178068,-7.905885,-8.394021,-0.205250,-2.441016,1.712865
2026-01-04T15:14:00.959711,4.948357,-8.178667,-9.097511,-0.108733,-2.500881,1.738522
2026-01-04T15:14:00.969711,4.646861,-8.025527,-9.255437,0.072082,-2.531425,1.751961
2026-01-04T15:14:00.978711,4.441078,-7.508677,-8.666803,0.188146,-2.572963,1.766621
2026-01-04T15:14:00.988711,4.177868,-7.365107,-9.116654,0.167377,-2.634050,1.819156
2026-01-04T15:14:00.997711,3.818944,-7.384250,-9.643075,0.164933,-2.662150,1.857029
2026-01-04T15:14:01.007711,3.498306,-7.197610,-9.370293,0.188146,-2.680476,1.899790
2026-01-04T15:14:01.017711,3.144168,-6.991827,-10.470991,0.102625,-2.736675,1.988976
2026-01-04T15:14:01.026711,3.014956,-7.001398,-10.619346,-0.034208,-2.855183,2.031737
2026-01-04T15:14:01.036711,3.139383,-7.144968,-8.949156,-0.156381,-2.939482,2.087936
2026-01-04T15:14:01.045711,3.192025,-7.786244,-9.006584,-0.217467,-2.967582,2.128254
2026-01-04T15:14:01.055711,3.125026,-8.489734,-8.867800,-0.105068,-2.956587,2.151466
2026-01-04T15:14:01.065711,2.723032,-8.504091,-9.188438,0.128281,-2.884505,2.180788
2026-01-04T15:14:01.074711,2.163111,-7.958527,-9.284151,0.359188,-2.834414,2.183231
2026-01-04T15:14:01.084711,1.593619,-7.302894,-8.666803,0.393397,-2.851518,2.214996
2026-01-04T15:14:01.094711,1.177268,-7.322037,-7.475177,0.346971,-2.897944,2.258979
2026-01-04T15:14:01.103711,0.612562,-7.188039,-9.791430,0.387288,-2.940704,2.326174
2026-01-04T15:14:01.113711,0.397208,-6.671189,-9.365507,0.430049,-3.003012,2.323730
2026-01-04T15:14:01.122711,0.435493,-6.407978,-7.920242,0.318871,-3.060434,2.356717
2026-01-04T15:14:01.132711,0.282353,-6.441478,-8.800801,0.173485,-3.094642,2.416582
2026-01-04T15:14:01.142711,0.167497,-6.532405,-8.882157,0.076969,-3.053103,2.432464
2026-01-04T15:14:01.151711,-0.397208,-6.719045,-9.102297,-0.074525,-2.960252,2.445903
2026-01-04T15:14:01.161711,-0.789631,-7.211967,-7.838886,-0.075747,-2.928487,2.428799
2026-01-04T15:14:01.170711,-1.272981,-7.135396,-8.571090,0.059864,-2.968804,2.458121
2026-01-04T15:14:01.180711,-1.363908,-6.766902,-7.101897,0.223576,-3.050660,2.425134
2026-01-04T15:14:01.190711,-1.339980,-6.431907,-6.537191,0.271224,-3.081203,2.437351
2026-01-04T15:14:01.199711,-1.454836,-6.441478,-7.666603,0.248011,-3.068986,2.465451
2026-01-04T15:14:01.209711,-1.550549,-6.211767,-7.259823,0.288328,-3.037221,2.461786
2026-01-04T15:14:01.219711,-1.818545,-5.838487,-8.346165,0.248011,-3.015230,2.474003
2026-01-04T15:14:01.228711,-1.804188,-5.536991,-6.470192,0.167377,-3.029890,2.428799
2026-01-04T15:14:01.238711,-1.861615,-5.206781,-6.317051,0.059864,-3.009121,2.452012
2026-01-04T15:14:01.247711,-2.086541,-5.335994,-7.403393,-0.097738,-2.967582,2.456899
2026-01-04T15:14:01.257711,-2.335394,-5.675775,-6.441478,-0.174707,-2.891835,2.444682
2026-01-04T15:14:01.267711,-2.732603,-6.135197,-5.790630,-0.172263,-2.846631,2.416582
2026-01-04T15:14:01.276711,-2.904886,-6.331408,-4.326223,-0.019547,-2.838079,2.375043
2026-01-04T15:14:01.286711,-3.244667,-6.187839,-6.096911,0.191811,-2.798983,2.432464
2026-01-04T15:14:01.295711,-3.393022,-5.383850,-4.201796,0.453261,-2.759888,2.366491
2026-01-04T15:14:01.305711,-3.412165,-4.527220,-2.785245,0.601091,-2.709797,2.342056
2026-01-04T15:14:01.315711,-3.646661,-4.153940,-5.240281,0.509461,-2.624276,2.409251
2026-01-04T15:14:01.324711,-3.838087,-4.072584,-4.795216,0.486248,-2.525316,2.353052
2026-01-04T15:14:01.334711,-4.311866,-3.641875,-4.981856,0.485026,-2.367713,2.339613
2026-01-04T15:14:01.344711,-5.053641,-3.139383,-6.321837,0.388510,-2.257757,2.324952
2026-01-04T15:14:01.353711,-5.522634,-2.646461,-5.781059,0.274889,-2.269974,2.276083
2026-01-04T15:14:01.363711,-5.551348,-2.502892,-4.134797,0.037873,-2.370156,2.261422
2026-01-04T15:14:01.372711,-5.173282,-3.182454,-3.981656,-0.205250,-2.464229,2.262644
2026-01-04T15:14:01.382711,-4.632504,-3.550948,-2.048256,-0.166155,-2.448347,2.197892
2026-01-04T15:14:01.392711,-4.273581,-3.182454,0.110069,0.113620,-2.316400,2.123367
2026-01-04T15:14:01.401711,-4.110869,-2.531606,0.684347,0.389731,-2.116036,2.073276
2026-01-04T15:14:01.411711,-4.359722,-2.263610,-1.464407,0.442266,-1.852143,2.080606
2026-01-04T15:14:01.420711,-5.350351,-2.115255,-2.995813,0.510683,-1.561371,2.004859
2026-01-04T15:14:01.430711,-6.302694,-1.258624,-2.526820,0.569326,-1.403768,1.898568
2026-01-04T15:14:01.440711,-5.245067,-0.478564,-2.622533,0.387288,-1.418428,1.896125
2026-01-04T15:14:01.449711,-5.522634,-2.287538,-1.785045,0.084299,-1.538158,2.172236
2026-01-04T15:14:01.459711,-1.536192,-0.191425,-2.679961,-0.222354,-1.606575,0.886976
2026-01-04T15:14:01.469711,-2.081755,-0.425922,-2.579462,-0.276111,-1.321912,1.721417
2026-01-04T15:14:01.478711,-1.110269,0.220139,-0.220139,0.006108,-0.867428,1.589471
2026-01-04T15:14:01.488711,-12.275179,3.077169,-1.986042,0.322536,-0.692721,2.048841
2026-01-04T15:14:01.497711,-1.249053,-2.148754,-0.363709,-0.514348,0.829554,1.685987
2026-01-04T15:14:01.507711,-6.431907,-0.411565,-4.273581,0.106290,-0.305432,0.691499
2026-01-04T15:14:01.517711,-7.728816,0.196211,-0.646062,0.353080,-0.850324,1.033583
2026-01-04T15:14:01.526711,-7.728816,0.468993,-0.239282,0.285884,-0.860098,1.150869
2026-01-04T15:14:01.536711,-7.331608,0.617348,-0.124426,0.249232,-0.806341,1.043357
2026-01-04T15:14:01.545711,-7.006184,0.617348,-0.153140,0.180816,-0.643851,0.951727
2026-01-04T15:14:01.555711,-7.164110,0.406779,-0.057427,0.140498,-0.403170,0.839328
2026-01-04T15:14:01.565711,-7.475177,0.009571,0.301495,0.180816,-0.171042,0.704938
2026-01-04T15:14:01.574711,-7.972884,-0.301495,-1.272981,0.267558,-0.003665,0.609643
2026-01-04T15:14:01.584711,-8.537591,-0.052642,-1.301695,0.432492,0.085521,0.487470
2026-01-04T15:14:01.594711,-8.992227,0.875773,-0.622133,0.612086,0.075747,0.364075
2026-01-04T15:14:01.603711,-8.709874,1.698904,-0.971485,0.577878,0.019547,0.265115
2026-01-04T15:14:01.613711,-8.307880,2.134397,-0.607776,0.416610,0.020769,0.167377
2026-01-04T15:14:01.622711,-7.872386,2.402393,-0.780060,0.230907,0.140498,0.053756
2026-01-04T15:14:01.632711,-7.834101,2.177468,-1.091127,-0.036651,0.353080,-0.083077
2026-01-04T15:14:01.642711,-8.078169,1.660618,-0.425922,-0.295658,0.551000,-0.228463
2026-01-04T15:14:01.651711,-8.394021,0.947557,-0.492921,-0.421496,0.659734,-0.357966
2026-01-04T15:14:01.661711,-8.446663,0.129212,-0.717846,-0.475253,0.715933,-0.477696
2026-01-04T15:14:01.670711,-8.523234,-0.535992,-0.866201,-0.420275,0.766024,-0.616973
2026-01-04T15:14:01.680711,-8.422735,-0.660419,-0.937986,-0.237015,0.824667,-0.755029
2026-01-04T15:14:01.690711,-8.379664,-0.354137,-0.808774,-0.064751,0.875980,-0.910189
2026-01-04T15:14:01.699711,-8.145168,-0.038285,-0.679561,-0.050090,0.929736,-1.069013
2026-01-04T15:14:01.709711,-7.829315,-0.090927,-0.339780,-0.116064,0.985936,-1.237612
2026-01-04T15:14:01.719711,-7.398607,-0.459421,-0.646062,-0.147829,1.081231,-1.376889
2026-01-04T15:14:01.728711,-7.240681,-0.885344,-1.488335,-0.151494,1.229060,-1.513723
2026-01-04T15:14:01.738711,-7.379464,-1.205982,-1.832902,-0.145385,1.380555,-1.645670
2026-01-04T15:14:01.747711,-7.676174,-1.225125,-1.411765,-0.063529,1.463632,-1.770287
2026-01-04T15:14:01.757711,-7.747959,-0.899701,-1.378265,0.035430,1.481958,-1.865582
2026-01-04T15:14:01.767711,-7.384250,-0.674775,-1.890329,0.048869,1.464854,-1.963320
2026-01-04T15:14:01.776711,-6.719045,-0.741775,-1.976471,-0.076969,1.445306,-2.065945
2026-01-04T15:14:01.786711,-5.943771,-1.469193,-1.995614,-0.273667,1.494176,-2.152688
2026-01-04T15:14:01.795711,-5.431707,-2.100898,-1.689332,-0.277332,1.637118,-2.274861
2026-01-04T15:14:01.805711,-5.230710,-2.067398,-1.440479,-0.150272,1.826486,-2.381152
2026-01-04T15:14:01.815711,-5.412564,-2.249253,-2.335394,-0.157603,2.004859,-2.441016
2026-01-04T15:14:01.824711,-5.910271,-2.359323,-2.837887,-0.092851,2.109928,-2.550972
2026-01-04T15:14:01.834711,-6.092126,-1.560120,-3.077169,-0.032986,2.125810,-2.649932
2026-01-04T15:14:01.844711,-5.718846,-1.191625,-3.043670,-0.328645,2.020741,-2.706132
2026-01-04T15:14:01.853711,-4.656432,-2.067398,-1.550549,-0.660956,1.879021,-2.744006
2026-01-04T15:14:01.863711,-3.364308,-3.058027,-0.143569,-0.648738,1.924225,-2.787988
2026-01-04T15:14:01.872711,-2.770888,-2.316252,-1.359123,-0.659734,2.182010,-2.823418
2026-01-04T15:14:01.882711,-0.937986,-2.196611,-5.584847,-0.728151,2.515542,-2.555859
2026-01-04T15:14:01.892711,-2.947957,-5.316851,-6.451049,-0.212581,2.907717,-2.747671
2026-01-04T15:14:01.901711,-4.599005,-3.996013,-8.930013,0.151494,3.226589,-2.825862
2026-01-04T15:14:01.911711,-6.082555,-2.297109,-6.838686,-0.013439,3.137403,-2.974913
2026-01-04T15:14:01.920711,-5.852844,-2.024327,-2.962314,-0.481361,2.687806,-3.004234
2026-01-04T15:14:01.930711,-4.364508,-3.321237,-4.914857,-0.934623,2.261422,-2.812422
2026-01-04T15:14:01.940711,-2.287538,-5.498706,-3.972085,-0.996931,2.072054,-2.833192
2026-01-04T15:14:01.949711,-0.440279,-6.819544,-2.445464,-0.618195,2.282192,-2.822196
2026-01-04T15:14:01.959711,0.277567,-7.369893,-5.120640,-0.117286,2.695136,-2.745227
2026-01-04T15:14:01.969711,0.378065,-6.719045,-6.187839,0.338419,3.023782,-2.770884
2026-01-04T15:14:01.978711,-0.430708,-4.804787,-9.595218,0.557108,3.374418,-2.635272
2026-01-04T15:14:01.988711,-1.909472,-2.402393,-12.662817,0.235793,3.539352,-2.587624
2026-01-04T15:14:01.997711,-2.354537,-1.454836,-8.298308,-0.680503,3.367088,-2.623054
2026-01-04T15:14:02.007711,-2.143969,-3.378665,-7.948956,-1.663996,3.089755,-2.403143
2026-01-04T15:14:02.017711,-0.870987,-6.494120,-6.948756,-2.009746,2.770884,-2.320065
2026-01-04T15:14:02.026711,1.244267,-9.245866,-2.924029,-1.696983,2.643824,-2.230879
2026-01-04T15:14:02.036711,2.694318,-10.887342,-5.067998,-0.853989,2.820975,-2.056171
2026-01-04T15:14:02.045711,1.588834,-9.097511,-7.905885,0.134390,2.966360,-1.835038
2026-01-04T15:14:02.055711,0.105284,-16.663616,0.564706,0.519235,2.100154,-0.773355
2026-01-04T15:14:02.065711,9.245866,-2.565105,-17.338392,1.835038,2.707354,-1.648114
2026-01-04T15:14:02.074711,0.430708,-2.976671,-9.738787,0.698829,3.641977,-2.173458
2026-01-04T15:14:02.084711,-0.569491,-3.818944,-10.140782,-0.714712,3.704286,-2.017076
2026-01-04T15:14:02.094711,-0.526420,-6.613761,-11.906685,-1.397659,3.214372,-1.959655
2026-01-04T15:14:02.103711,1.416550,-9.078368,-5.848058,-1.396437,2.708575,-1.916894
2026-01-04T15:14:02.113711,2.847458,-10.413563,-7.953742,-0.759916,2.569298,-1.839925
2026-01-04T15:14:02.122711,4.273581,-9.686145,-9.054440,0.147829,2.630385,-1.954768
2026-01-04T15:14:02.132711,5.307280,-7.867600,-6.470192,0.612086,2.850296,-1.959655
2026-01-04T15:14:02.142711,4.886143,-6.628118,-11.140982,0.742811,3.202154,-2.010967
2026-01-04T15:14:02.151711,3.790230,-5.661418,-14.108082,0.577878,3.444057,-2.155132
2026-01-04T15:14:02.161711,3.000599,-5.910271,-9.245866,0.037873,3.497813,-2.175901
2026-01-04T15:14:02.170711,1.947757,-7.508677,-10.954341,-0.311541,3.329214,-2.106262
2026-01-04T15:14:02.180711,2.254038,-8.561519,-10.289137,-0.227241,2.829527,-2.076941
2026-01-04T15:14:02.190711,3.498306,-8.657232,-7.915457,0.014660,2.377487,-1.946216
2026-01-04T15:14:02.199711,4.957928,-7.719245,-8.776873,0.486248,2.141693,-1.904677
2026-01-04T15:14:02.209711,6.565905,-6.082555,-7.130611,0.689055,2.107484,-1.854586
2026-01-04T15:14:02.219711,7.499106,-5.608776,-6.364908,0.509461,2.298074,-1.786169
2026-01-04T15:14:02.228711,7.384250,-5.924628,-9.399007,0.412944,2.619389,-1.776395
2026-01-04T15:14:02.238711,6.656832,-6.197410,-10.758130,0.283441,2.906496,-1.798386
2026-01-04T15:14:02.247711,5.374279,-6.929614,-11.260623,0.141720,3.049438,-1.844812
2026-01-04T15:14:02.257711,4.498506,-7.398607,-9.671788,0.127059,2.894278,-1.854586
2026-01-04T15:14:02.267711,4.709074,-7.776673,-6.508477,0.152716,2.513099,-1.808160
2026-01-04T15:14:02.276711,5.058426,-7.939385,-9.595218,0.378736,2.136806,-1.715309
2026-01-04T15:14:02.286711,6.374479,-6.728617,-8.432306,0.717155,1.832595,-1.693318
2026-01-04T15:14:02.295711,7.786244,-5.163711,-5.264209,0.757472,1.707978,-1.591914
2026-01-04T15:14:02.305711,8.599804,-4.307080,-7.546962,0.659734,1.732413,-1.501506
2026-01-04T15:14:02.315711,9.250652,-4.168296,-7.077969,0.326201,1.802052,-1.417207
2026-01-04T15:14:02.324711,9.576076,-5.249852,-5.039284,-0.107512,1.933998,-1.319468
2026-01-04T15:14:02.334711,9.111868,-7.020541,-6.183053,-0.186924,2.108706,-1.288925
2026-01-04T15:14:02.344711,8.250452,-8.063812,-7.523034,0.007330,2.212553,-1.293812
2026-01-04T15:14:02.353711,7.441678,-8.370093,-7.881957,0.342084,2.179566,-1.345124
2026-01-04T15:14:02.363711,6.958328,-7.341179,-7.058826,0.794124,2.036624,-1.369559
2026-01-04T15:14:02.372711,6.752545,-5.532205,-7.125825,1.014036,1.802052,-1.357342
2026-01-04T15:14:02.382711,7.039684,-4.168296,-7.144968,0.838106,1.543045,-1.282816
2026-01-04T15:14:02.392711,7.661817,-3.785445,-5.991627,0.483805,1.325577,-1.196073
2026-01-04T15:14:02.401711,8.288737,-4.532006,-5.072783,0.141720,1.186300,-1.073900
2026-01-04T15:14:02.411711,8.724231,-5.326423,-4.498506,0.072082,1.137430,-0.978605
2026-01-04T15:14:02.420711,8.992227,-5.570491,-4.536791,0.207694,1.147204,-0.910189
2026-01-04T15:14:02.430711,8.958727,-5.570491,-4.857429,0.313984,1.142317,-0.845437
2026-01-04T15:14:02.440711,8.709874,-5.398207,-4.967499,0.392175,1.100778,-0.807563
2026-01-04T15:14:02.449711,8.523234,-5.312066,-4.847858,0.359188,1.051909,-0.784350
2026-01-04T15:14:02.459711,8.403592,-5.723631,-4.670789,0.277332,0.956614,-0.762359
2026-01-04T15:14:02.469711,8.379664,-5.833701,-4.900500,0.338419,0.853989,-0.729372
2026-01-04T15:14:02.478711,8.432306,-5.426921,-5.044070,0.447153,0.795346,-0.709825
2026-01-04T15:14:02.488711,8.446663,-4.943571,-4.398007,0.481361,0.783129,-0.680503
2026-01-04T15:14:02.497711,8.317451,-4.402793,-4.134797,0.458148,0.788015,-0.619417
2026-01-04T15:14:02.507711,8.164310,-3.938585,-4.110869,0.376292,0.789237,-0.555887
2026-01-04T15:14:02.517711,7.963313,-3.670589,-4.618147,0.235793,0.773355,-0.480139
2026-01-04T15:14:02.526711,7.963313,-3.680161,-4.082155,0.039095,0.702494,-0.408057
2026-01-04T15:14:02.536711,7.996813,-4.144368,-4.110869,-0.147829,0.619417,-0.323758
2026-01-04T15:14:02.545711,8.015955,-4.795216,-4.340580,-0.244346,0.540004,-0.270002
2026-01-04T15:14:02.555711,8.030312,-5.359922,-4.335794,-0.216246,0.455705,-0.226020
2026-01-04T15:14:02.565711,7.972884,-5.522634,-4.498506,-0.076969,0.389731,-0.201585
2026-01-04T15:14:02.574711,7.929814,-5.259424,-4.579862,0.073303,0.331088,-0.188146
2026-01-04T15:14:02.584711,7.987241,-4.680361,-4.388436,0.147829,0.244346,-0.153938
2026-01-04T15:14:02.594711,8.059026,-4.139583,-4.268795,0.169820,0.177150,-0.102625
2026-01-04T15:14:02.603711,8.011170,-3.661018,-4.445864,0.069638,0.172263,-0.040317
2026-01-04T15:14:02.613711,7.776673,-3.651447,-4.603790,-0.084299,0.175929,0.013439
2026-01-04T15:14:02.622711,7.499106,-3.775874,-4.776073,-0.184481,0.127059,0.051312
2026-01-04T15:14:02.632711,7.312465,-4.120440,-4.651647,-0.284663,-0.019547,0.094073
2026-01-04T15:14:02.642711,7.546962,-4.742574,-4.244867,-0.381179,-0.229685,0.139277
2026-01-04T15:14:02.651711,7.901100,-5.503491,-4.278366,-0.354301,-0.427605,0.177150
2026-01-04T15:14:02.661711,8.384450,-6.039484,-4.259224,-0.254119,-0.571769,0.199142
2026-01-04T15:14:02.670711,8.748159,-6.183053,-3.766302,-0.107512,-0.652403,0.213802
2026-01-04T15:14:02.680711,8.642875,-6.029912,-3.795016,0.080634,-0.651182,0.249232
2026-01-04T15:14:02.690711,8.178667,-5.513063,-4.608576,0.261450,-0.594982,0.277332
2026-01-04T15:14:02.699711,7.532605,-4.823930,-5.699703,0.356745,-0.596204,0.295658
2026-01-04T15:14:02.709711,7.049255,-4.201796,-6.250052,0.356745,-0.702494,0.343306
2026-01-04T15:14:02.719711,7.087540,-3.613162,-6.642475,0.273667,-0.933401,0.393397
2026-01-04T15:14:02.728711,7.757530,-3.354737,-6.173482,0.008552,-1.178969,0.489913
2026-01-04T15:14:02.738711,8.384450,-4.130011,-5.785845,-0.375071,-1.282816,0.607199
2026-01-04T15:14:02.747711,8.819944,-5.216353,-5.273781,-0.533896,-1.199739,0.670729
2026-01-04T15:14:02.757711,8.446663,-5.953342,-5.919843,-0.460592,-1.050687,0.735481
2026-01-04T15:14:02.767711,7.843672,-6.192624,-6.317051,-0.350636,-0.996931,0.794124
2026-01-04T15:14:02.776711,7.202396,-6.149554,-6.001199,-0.234572,-1.040914,0.834441
2026-01-04T15:14:02.786711,6.613761,-5.948556,-5.441278,-0.149051,-1.127656,0.873537
2026-01-04T15:14:02.795711,6.273980,-5.934200,-6.025127,-0.183259,-1.293812,0.930958
2026-01-04T15:14:02.805711,6.446264,-6.135197,-6.508477,-0.221133,-1.571145,0.983492
2026-01-04T15:14:02.815711,7.044469,-6.259623,-6.326622,-0.239459,-1.810604,1.040914
2026-01-04T15:14:02.824711,7.556533,-6.513263,-6.297909,-0.219911,-1.898568,1.076344
2026-01-04T15:14:02.834711,7.781459,-6.704688,-6.972685,-0.109955,-1.877799,1.111774
2026-01-04T15:14:02.844711,7.637889,-6.412764,-7.542176,0.018325,-1.850921,1.154535
2026-01-04T15:14:02.853711,7.408178,-5.943771,-7.824529,0.096516,-1.839925,1.211956
2026-01-04T15:14:02.863711,7.101897,-5.560919,-8.164310,0.062308,-1.860695,1.281595
2026-01-04T15:14:02.872711,6.896114,-5.498706,-8.523234,-0.133168,-1.981646,1.381776
2026-01-04T15:14:02.882711,7.006184,-6.053841,-7.479963,-0.344527,-2.171014,1.466076
2026-01-04T15:14:02.892711,7.188039,-7.073183,-7.714460,-0.488692,-2.316400,1.539380
2026-01-04T15:14:02.901711,7.255038,-7.992027,-8.805587,-0.456927,-2.434908,1.572366
2026-01-04T15:14:02.911711,7.451249,-8.212167,-8.255237,-0.271224,-2.526538,1.606575
2026-01-04T15:14:02.920711,7.432106,-7.929814,-7.843672,-0.086742,-2.618167,1.646892
2026-01-04T15:14:02.930711,7.322037,-7.494320,-8.169096,0.092851,-2.679254,1.671326
2026-01-04T15:14:02.940711,7.039684,-7.097111,-8.829515,0.155159,-2.692693,1.728748
2026-01-04T15:14:02.949711,6.695117,-6.910471,-9.087940,0.114842,-2.726901,1.781282
2026-01-04T15:14:02.959711,6.321837,-6.776473,-9.705288,0.075747,-2.802649,1.857029
2026-01-04T15:14:02.969711,6.159125,-6.565905,-9.135796,0.074525,-2.901609,1.915672
2026-01-04T15:14:02.978711,5.948556,-6.628118,-9.595218,-0.041538,-2.952921,2.010967
2026-01-04T15:14:02.988711,5.804987,-7.149753,-9.963713,-0.190589,-3.017673,2.062280
2026-01-04T15:14:02.997711,5.603990,-7.834101,-9.332008,-0.228463,-3.050660,2.122145
2026-01-04T15:14:03.007711,5.053641,-8.274380,-10.557133,-0.174707,-3.057990,2.174679
2026-01-04T15:14:03.017711,4.689932,-8.422735,-10.198209,-0.037873,-3.112968,2.182010
2026-01-04T15:14:03.026711,4.512863,-8.269594,-8.776873,0.106290,-3.180163,2.221105
2026-01-04T15:14:03.036711,4.019941,-8.015955,-10.427920,0.212581,-3.270571,2.266309
2026-01-04T15:14:03.045711,3.962514,-7.618747,-9.312865,0.233350,-3.340210,2.294409
2026-01-04T15:14:03.055711,3.627519,-7.666603,-9.690931,0.164933,-3.334101,2.339613
2026-01-04T15:14:03.065711,3.292523,-7.757530,-9.485148,0.193033,-3.347540,2.334726
2026-01-04T15:14:03.074711,2.938386,-7.604390,-9.030512,0.206472,-3.327993,2.378708
2026-01-04T15:14:03.084711,2.325823,-7.503891,-9.796215,0.202807,-3.303558,2.406808
2026-01-04T15:14:03.094711,1.885544,-7.020541,-9.202795,0.252898,-3.299893,2.423912
2026-01-04T15:14:03.103711,1.450050,-6.742974,-9.509077,0.144164,-3.312110,2.454456
2026-01-04T15:14:03.113711,1.115055,-7.010970,-8.733802,0.014660,-3.348762,2.463008
2026-01-04T15:14:03.122711,0.870987,-7.259823,-7.743173,0.050090,-3.359758,2.465451
2026-01-04T15:14:03.132711,0.263210,-7.446463,-9.858429,0.068416,-3.347540,2.483777
2026-01-04T15:14:03.142711,0.138783,-7.369893,-7.987241,0.117286,-3.409849,2.422691
2026-01-04T15:14:03.151711,0.052642,-7.111468,-5.493920,0.260228,-3.415957,2.408030
2026-01-04T15:14:03.161711,-0.555134,-6.929614,-7.982456,0.365297,-3.386636,2.434908
2026-01-04T15:14:03.170711,-0.789631,-6.465406,-7.881957,0.467922,-3.403740,2.395812
2026-01-04T15:14:03.180711,-0.995414,-5.915057,-6.900900,0.526565,-3.371975,2.398256
2026-01-04T15:14:03.190711,-1.306481,-5.546562,-7.566105,0.455705,-3.349984,2.403143
2026-01-04T15:14:03.199711,-1.339980,-5.383850,-6.580262,0.401949,-3.375640,2.384817
2026-01-04T15:14:03.209711,-1.459621,-5.149354,-6.518048,0.364075,-3.325549,2.417804
2026-01-04T15:14:03.219711,-1.555334,-5.067998,-6.800401,0.296880,-3.252245,2.398256
2026-01-04T15:14:03.228711,-1.837687,-5.029713,-5.972485,0.271224,-3.122742,2.370156
2026-01-04T15:14:03.238711,-2.187039,-4.814359,-4.733003,0.301767,-2.961474,2.339613
2026-01-04T15:14:03.247711,-2.718246,-4.527220,-4.962714,0.282219,-2.858848,2.307848
2026-01-04T15:14:03.257711,-3.220739,-4.680361,-6.427121,0.201585,-2.829527,2.323730
2026-01-04T15:14:03.267711,-3.522234,-4.646861,-6.283552,0.227241,-2.867400,2.273639
2026-01-04T15:14:03.276711,-3.359522,-4.182653,-4.187439,0.256563,-2.918713,2.201557
2026-01-04T15:14:03.286711,-3.235096,-4.096512,-5.005784,0.161268,-2.915048,2.227214
2026-01-04T15:14:03.295711,-3.235096,-4.402793,-6.149554,0.095294,-2.902831,2.201557
2026-01-04T15:14:03.305711,-2.780459,-4.388436,-4.139583,0.141720,-2.791653,2.129475
2026-01-04T15:14:03.315711,-2.909672,-4.216153,-3.766302,0.157603,-2.602285,2.111149
2026-01-04T15:14:03.324711,-2.991028,-4.077369,-2.569891,0.211359,-2.442238,2.067167
2026-01-04T15:14:03.334711,-3.469592,-3.751945,-3.833301,0.285884,-2.249205,2.084271
2026-01-04T15:14:03.344711,-4.192225,-3.440878,-4.584648,0.273667,-2.100154,2.040289
2026-01-04T15:14:03.353711,-4.512863,-3.129811,-3.613162,0.210137,-2.041511,1.981646
2026-01-04T15:14:03.363711,-4.996213,-2.943171,-4.728217,0.069638,-2.040289,1.997528
2026-01-04T15:14:03.372711,-4.847858,-2.928814,-2.550748,-0.052534,-2.092823,1.903455
2026-01-04T15:14:03.382711,-4.555934,-3.268595,-2.086541,-0.112399,-2.063502,1.896125
2026-01-04T15:14:03.392711,-4.627718,-3.708875,-3.364308,-0.052534,-1.976759,1.885129
2026-01-04T15:14:03.401711,-4.637290,-3.503092,-2.421536,0.117286,-1.866803,1.827708
2026-01-04T15:14:03.411711,-4.910071,-3.000599,-2.536391,0.268780,-1.704313,1.811825
2026-01-04T15:14:03.420711,-5.278566,-2.435893,-2.837887,0.382401,-1.551597,1.787391
2026-01-04T15:14:03.430711,-5.589633,-1.789831,-3.014956,0.377514,-1.431867,1.780060
2026-01-04T15:14:03.440711,-5.804987,-1.512263,-2.679961,0.288328,-1.376889,1.762956
2026-01-04T15:14:03.449711,-5.809773,-1.277767,-1.746760,0.217467,-1.323133,1.739743
2026-01-04T15:14:03.459711,-5.828915,-1.473978,-1.789831,0.096516,-1.242499,1.727526
2026-01-04T15:14:03.469711,-5.264209,-2.483749,-0.655633,0.029321,-1.153313,1.760513
2026-01-04T15:14:03.478711,-4.450650,-4.402793,-1.359123,0.085521,-1.031140,1.613905
2026-01-04T15:14:03.488711,-6.790830,-1.785045,-0.851844,0.175929,-0.894306,1.502728
2026-01-04T15:14:03.497711,-7.322037,-1.521835,-1.119840,0.280997,-0.801455,1.412320
2026-01-04T15:14:03.507711,-7.666603,-0.961914,-0.555134,0.384845,-0.774576,1.326799
2026-01-04T15:14:03.517711,-7.724031,-0.526420,-0.808774,0.388510,-0.764803,1.258382
2026-01-04T15:14:03.526711,-7.657032,-0.373280,0.387637,0.366519,-0.711046,1.152091
2026-01-04T15:14:03.536711,-7.599604,-0.358923,0.406779,0.364075,-0.598647,1.066570
2026-01-04T15:14:03.545711,-7.762316,-0.363709,0.674775,0.439822,-0.415388,0.962723
2026-01-04T15:14:03.555711,-8.260023,0.095712,0.617348,0.576656,-0.218689,0.842993
2026-01-04T15:14:03.565711,-8.886943,0.837487,0.593420,0.663399,-0.054977,0.731816
2026-01-04T15:14:03.574711,-9.375078,1.167697,-0.689132,0.648738,0.061086,0.653625
2026-01-04T15:14:03.584711,-9.934999,1.579262,-0.464207,0.536339,0.084299,0.540004
2026-01-04T15:14:03.594711,-10.068997,2.129612,0.847059,0.469144,0.056199,0.447153
2026-01-04T15:14:03.603711,-9.801001,2.354537,-0.602991,0.248011,0.028099,0.399505
2026-01-04T15:14:03.613711,-9.489934,1.804188,-0.066999,-0.043982,0.046425,0.280997
2026-01-04T15:14:03.622711,-8.944370,1.014556,0.287138,-0.177150,0.112399,0.161268
2026-01-04T15:14:03.632711,-8.542376,0.382851,-0.406779,-0.194255,0.244346,0.031764
2026-01-04T15:14:03.642711,-8.537591,0.066999,-0.555134,-0.131946,0.441044,-0.118507
2026-01-04T15:14:03.651711,-8.824729,0.258424,-0.133998,-0.069638,0.603534,-0.295658
2026-01-04T15:14:03.661711,-8.848657,0.315852,-0.315852,-0.116064,0.646295,-0.454483
2026-01-04T15:14:03.670711,-8.547162,0.057427,-0.363709,-0.230907,0.624304,-0.585208
2026-01-04T15:14:03.680711,-8.044669,-0.320638,-0.215354,-0.265115,0.658512,-0.734259
2026-01-04T15:14:03.690711,-7.700103,-0.464207,-0.110069,-0.233350,0.797789,-0.889419
2026-01-04T15:14:03.699711,-7.676174,-0.598205,0.200997,-0.178372,0.963945,-1.043357
2026-01-04T15:14:03.709711,-7.570890,-0.602991,0.210568,-0.084299,1.103222,-1.175304
2026-01-04T15:14:03.719711,-7.499106,-0.746560,-0.976271,-0.030543,1.232725,-1.279151
2026-01-04T15:14:03.728711,-7.518248,-1.014556,-1.942971,-0.010995,1.325577,-1.391550
2026-01-04T15:14:03.738711,-7.470392,-1.162911,-1.378265,0.046425,1.367116,-1.500284
2026-01-04T15:14:03.747711,-7.149753,-1.067198,-1.344766,0.096516,1.385442,-1.596801
2026-01-04T15:14:03.757711,-6.786044,-1.067198,-2.450250,0.096516,1.423315,-1.668883
2026-01-04T15:14:03.767711,-6.384050,-1.076770,-2.143969,0.051312,1.489289,-1.778839
2026-01-04T15:14:03.776711,-6.072983,-1.191625,-1.363908,-0.021991,1.579697,-1.881464
2026-01-04T15:14:03.786711,-5.871986,-1.540977,-2.163111,-0.124616,1.676213,-1.938885
2026-01-04T15:14:03.795711,-5.848058,-1.842473,-2.076970,-0.183259,1.782504,-2.023185
2026-01-04T15:14:03.805711,-5.761916,-2.038684,-1.344766,-0.183259,1.891238,-2.107484
2026-01-04T15:14:03.815711,-5.747559,-2.373680,-2.976671,-0.184481,2.007302,-2.130697
2026-01-04T15:14:03.824711,-5.891129,-2.636890,-4.833501,-0.189368,2.084271,-2.167349
2026-01-04T15:14:03.834711,-5.728417,-2.431107,-2.636890,-0.141720,2.092823,-2.254092
2026-01-04T15:14:03.844711,-5.254638,-2.402393,-2.632104,-0.168598,2.117258,-2.235766
2026-01-04T15:14:03.853711,-4.929214,-3.048455,-3.483949,-0.278554,2.167349,-2.232101
2026-01-04T15:14:03.863711,-4.599005,-3.632304,-3.876372,-0.224798,2.273639,-2.236988
2026-01-04T15:14:03.872711,-4.914857,-3.579662,-6.675975,-0.153938,2.411695,-2.205223
2026-01-04T15:14:03.882711,-4.752145,-3.378665,-4.149154,-0.195476,2.392147,-2.345722
2026-01-04T15:14:03.892711,-4.302295,-3.345165,-2.536391,-0.278554,2.387260,-2.340835
2026-01-04T15:14:03.901711,-4.010370,-4.259224,-4.790430,-0.405614,2.411695,-2.309070
2026-01-04T15:14:03.911711,-3.330809,-5.235495,-3.460021,-0.415388,2.425134,-2.381152
2026-01-04T15:14:03.920711,-3.436093,-4.680361,-2.450250,-0.166155,2.541198,-2.480112
2026-01-04T15:14:03.930711,-3.512663,-4.742574,-7.972884,0.145385,2.730567,-2.362826
2026-01-04T15:14:03.940711,-3.345165,-3.957728,-7.834101,0.278554,2.796540,-2.364047
2026-01-04T15:14:03.949711,-3.211167,-2.732603,-4.857429,0.142942,2.866179,-2.403143
2026-01-04T15:14:03.959711,-3.450450,-3.058027,-7.685746,-0.337197,2.907717,-2.312735
2026-01-04T15:14:03.969711,-3.053241,-4.857429,-7.537391,-0.722042,2.751336,-2.317622
2026-01-04T15:14:03.978711,-1.957328,-6.087340,-4.230510,-0.692721,2.657263,-2.289522
2026-01-04T15:14:03.988711,-1.708475,-6.699903,-7.819744,-0.463035,2.707354,-2.186897
2026-01-04T15:14:03.997711,-0.981057,-6.585047,-7.537391,-0.213802,2.685363,-2.261422
2026-01-04T15:14:04.007711,-0.033499,-5.838487,-4.082155,-0.053756,2.768440,-2.232101
2026-01-04T15:14:04.017711,0.210568,-4.986642,-7.073183,-0.053756,2.910161,-2.183231
2026-01-04T15:14:04.026711,0.454636,-4.709074,-9.188438,-0.249232,2.977356,-2.222327
2026-01-04T15:14:04.036711,0.823130,-5.527420,-5.948556,-0.504574,3.170389,-2.214996
2026-01-04T15:14:04.045711,0.210568,-7.111468,-8.590233,-0.572991,3.430618,-2.197892
2026-01-04T15:14:04.055711,-0.449850,-7.901100,-10.231709,-0.312762,3.401296,-2.224770
2026-01-04T15:14:04.065711,-0.033499,-7.599604,-6.977470,0.007330,3.238806,-2.213775
2026-01-04T15:14:04.074711,-0.038285,-7.154539,-10.356136,0.175929,3.166724,-2.131919
2026-01-04T15:14:04.084711,0.507278,-5.785845,-10.557133,0.320093,2.954143,-2.182010
2026-01-04T15:14:04.094711,1.981257,-4.139583,-6.025127,0.017104,2.830748,-2.094045
2026-01-04T15:14:04.103711,2.703889,-4.637290,-9.135796,-0.695164,2.864957,-1.987755
2026-01-04T15:14:04.113711,3.713660,-6.757331,-8.743373,-1.216843,2.863735,-1.984089
2026-01-04T15:14:04.122711,4.713860,-9.437292,-4.618147,-1.367116,2.992017,-1.914451
2026-01-04T15:14:04.132711,4.024727,-11.676974,-10.810772,-0.789237,3.288897,-1.930333
2026-01-04T15:14:04.142711,3.081955,-10.987841,-13.596018,0.346971,3.469713,-2.085493
2026-01-04T15:14:04.151711,2.837887,-8.154739,-6.278766,1.132543,3.480709,-2.160019
2026-01-04T15:14:04.161711,2.139183,-5.828915,-9.499505,1.224173,3.351205,-2.151466
2026-01-04T15:14:04.170711,2.254038,-4.522434,-11.437692,0.928514,3.075094,-2.131919
2026-01-04T15:14:04.180711,2.967100,-4.010370,-11.093125,0.287106,2.864957,-2.008524
2026-01-04T15:14:04.190711,4.048655,-4.986642,-10.585847,-0.442266,2.691471,-1.966985
2026-01-04T15:14:04.199711,5.321637,-6.881757,-7.341179,-0.930958,2.662150,-1.854586
2026-01-04T15:14:04.209711,5.575276,-9.011369,-8.283951,-0.847880,2.830748,-1.784947
2026-01-04T15:14:04.219711,5.556134,-9.743573,-8.173882,-0.255341,2.982243,-1.815491
2026-01-04T15:14:04.228711,5.292923,-8.886943,-6.221338,0.401949,3.094642,-1.844812
2026-01-04T15:14:04.238711,4.637290,-7.628318,-7.657032,0.886976,3.150842,-1.937664
2026-01-04T15:14:04.247711,4.163511,-6.436692,-9.265009,1.038470,3.098307,-2.012189
2026-01-04T15:14:04.257711,3.871586,-5.436492,-11.830114,0.921184,2.943148,-2.046398
2026-01-04T15:14:04.267711,4.144368,-4.441078,-12.461820,0.583987,2.619389,-2.032959
2026-01-04T15:14:04.276711,5.532205,-4.886143,-8.575876,-0.035430,2.245540,-1.887573
2026-01-04T15:14:04.286711,6.757331,-6.364908,-9.676574,-0.433714,1.976759,-1.679879
2026-01-04T15:14:04.295711,8.293523,-7.077969,-7.618747,-0.360410,1.821599,-1.568701
2026-01-04T15:14:04.305711,9.485148,-7.470392,-4.733003,-0.207694,1.894903,-1.428202
2026-01-04T15:14:04.315711,9.647860,-7.508677,-6.029912,0.180816,2.161240,-1.424537
2026-01-04T15:14:04.324711,9.250652,-6.915257,-6.809973,0.415388,2.390926,-1.436754
2026-01-04T15:14:04.334711,8.446663,-6.967899,-6.465406,0.388510,2.470338,-1.481958
2026-01-04T15:14:04.344711,7.551748,-7.250252,-7.771887,0.547335,2.458121,-1.556484
2026-01-04T15:14:04.353711,6.910471,-6.814758,-7.791030,0.714712,2.376265,-1.616349
2026-01-04T15:14:04.363711,6.795616,-6.331408,-7.958527,0.715933,2.177123,-1.621236
2026-01-04T15:14:04.372711,7.173682,-5.819344,-9.159724,0.640186,1.875355,-1.573588
2026-01-04T15:14:04.382711,7.939385,-5.407779,-9.198010,0.478918,1.606575,-1.479515
2026-01-04T15:14:04.392711,8.791230,-5.733202,-6.762116,0.249232,1.492954,-1.357342
2026-01-04T15:14:04.401711,9.154939,-6.565905,-4.943571,0.130725,1.510058,-1.219286
2026-01-04T15:14:04.411711,8.858229,-7.149753,-5.020141,0.353080,1.588249,-1.147204
2026-01-04T15:14:04.420711,8.398807,-6.565905,-4.680361,0.758694,1.648114,-1.144761
2026-01-04T15:14:04.430711,7.958527,-5.455635,-4.043870,0.977384,1.616349,-1.150869
2026-01-04T15:14:04.440711,7.848458,-4.603790,-4.139583,0.948062,1.450193,-1.125213
2026-01-04T15:14:04.449711,8.073383,-4.268795,-4.608576,0.786794,1.249830,-1.067792
2026-01-04T15:14:04.459711,8.341379,-4.369294,-4.953142,0.624304,1.125213,-1.014036
2026-01-04T15:14:04.469711,8.652446,-4.555934,-5.005784,0.494800,1.080009,-0.963945
2026-01-04T15:14:04.478711,8.633303,-4.847858,-5.465206,0.453261,1.082452,-0.927293
2026-01-04T15:14:04.488711,8.398807,-4.871786,-6.398407,0.494800,1.092226,-0.874758
2026-01-04T15:14:04.497711,8.298308,-4.426721,-5.647061,0.514348,1.059240,-0.827111
2026-01-04T15:14:04.507711,8.193024,-4.130011,-4.570291,0.412944,0.989601,-0.753807
2026-01-04T15:14:04.517711,8.264809,-4.340580,-4.273581,0.241902,0.882089,-0.665842
2026-01-04T15:14:04.526711,8.370093,-4.780859,-3.373879,0.118507,0.775798,-0.592539
2026-01-04T15:14:04.536711,8.437092,-5.158925,-2.656033,0.119729,0.689055,-0.536339
2026-01-04T15:14:04.545711,8.346165,-5.292923,-2.900100,0.234572,0.626747,-0.480139
2026-01-04T15:14:04.555711,8.145168,-4.938785,-3.412165,0.405614,0.564439,-0.445931
2026-01-04T15:14:04.565711,8.063812,-4.340580,-3.340380,0.529009,0.467922,-0.419053
2026-01-04T15:14:04.574711,8.044669,-3.804587,-3.421736,0.509461,0.332310,-0.354301
2026-01-04T15:14:04.584711,8.279166,-3.637090,-3.684946,0.403170,0.191811,-0.278554
2026-01-04T15:14:04.594711,8.475377,-3.742374,-4.488935,0.287106,0.100181,-0.206472
2026-01-04T15:14:04.603711,8.585447,-3.909872,-5.130211,0.145385,0.057421,-0.146607
2026-01-04T15:14:04.613711,8.690731,-4.144368,-4.488935,0.021991,0.042760,-0.100181
2026-01-04T15:14:04.622711,8.595018,-4.297509,-3.579662,-0.048869,0.056199,-0.048869
2026-01-04T15:14:04.632711,8.221738,-4.551148,-3.646661,-0.074525,0.059864,0.003665
2026-01-04T15:14:04.642711,7.848458,-4.809573,-3.584448,-0.037873,0.000000,0.052534
2026-01-04T15:14:04.651711,7.513462,-4.828716,-3.627519,0.025656,-0.130725,0.105068
2026-01-04T15:14:04.661711,7.599604,-4.656432,-3.488735,0.135612,-0.326201,0.139277
2026-01-04T15:14:04.670711,7.996813,-4.445864,-3.632304,0.173485,-0.529009,0.194255
2026-01-04T15:14:04.680711,8.575876,-4.445864,-4.206582,0.127059,-0.692721,0.246789
2026-01-04T15:14:04.690711,9.188438,-4.307080,-4.402793,0.128281,-0.772133,0.293215
2026-01-04T15:14:04.699711,9.456434,-4.034298,-4.216153,0.112399,-0.755029,0.340862
2026-01-04T15:14:04.709711,9.571290,-3.847658,-3.924229,0.020769,-0.665842,0.394618
2026-01-04T15:14:04.719711,9.064012,-3.929014,-4.273581,-0.091629,-0.582765,0.471587
2026-01-04T15:14:04.728711,8.408378,-4.096512,-4.364508,-0.158824,-0.576656,0.527787
2026-01-04T15:14:04.738711,7.939385,-4.331008,-4.125226,-0.224798,-0.664621,0.588873
2026-01-04T15:14:04.747711,7.719245,-4.637290,-3.842873,-0.279776,-0.835663,0.641408
2026-01-04T15:14:04.757711,7.767102,-5.111069,-4.244867,-0.313984,-1.064127,0.697607
2026-01-04T15:14:04.767711,8.068597,-5.613561,-4.771288,-0.287106,-1.286481,0.751364
2026-01-04T15:14:04.776711,8.494520,-5.790630,-4.953142,-0.183259,-1.469741,0.778242
2026-01-04T15:14:04.786711,9.011369,-5.589633,-4.867001,-0.086742,-1.579697,0.817337
2026-01-04T15:14:04.795711,9.269794,-5.221138,-5.355136,-0.006108,-1.616349,0.873537
2026-01-04T15:14:04.805711,9.332008,-4.804787,-5.632704,0.003665,-1.599244,0.938288
2026-01-04T15:14:04.815711,9.140582,-4.508077,-5.216353,-0.094073,-1.574810,1.009149
2026-01-04T15:14:04.824711,8.714659,-4.718646,-5.221138,-0.201585,-1.580918,1.082452
2026-01-04T15:14:04.834711,8.221738,-5.044070,-6.460621,-0.285884,-1.631009,1.158200
2026-01-04T15:14:04.844711,7.905885,-5.450849,-6.714260,-0.359188,-1.742187,1.225395
2026-01-04T15:14:04.853711,7.910671,-5.891129,-6.379265,-0.395840,-1.891238,1.276708
2026-01-04T15:14:04.863711,7.987241,-6.374479,-6.427121,-0.379958,-2.029293,1.307251
2026-01-04T15:14:04.872711,8.011170,-6.939185,-6.958328,-0.316428,-2.114815,1.331685
2026-01-04T15:14:04.882711,8.025527,-7.020541,-6.786044,-0.140498,-2.153910,1.358564
2026-01-04T15:14:04.892711,7.992027,-6.522834,-6.446264,0.059864,-2.155132,1.400102
2026-01-04T15:14:04.901711,7.685746,-6.082555,-7.231109,0.127059,-2.147801,1.462411
2026-01-04T15:14:04.911711,7.326822,-5.666203,-7.532605,0.061086,-2.161240,1.534493
2026-01-04T15:14:04.920711,7.106683,-5.680560,-7.350751,-0.083077,-2.210109,1.605353
2026-01-04T15:14:04.930711,6.824330,-6.130411,-7.743173,-0.233350,-2.282192,1.678657
2026-01-04T15:14:04.940711,6.652046,-6.733402,-7.489534,-0.307876,-2.342056,1.736078
2026-01-04T15:14:04.949711,6.532405,-7.427321,-7.795816,-0.268780,-2.386039,1.778839
2026-01-04T15:14:04.959711,6.317051,-7.657032,-8.121239,-0.130725,-2.386039,1.798386
2026-01-04T15:14:04.969711,6.025127,-7.757530,-8.403592,-0.020769,-2.366491,1.803273
2026-01-04T15:14:04.978711,5.733202,-7.661817,-7.862815,0.105068,-2.382373,1.814269
2026-01-04T15:14:04.988711,5.455635,-7.207181,-7.556533,0.227241,-2.383595,1.855808
2026-01-04T15:14:04.997711,5.015356,-6.891329,-8.920442,0.206472,-2.371378,1.898568
2026-01-04T15:14:05.007711,4.709074,-6.853043,-8.618947,0.098960,-2.411695,1.938885
2026-01-04T15:14:05.017711,4.651647,-7.020541,-8.087740,-0.006108,-2.489886,1.999972
2026-01-04T15:14:05.026711,4.651647,-7.456035,-8.872586,-0.072082,-2.561968,2.053728
2026-01-04T15:14:05.036711,4.771288,-7.771887,-8.580661,-0.052534,-2.629163,2.094045
2026-01-04T15:14:05.045711,4.833501,-7.762316,-7.676174,0.010995,-2.675589,2.131919
2026-01-04T15:14:05.055711,4.728217,-7.728816,-8.528019,0.053756,-2.679254,2.177123
2026-01-04T15:14:05.065711,4.383651,-7.604390,-9.949356,0.024434,-2.697580,2.211331
2026-01-04T15:14:05.074711,4.326223,-7.355536,-8.264809,0.035430,-2.744006,2.214996
2026-01-04T15:14:05.084711,4.077369,-7.178467,-7.594818,0.018325,-2.762332,2.260200
2026-01-04T15:14:05.094711,3.775874,-7.537391,-8.106882,-0.031764,-2.779436,2.279748
2026-01-04T15:14:05.103711,3.527020,-7.958527,-8.126025,0.045204,-2.762332,2.293187
2026-01-04T15:14:05.113711,3.043670,-7.848458,-9.044869,0.227241,-2.702467,2.298074
2026-01-04T15:14:05.122711,2.407179,-7.389036,-9.140582,0.366519,-2.657263,2.284635
2026-01-04T15:14:05.132711,1.928615,-6.776473,-8.896514,0.400727,-2.663371,2.302961
2026-01-04T15:14:05.142711,1.785045,-6.135197,-7.556533,0.309097,-2.733010,2.300518
2026-01-04T15:14:05.151711,1.612762,-6.293123,-7.140182,0.103847,-2.761110,2.322509
2026-01-04T15:14:05.161711,1.182054,-7.025327,-9.332008,-0.074525,-2.755001,2.332282
2026-01-04T15:14:05.170711,1.024128,-7.379464,-8.398807,-0.047647,-2.783101,2.263866
2026-01-04T15:14:05.180711,0.981057,-7.025327,-6.384050,0.091629,-2.780657,2.234544
2026-01-04T15:14:05.190711,0.684347,-6.594619,-6.843472,0.172263,-2.762332,2.213775
2026-01-04T15:14:05.199711,0.488135,-6.436692,-6.570690,0.195476,-2.733010,2.191784
2026-01-04T15:14:05.209711,0.090927,-6.360122,-7.877171,0.167377,-2.669480,2.227214
2026-01-04T15:14:05.219711,-0.272781,-6.096911,-8.087740,0.191811,-2.654819,2.189340
2026-01-04T15:14:05.228711,-0.248853,-5.714060,-5.637490,0.149051,-2.627941,2.190562
2026-01-04T15:14:05.238711,-0.631705,-5.924628,-6.776473,0.014660,-2.572963,2.241874
2026-01-04T15:14:05.247711,-0.861416,-6.173482,-6.929614,0.041538,-2.552194,2.221105
2026-01-04T15:14:05.257711,-0.961914,-5.785845,-5.355136,0.097738,-2.465451,2.222327
2026-01-04T15:14:05.267711,-1.497906,-5.675775,-6.599404,0.045204,-2.365269,2.234544
2026-01-04T15:14:05.276711,-1.737189,-5.546562,-6.058626,0.054977,-2.320065,2.188118
2026-01-04T15:14:05.286711,-1.866401,-5.369493,-4.599005,0.041538,-2.233322,2.163684
2026-01-04T15:14:05.295711,-2.402393,-5.527420,-6.833901,-0.032986,-2.172236,2.161240
2026-01-04T15:14:05.305711,-2.531606,-5.297709,-5.982056,0.015882,-2.185675,2.090380
2026-01-04T15:14:05.315711,-2.641676,-4.804787,-5.752345,-0.007330,-2.162462,2.070832
2026-01-04T15:14:05.324711,-2.809173,-4.613361,-5.996413,-0.149051,-2.189340,2.017076
2026-01-04T15:14:05.334711,-2.297109,-4.814359,-3.038884,-0.202807,-2.202779,1.941329
2026-01-04T15:14:05.344711,-2.498106,-5.312066,-5.173282,-0.248011,-2.100154,1.968207
2026-01-04T15:14:05.353711,-2.727817,-5.718846,-6.364908,-0.194255,-2.043954,1.869247
2026-01-04T15:14:05.363711,-2.665604,-5.326423,-4.201796,0.007330,-1.958433,1.762956
2026-01-04T15:14:05.372711,-3.053241,-4.675575,-4.283152,0.119729,-1.828930,1.734856
2026-01-04T15:14:05.382711,-3.335594,-4.551148,-4.053441,0.119729,-1.761734,1.666440
2026-01-04T15:14:05.392711,-3.718446,-4.441078,-4.819144,0.111177,-1.683544,1.656666
2026-01-04T15:14:05.401711,-4.034298,-4.359722,-4.847858,0.147829,-1.607796,1.589471
2026-01-04T15:14:05.411711,-4.359722,-4.067798,-5.000999,0.184481,-1.543045,1.538158
2026-01-04T15:14:05.420711,-4.469792,-3.737588,-3.732803,0.202807,-1.494176,1.478293
2026-01-04T15:14:05.430711,-4.632504,-3.574876,-4.153940,0.174707,-1.447750,1.462411
2026-01-04T15:14:05.440711,-4.699503,-3.354737,-4.139583,0.180816,-1.390328,1.431867
2026-01-04T15:14:05.449711,-4.876572,-3.110669,-4.115654,0.166155,-1.304807,1.402546
2026-01-04T15:14:05.459711,-4.924428,-2.885744,-2.526820,0.156381,-1.193630,1.330464
2026-01-04T15:14:05.469711,-5.221138,-2.818745,-2.861815,0.156381,-1.048244,1.317025
2026-01-04T15:14:05.478711,-5.632704,-2.833101,-3.321237,0.199142,-0.911410,1.292590
2026-01-04T15:14:05.488711,-6.111268,-2.555534,-3.723231,0.282219,-0.789237,1.259603
2026-01-04T15:14:05.497711,-6.551548,-1.942971,-3.732803,0.301767,-0.708603,1.219286
2026-01-04T15:14:05.507711,-6.805187,-1.794616,-2.718246,0.199142,-0.675616,1.175304
2026-01-04T15:14:05.517711,-6.958328,-1.986042,-2.493321,0.100181,-0.676838,1.152091
2026-01-04T15:14:05.526711,-6.991827,-2.201396,-2.488535,0.098960,-0.636521,1.112996
2026-01-04T15:14:05.536711,-7.154539,-2.344966,-2.665604,0.153938,-0.548556,1.054353
2026-01-04T15:14:05.545711,-7.403393,-2.225325,-2.809173,0.249232,-0.469144,0.977384
2026-01-04T15:14:05.555711,-7.623532,-1.789831,-2.402393,0.334754,-0.409279,0.902858
2026-01-04T15:14:05.565711,-7.743173,-1.296909,-2.780459,0.350636,-0.366519,0.844215
2026-01-04T15:14:05.574711,-7.714460,-1.076770,-2.225325,0.301767,-0.327423,0.766024
2026-01-04T15:14:05.584711,-7.288537,-1.272981,-2.287538,0.233350,-0.272445,0.730594
2026-01-04T15:14:05.594711,-7.178467,-1.320838,-1.842473,0.222354,-0.162490,0.788015
2026-01-04T15:14:05.603711,-6.963113,-2.512463,-2.053041,0.240680,-0.019547,0.615752
2026-01-04T15:14:05.613711,-7.834101,-1.215553,-2.388036,0.249232,0.125838,0.442266
2026-01-04T15:14:05.622711,-8.274380,-0.942772,-1.976471,0.301767,0.221133,0.299323
2026-01-04T15:14:05.632711,-8.690731,-0.564706,-1.942971,0.300545,0.238237,0.199142
2026-01-04T15:14:05.642711,-8.805587,-0.330209,-2.110469,0.230907,0.215024,0.100181
2026-01-04T15:14:05.651711,-8.609375,-0.267996,-2.005185,0.127059,0.183259,-0.012217
2026-01-04T15:14:05.661711,-8.231309,-0.387637,-2.215753,-0.028099,0.175929,-0.114842
2026-01-04T15:14:05.670711,-7.724031,-0.722632,-2.517249,-0.177150,0.228463,-0.208915
2026-01-04T15:14:05.680711,-7.412964,-1.225125,-2.048256,-0.254119,0.346971,-0.318871
2026-01-04T15:14:05.690711,-7.192824,-1.785045,-2.043470,-0.293215,0.483805,-0.425162
2026-01-04T15:14:05.699711,-7.130611,-2.220539,-2.292324,-0.230907,0.626747,-0.514348
2026-01-04T15:14:05.709711,-7.274180,-2.230110,-1.832902,-0.095294,0.753807,-0.614530
2026-01-04T15:14:05.719711,-7.446463,-1.770688,-1.493121,0.046425,0.860098,-0.718377
2026-01-04T15:14:05.728711,-7.494320,-1.306481,-1.976471,0.100181,0.930958,-0.789237
2026-01-04T15:14:05.738711,-7.432106,-1.105484,-2.818745,0.000000,0.955393,-0.862541
2026-01-04T15:14:05.747711,-6.958328,-1.249053,-2.325823,-0.156381,0.951727,-0.948062
2026-01-04T15:14:05.757711,-6.197410,-1.804188,-2.120040,-0.255341,0.990823,-1.007927
2026-01-04T15:14:05.767711,-5.642275,-2.493321,-3.833301,-0.298102,1.130100,-1.031140
2026-01-04T15:14:05.776711,-5.422136,-2.775674,-4.206582,-0.238237,1.309694,-1.117883
2026-01-04T15:14:05.786711,-5.321637,-2.766102,-3.120240,-0.130725,1.491732,-1.203404
2026-01-04T15:14:05.795711,-5.685346,-2.679961,-4.862215,-0.095294,1.659109,-1.222951
2026-01-04T15:14:05.805711,-6.020341,-2.526820,-4.498506,-0.114842,1.722639,-1.321912
2026-01-04T15:14:05.815711,-6.001199,-2.440679,-2.790031,-0.208915,1.684765,-1.387885
2026-01-04T15:14:05.824711,-5.570491,-2.861815,-3.364308,-0.348193,1.607796,-1.400102
2026-01-04T15:14:05.834711,-4.790430,-3.732803,-2.234896,-0.406836,1.554040,-1.464854
2026-01-04T15:14:05.844711,-3.972085,-4.417150,-2.718246,-0.266337,1.653000,-1.488067
2026-01-04T15:14:05.853711,-3.972085,-4.484149,-5.986842,-0.008552,1.870468,-1.510058
2026-01-04T15:14:05.863711,-4.024727,-3.804587,-4.436293,0.193033,1.996307,-1.668883
2026-01-04T15:14:05.872711,-4.110869,-3.062812,-3.866801,0.243124,2.114815,-1.716530
2026-01-04T15:14:05.882711,-4.455435,-2.976671,-7.221538,0.072082,2.189340,-1.687209
2026-01-04T15:14:05.892711,-4.450650,-2.799602,-7.642675,-0.188146,2.101375,-1.753182
2026-01-04T15:14:05.901711,-3.924229,-3.005385,-5.661418,-0.535117,1.992641,-1.798386
2026-01-04T15:14:05.911711,-3.364308,-4.331008,-5.785845,-0.858876,1.985311,-1.786169
2026-01-04T15:14:05.920711,-3.029313,-5.747559,-6.049055,-0.825889,2.024406,-1.825264
2026-01-04T15:14:05.930711,-3.302095,-5.288137,-3.120240,-0.552222,2.057393,-2.158797
2026-01-04T15:14:05.940711,-1.177268,-7.044469,-2.971885,-0.059864,2.284635,-2.004859
2026-01-04T15:14:05.949711,-2.220539,-6.326622,-7.561319,0.465479,2.521651,-1.901012
2026-01-04T15:14:05.959711,-2.364108,-4.742574,-8.226524,0.722042,2.554637,-2.003637
2026-01-04T15:14:05.969711,-2.048256,-2.991028,-6.360122,0.507018,2.527759,-2.021963
2026-01-04T15:14:05.978711,-1.828116,-2.555534,-7.010970,-0.030543,2.508212,-1.987755
2026-01-04T15:14:05.988711,-1.555334,-3.536591,-7.992027,-0.569326,2.486221,-1.979202
2026-01-04T15:14:05.997711,-1.134197,-5.158925,-7.590033,-0.900415,2.505768,-1.947437
2026-01-04T15:14:06.007711,-0.693918,-6.829115,-7.010970,-0.896749,2.544864,-1.946216
2026-01-04T15:14:06.017711,-0.291924,-7.652246,-6.556333,-0.514348,2.571742,-1.984089
2026-01-04T15:14:06.026711,0.095712,-7.412964,-6.283552,-0.023212,2.645045,-1.995085
2026-01-04T15:14:06.036711,0.540777,-6.690331,-6.159125,0.295658,2.722014,-2.032959
2026-01-04T15:14:06.045711,0.909272,-5.948556,-6.503691,0.397062,2.805092,-2.024406
2026-01-04T15:14:06.055711,0.894915,-4.977071,-10.155139,0.338419,2.860070,-1.974316
2026-01-04T15:14:06.065711,0.976271,-4.206582,-10.246066,0.122173,2.847853,-2.041511
2026-01-04T15:14:06.074711,1.119840,-4.364508,-8.920442,-0.299323,2.946813,-1.986533
2026-01-04T15:14:06.084711,0.784845,-5.436492,-9.212367,-0.575434,3.001791,-1.955990
2026-01-04T15:14:06.094711,1.138983,-6.307480,-7.312465,-0.577878,2.857626,-1.947437
2026-01-04T15:14:06.103711,1.555334,-7.231109,-7.250252,-0.466700,2.790431,-1.853364
2026-01-04T15:14:06.113711,1.957328,-7.724031,-8.700302,-0.124616,2.802649,-1.859473
2026-01-04T15:14:06.122711,2.679961,-6.915257,-7.925028,0.282219,2.786766,-1.903455
2026-01-04T15:14:06.132711,2.828316,-5.785845,-10.858628,0.376292,2.816088,-1.865582
2026-01-04T15:14:06.142711,3.192025,-5.029713,-10.662417,0.190589,2.801427,-1.925446
2026-01-04T15:14:06.151711,3.780659,-5.197210,-7.676174,-0.284663,2.781879,-1.885129
2026-01-04T15:14:06.161711,3.976871,-6.891329,-8.417949,-0.641408,2.797762,-1.810604
2026-01-04T15:14:06.170711,3.991228,-8.408378,-9.102297,-0.477696,2.818531,-1.820378
2026-01-04T15:14:06.180711,4.091726,-8.705088,-8.226524,-0.029321,2.860070,-1.835038
2026-01-04T15:14:06.190711,3.957728,-8.073383,-9.485148,0.492357,2.853961,-1.874134
2026-01-04T15:14:06.199711,4.216153,-6.532405,-8.671589,0.811228,2.723236,-1.902233
2026-01-04T15:14:06.209711,4.895715,-5.422136,-7.556533,0.708603,2.631606,-1.879021
2026-01-04T15:14:06.219711,5.187639,-5.235495,-10.207781,0.500909,2.612059,-1.865582
2026-01-04T15:14:06.228711,5.991627,-5.245067,-8.580661,0.172263,2.553416,-1.859473
2026-01-04T15:14:06.238711,6.384050,-6.680760,-8.422735,-0.277332,2.549750,-1.786169
2026-01-04T15:14:06.247711,6.451049,-8.121239,-10.198209,-0.251676,2.531425,-1.775174
2026-01-04T15:14:06.257711,6.958328,-8.126025,-7.240681,0.085521,2.474003,-1.744630
2026-01-04T15:14:06.267711,7.164110,-7.451249,-7.685746,0.355523,2.434908,-1.694539
2026-01-04T15:14:06.276711,7.369893,-6.183053,-8.437092,0.635299,2.349387,-1.672548
2026-01-04T15:14:06.286711,8.087740,-4.991427,-5.680560,0.543669,2.247983,-1.572366
2026-01-04T15:14:06.295711,8.374879,-5.211567,-6.977470,0.282219,2.230879,-1.489289
2026-01-04T15:14:06.305711,8.470592,-5.824130,-8.810372,0.174707,2.251648,-1.461189
2026-01-04T15:14:06.315711,8.657232,-6.608976,-7.245466,0.023212,2.272418,-1.422093
2026-01-04T15:14:06.324711,8.183453,-7.216752,-9.403792,0.157603,2.268753,-1.413541
2026-01-04T15:14:06.334711,8.078169,-6.326622,-8.489734,0.441044,2.151466,-1.396437
2026-01-04T15:14:06.344711,8.389236,-5.704489,-4.747360,0.375071,2.006081,-1.310916
2026-01-04T15:14:06.353711,8.312665,-6.015556,-6.766902,0.271224,1.883908,-1.222951
2026-01-04T15:14:06.363711,8.532805,-6.077769,-7.298108,0.306654,1.732413,-1.164308
2026-01-04T15:14:06.372711,8.997012,-6.077769,-4.914857,0.240680,1.645670,-1.077566
2026-01-04T15:14:06.382711,9.145367,-6.221338,-4.895715,0.360410,1.657887,-1.036027
2026-01-04T15:14:06.392711,8.848657,-5.761916,-5.268995,0.520457,1.745852,-1.001818
2026-01-04T15:14:06.401711,8.374879,-5.460421,-5.656632,0.527787,1.827708,-0.973718
2026-01-04T15:14:06.411711,7.628318,-5.048855,-7.374679,0.588873,1.813047,-0.960279
2026-01-04T15:14:06.420711,7.331608,-4.240081,-7.307680,0.560774,1.695761,-0.943175
2026-01-04T15:14:06.430711,7.307680,-3.905086,-6.240481,0.295658,1.538158,-0.873537
2026-01-04T15:14:06.440711,7.628318,-4.010370,-6.613761,0.059864,1.308473,-0.779463
2026-01-04T15:14:06.449711,8.269594,-4.182653,-5.393422,-0.106290,1.093448,-0.682947
2026-01-04T15:14:06.459711,8.977870,-4.565505,-4.512863,-0.222354,0.993266,-0.565661
2026-01-04T15:14:06.469711,9.226723,-4.742574,-4.713860,-0.169820,1.001818,-0.494800
2026-01-04T15:14:06.478711,9.131011,-4.498506,-4.551148,-0.102625,1.084896,-0.422718
2026-01-04T15:14:06.488711,8.551947,-4.302295,-3.914657,-0.152716,1.198517,-0.378736
2026-01-04T15:14:06.497711,7.795816,-4.637290,-4.101297,-0.278554,1.231504,-0.334754
2026-01-04T15:14:06.507711,7.183253,-5.340780,-4.584648,-0.326201,1.112996,-0.309097
2026-01-04T15:14:06.517711,6.896114,-5.623133,-5.393422,-0.190589,0.918741,-0.296880
2026-01-04T15:14:06.526711,7.058826,-5.201996,-5.709274,-0.023212,0.698829,-0.282219
2026-01-04T15:14:06.536711,7.456035,-4.340580,-5.010570,0.047647,0.492357,-0.266337
2026-01-04T15:14:06.545711,8.092526,-3.847658,-4.718646,-0.003665,0.351858,-0.212581
2026-01-04T15:14:06.555711,8.504091,-3.689732,-4.843072,-0.108733,0.285884,-0.149051
2026-01-04T15:14:06.565711,8.671589,-3.823730,-4.996213,-0.254119,0.295658,-0.080634
2026-01-04T15:14:06.574711,8.556733,-4.465006,-5.139782,-0.389731,0.354301,-0.026878
2026-01-04T15:14:06.584711,8.044669,-4.890929,-5.288137,-0.381179,0.409279,0.012217
2026-01-04T15:14:06.594711,7.417750,-4.776073,-5.383850,-0.312762,0.394618,0.050090
2026-01-04T15:14:06.603711,6.967899,-5.067998,-6.226124,-0.421496,0.245567,0.119729
2026-01-04T15:14:06.613711,6.790830,-5.733202,-5.465206,-0.427605,0.021991,0.136833
2026-01-04T15:14:06.622711,6.829115,-5.714060,-4.929214,-0.169820,-0.171042,0.163711
2026-01-04T15:14:06.632711,7.101897,-5.814558,-5.134997,-0.094073,-0.340862,0.183259
2026-01-04T15:14:06.642711,7.484749,-6.087340,-4.354937,0.106290,-0.450818,0.175929
2026-01-04T15:14:06.651711,7.819744,-5.182853,-5.063212,0.425162,-0.507018,0.179594
2026-01-04T15:14:06.661711,8.097311,-3.890729,-4.862215,0.505796,-0.516791,0.174707
2026-01-04T15:14:06.670711,8.293523,-3.072384,-4.302295,0.338419,-0.476474,0.226020
2026-01-04T15:14:06.680711,8.178667,-3.302095,-4.565505,0.094073,-0.454483,0.271224
2026-01-04T15:14:06.690711,7.934599,-4.082155,-4.594219,-0.072082,-0.471587,0.302989
2026-01-04T15:14:06.699711,7.738388,-4.929214,-4.675575,-0.072082,-0.532674,0.321315
2026-01-04T15:14:06.709711,7.503891,-5.446064,-4.843072,0.069638,-0.609643,0.309097
2026-01-04T15:14:06.719711,7.293323,-5.771488,-5.139782,0.263893,-0.690277,0.288328
2026-01-04T15:14:06.728711,7.298108,-5.584847,-4.895715,0.456927,-0.803898,0.266337
2026-01-04T15:14:06.738711,7.652246,-5.034498,-4.445864,0.615752,-0.928514,0.266337
2026-01-04T15:14:06.747711,8.035098,-4.173082,-4.656432,0.669508,-1.012814,0.289550
2026-01-04T15:14:06.757711,8.504091,-3.488735,-4.761716,0.575434,-1.025031,0.312762
2026-01-04T15:14:06.767711,8.772087,-3.364308,-4.709074,0.382401,-0.979827,0.356745
2026-01-04T15:14:06.776711,8.662017,-3.436093,-5.441278,0.246789,-0.917519,0.414166
2026-01-04T15:14:06.786711,8.374879,-3.335594,-5.436492,0.193033,-0.866206,0.448374
2026-01-04T15:14:06.795711,7.881957,-3.416950,-5.560919,0.057421,-0.836885,0.492357
2026-01-04T15:14:06.805711,7.398607,-3.933800,-5.661418,-0.178372,-0.889419,0.546113
2026-01-04T15:14:06.815711,7.226324,-4.685146,-4.876572,-0.339641,-1.059240,0.585208
2026-01-04T15:14:06.824711,7.412964,-5.474778,-4.694717,-0.371405,-1.275486,0.631634
2026-01-04T15:14:06.834711,7.824529,-6.288337,-4.900500,-0.289550,-1.430646,0.642630
2026-01-04T15:14:06.844711,8.073383,-6.604190,-5.321637,-0.076969,-1.479515,0.643851
2026-01-04T15:14:06.853711,8.197810,-6.345765,-5.910271,0.180816,-1.478293,0.653625
2026-01-04T15:14:06.863711,8.116454,-5.603990,-6.288337,0.377514,-1.469741,0.686612
2026-01-04T15:14:06.872711,7.953742,-4.608576,-6.451049,0.434935,-1.480737,0.750142
2026-01-04T15:14:06.882711,7.757530,-3.981656,-6.881757,0.273667,-1.533271,0.839328
2026-01-04T15:14:06.892711,7.408178,-4.153940,-7.408178,-0.008552,-1.598023,0.904080
2026-01-04T15:14:06.901711,7.192824,-4.823930,-7.054041,-0.245567,-1.671326,0.961501
2026-01-04T15:14:06.911711,7.010970,-5.809773,-6.819544,-0.367740,-1.787391,1.028696
2026-01-04T15:14:06.920711,6.948756,-6.604190,-7.326822,-0.359188,-1.955990,1.066570
2026-01-04T15:14:06.930711,7.221538,-6.996613,-7.082754,-0.235793,-2.136806,1.098335
2026-01-04T15:14:06.940711,7.551748,-6.747759,-6.747759,-0.069638,-2.251648,1.145982
2026-01-04T15:14:06.949711,7.680960,-6.412764,-7.393821,0.040317,-2.267531,1.185078
2026-01-04T15:14:06.959711,7.609175,-6.154339,-7.963313,0.054977,-2.218662,1.224173
2026-01-04T15:14:06.969711,7.255038,-6.077769,-7.972884,0.023212,-2.172236,1.304807
2026-01-04T15:14:06.978711,6.786044,-5.943771,-8.317451,0.015882,-2.175901,1.384220
2026-01-04T15:14:06.988711,6.422335,-5.680560,-8.374879,-0.015882,-2.211331,1.468519
2026-01-04T15:14:06.997711,6.116054,-5.704489,-7.800601,-0.169820,-2.260200,1.550375
2026-01-04T15:14:07.007711,5.752345,-6.307480,-8.264809,-0.366519,-2.321287,1.617570
2026-01-04T15:14:07.017711,5.455635,-7.001398,-9.116654,-0.488692,-2.436130,1.663996
2026-01-04T15:14:07.026711,5.393422,-7.661817,-8.657232,-0.499687,-2.565633,1.683544
2026-01-04T15:14:07.036711,5.307280,-8.164310,-9.040083,-0.419053,-2.660928,1.693318
2026-01-04T15:14:07.045711,5.173282,-8.327022,-9.705288,-0.268780,-2.769662,1.690874
2026-01-04T15:14:07.055711,5.163711,-8.202595,-9.437292,-0.075747,-2.862513,1.722639
2026-01-04T15:14:07.065711,5.221138,-7.843672,-8.609375,0.087964,-2.938261,1.745852
2026-01-04T15:14:07.074711,5.407779,-7.417750,-8.236095,0.215024,-2.971247,1.794721
2026-01-04T15:14:07.084711,5.020141,-6.963113,-10.159924,0.272445,-2.945591,1.882686
2026-01-04T15:14:07.094711,4.919643,-6.494120,-8.752945,0.248011,-2.907717,1.912007
2026-01-04T15:14:07.103711,4.426721,-6.417550,-8.312665,0.085521,-2.827083,2.001194
2026-01-04T15:14:07.113711,3.780659,-6.982256,-9.054440,-0.067195,-2.786766,2.029293
2026-01-04T15:14:07.122711,3.163311,-7.604390,-8.977870,-0.125838,-2.790431,2.057393
2026-01-04T15:14:07.132711,2.526820,-7.752745,-9.824929,-0.079412,-2.807536,2.087936
2026-01-04T15:14:07.142711,2.110469,-7.355536,-9.868000,0.024434,-2.889391,2.072054
2026-01-04T15:14:07.151711,1.837687,-6.905686,-9.121439,-0.023212,-2.981021,2.091602
2026-01-04T15:14:07.161711,1.708475,-7.125825,-9.087940,-0.142942,-3.055547,2.119701
2026-01-04T15:14:07.170711,1.684547,-7.441678,-8.829515,-0.140498,-3.145955,2.129475
2026-01-04T15:14:07.180711,1.761117,-7.561319,-7.647461,-0.040317,-3.147177,2.142914
2026-01-04T15:14:07.190711,1.454836,-7.456035,-8.398807,0.123394,-3.062877,2.163684
2026-01-04T15:14:07.199711,0.981057,-6.570690,-8.992227,0.289550,-2.996904,2.193005
2026-01-04T15:14:07.209711,0.775274,-5.694917,-6.977470,0.288328,-2.948035,2.206444
2026-01-04T15:14:07.219711,0.282353,-5.599204,-7.049255,0.116064,-2.873509,2.265087
2026-01-04T15:14:07.228711,-0.196211,-5.895914,-7.326822,0.052534,-2.816088,2.274861
2026-01-04T15:14:07.238711,-0.660419,-5.843272,-7.034898,0.047647,-2.745227,2.291965
2026-01-04T15:14:07.247711,-1.105484,-5.910271,-7.403393,-0.015882,-2.700023,2.291965
2026-01-04T15:14:07.257711,-1.473978,-6.063412,-7.628318,-0.046425,-2.719571,2.285857
2026-01-04T15:14:07.267711,-1.603191,-5.910271,-6.666403,-0.014660,-2.761110,2.268753
2026-01-04T15:14:07.276711,-1.813759,-5.656632,-7.121040,0.013439,-2.752558,2.272418
2026-01-04T15:14:07.286711,-2.105683,-5.412564,-8.599804,-0.009773,-2.768440,2.266309
2026-01-04T15:14:07.295711,-1.718046,-5.010570,-5.814558,-0.065973,-2.818531,2.174679
2026-01-04T15:14:07.305711,-1.703689,-4.981856,-5.575276,-0.151494,-2.753779,2.178344
2026-01-04T15:14:07.315711,-1.641476,-5.182853,-5.063212,-0.103847,-2.676810,2.106262
2026-01-04T15:14:07.324711,-1.746760,-4.948357,-4.192225,0.043982,-2.546085,2.048841
2026-01-04T15:14:07.334711,-2.239681,-4.776073,-5.379065,0.109955,-2.394591,2.023185
2026-01-04T15:14:07.344711,-2.550748,-4.560719,-5.388636,0.169820,-2.296852,1.942551
2026-01-04T15:14:07.353711,-2.924029,-4.034298,-5.752345,0.197920,-2.216218,1.910786
2026-01-04T15:14:07.363711,-3.172882,-3.699303,-5.714060,0.113620,-2.174679,1.865582
2026-01-04T15:14:07.372711,-3.287738,-3.751945,-5.292923,-0.006108,-2.172236,1.831373
2026-01-04T15:14:07.382711,-3.340380,-3.852444,-5.053641,-0.084299,-2.147801,1.814269
2026-01-04T15:14:07.392711,-3.455235,-4.149154,-5.723631,-0.101403,-2.086715,1.784947
2026-01-04T15:14:07.401711,-3.354737,-3.929014,-4.637290,-0.017104,-1.998750,1.726304
2026-01-04T15:14:07.411711,-3.469592,-3.450450,-4.484149,0.030543,-1.886351,1.705535
2026-01-04T15:14:07.420711,-3.756731,-3.244667,-5.355136,-0.039095,-1.794721,1.693318
2026-01-04T15:14:07.430711,-3.761517,-3.172882,-3.464807,-0.058643,-1.716530,1.618792
2026-01-04T15:14:07.440711,-4.086941,-3.163311,-3.728017,-0.030543,-1.569923,1.599244
2026-01-04T15:14:07.449711,-4.584648,-3.292523,-4.819144,-0.042760,-1.457524,1.551597
2026-01-04T15:14:07.459711,-4.785645,-3.268595,-3.651447,-0.018325,-1.423315,1.475850
2026-01-04T15:14:07.469711,-5.082355,-3.168097,-4.680361,0.030543,-1.378111,1.468519
2026-01-04T15:14:07.478711,-5.278566,-3.053241,-4.857429,0.050090,-1.353677,1.420872
2026-01-04T15:14:07.488711,-5.259424,-2.598605,-3.268595,0.095294,-1.324355,1.351233
2026-01-04T15:14:07.497711,-5.489135,-2.081755,-4.460221,0.123394,-1.263269,1.352455
2026-01-04T15:14:07.507711,-5.379065,-1.866401,-2.679961,0.062308,-1.191186,1.268155
2026-01-04T15:14:07.517711,-5.527420,-2.306680,-3.885943,-0.056199,-1.033583,1.242499
2026-01-04T15:14:07.526711,-5.848058,-2.746960,-3.818944,-0.041538,-0.877202,1.130100
2026-01-04T15:14:07.536711,-6.202196,-2.823530,-2.641676,0.051312,-0.735481,1.026253
2026-01-04T15:14:07.545711,-6.762116,-2.727817,-3.062812,0.194255,-0.615752,0.957836
2026-01-04T15:14:07.555711,-7.350751,-2.158325,-3.493520,0.371405,-0.579100,0.867428
2026-01-04T15:14:07.565711,-7.542176,-1.277767,-2.703889,0.432492,-0.587652,0.773355
2026-01-04T15:14:07.574711,-7.642675,-0.942772,-3.732803,0.345749,-0.592539,0.748920
2026-01-04T15:14:07.584711,-7.527819,-0.933200,-2.895315,0.230907,-0.594982,0.657290
2026-01-04T15:14:07.594711,-7.422535,-1.172483,-3.067598,0.156381,-0.531452,0.616973
2026-01-04T15:14:07.603711,-7.456035,-1.301695,-2.746960,0.199142,-0.405614,0.571769
2026-01-04T15:14:07.613711,-7.762316,-1.196411,-2.746960,0.322536,-0.248011,0.504574
2026-01-04T15:14:07.622711,-8.169096,-0.866201,-3.058027,0.403170,-0.120951,0.450818
2026-01-04T15:14:07.632711,-8.508877,-0.454636,-2.402393,0.395840,-0.063529,0.384845
2026-01-04T15:14:07.642711,-7.590033,-1.048056,-0.741775,0.454483,-0.007330,0.411723
2026-01-04T15:14:07.651711,-9.518648,0.301495,-1.517049,0.318871,-0.050090,0.289550
2026-01-04T15:14:07.661711,-8.714659,-0.263210,-2.402393,0.249232,-0.034208,0.174707
2026-01-04T15:14:07.670711,-8.657232,-0.267996,-1.785045,0.256563,0.056199,0.087964
2026-01-04T15:14:07.680711,-8.623732,-0.315852,-2.723032,0.226020,0.130725,0.019547
2026-01-04T15:14:07.690711,-8.523234,-0.473778,-3.168097,0.149051,0.158824,-0.061086
2026-01-04T15:14:07.699711,-8.274380,-0.550349,-2.297109,0.086742,0.196698,-0.142942
2026-01-04T15:14:07.709711,-7.972884,-0.837487,-2.349751,0.036651,0.276111,-0.213802
2026-01-04T15:14:07.719711,-7.680960,-1.172483,-2.713460,0.015882,0.389731,-0.307876
2026-01-04T15:14:07.728711,-7.724031,-1.282552,-2.153540,0.009773,0.526565,-0.425162
2026-01-04T15:14:07.738711,-7.920242,-1.282552,-1.282552,0.004886,0.640186,-0.553443
2026-01-04T15:14:07.747711,-8.054240,-1.258624,-1.282552,0.040317,0.693942,-0.662177
2026-01-04T15:14:07.757711,-8.020741,-1.143769,-1.454836,0.025656,0.715933,-0.769690
2026-01-04T15:14:07.767711,-7.590033,-1.282552,-1.641476,-0.028099,0.724486,-0.875980
2026-01-04T15:14:07.776711,-7.121040,-1.469193,-2.957528,-0.042760,0.763581,-0.960279
2026-01-04T15:14:07.786711,-6.680760,-1.540977,-2.297109,-0.026878,0.847880,-1.092226
2026-01-04T15:14:07.795711,-6.254838,-1.665404,-2.818745,-0.056199,0.990823,-1.158200
2026-01-04T15:14:07.805711,-5.929414,-2.124826,-3.407379,-0.108733,1.131322,-1.230282
2026-01-04T15:14:07.815711,-5.795416,-2.469392,-2.665604,-0.070860,1.270599,-1.317025
2026-01-04T15:14:07.824711,-5.714060,-2.713460,-3.493520,0.004886,1.420872,-1.357342
2026-01-04T15:14:07.834711,-5.977270,-2.636890,-4.249652,0.081855,1.535714,-1.419650
2026-01-04T15:14:07.844711,-6.168696,-1.962114,-2.641676,0.152716,1.589471,-1.516167
2026-01-04T15:14:07.853711,-6.072983,-1.502692,-2.043470,0.109955,1.605353,-1.578475
2026-01-04T15:14:07.863711,-5.747559,-1.665404,-3.168097,-0.042760,1.585805,-1.599244
2026-01-04T15:14:07.872711,-4.972285,-2.206182,-2.914457,-0.186924,1.569923,-1.650557
2026-01-04T15:14:07.882711,-4.144368,-2.876172,-2.636890,-0.221133,1.668883,-1.705535
2026-01-04T15:14:07.892711,-4.134797,-3.493520,-6.044269,-0.150272,1.886351,-1.692096
2026-01-04T15:14:07.901711,-4.201796,-3.555734,-5.857629,-0.064751,2.041511,-1.781282
2026-01-04T15:14:07.911711,-4.345365,-3.340380,-4.278366,-0.031764,2.160019,-1.821599
2026-01-04T15:14:07.920711,-4.503292,-3.345165,-5.685346,-0.102625,2.206444,-1.788613
2026-01-04T15:14:07.930711,-4.345365,-3.694518,-4.627718,-0.136833,2.166127,-1.831373
2026-01-04T15:14:07.940711,-4.024727,-3.914657,-3.857230,-0.058643,2.214996,-1.841147
2026-01-04T15:14:07.949711,-3.689732,-4.398007,-3.546163,0.034208,2.293187,-1.896125
2026-01-04T15:14:07.959711,-3.359522,-4.632504,-5.312066,0.150272,2.340835,-1.899790
2026-01-04T15:14:07.969711,-3.340380,-4.225724,-7.805387,0.230907,2.340835,-1.897347
2026-01-04T15:14:07.978711,-2.967100,-3.455235,-6.795616,0.152716,2.332282,-1.974316
2026-01-04T15:14:07.988711,-2.656033,-3.440878,-5.938985,-0.147829,2.422691,-1.991420
2026-01-04T15:14:07.997711,-2.507678,-4.508077,-6.096911,-0.423940,2.525316,-1.999972
2026-01-04T15:14:08.007711,-2.976671,-4.766502,-4.125226,-0.505796,2.579072,-2.133140
2026-01-04T15:14:08.017711,-2.478964,-6.245266,-6.388836,-0.255341,2.717128,-2.021963
2026-01-04T15:14:08.026711,-2.488535,-6.819544,-9.944570,0.171042,2.745227,-1.997528
2026-01-04T15:14:08.036711,-1.828116,-5.546562,-6.005984,0.458148,2.641380,-2.097710
2026-01-04T15:14:08.045711,-1.564905,-3.996013,-7.484749,0.427605,2.630385,-2.036624
2026-01-04T15:14:08.055711,-1.100698,-3.244667,-9.451649,-0.020769,2.455677,-2.042732
2026-01-04T15:14:08.065711,0.626919,-4.240081,-3.527020,-0.722042,2.291965,-2.040289
2026-01-04T15:14:08.074711,1.325623,-7.054041,-6.106483,-1.100778,2.511877,-1.903455
2026-01-04T15:14:08.084711,1.167697,-9.241080,-10.403992,-0.740368,2.787988,-1.999972
2026-01-04T15:14:08.094711,1.292124,-9.370293,-7.408178,-0.045204,2.990795,-2.109928
2026-01-04T15:14:08.103711,0.612562,-8.202595,-8.915657,0.529009,3.189937,-2.091602
2026-01-04T15:14:08.113711,0.167497,-6.321837,-10.112068,0.908967,3.103194,-2.180788
2026-01-04T15:14:08.122711,0.961914,-4.613361,-4.900500,0.834441,2.895500,-2.155132
2026-01-04T15:14:08.132711,0.799202,-4.819144,-9.791430,0.438601,2.823418,-2.042732
2026-01-04T15:14:08.142711,1.306481,-5.580062,-12.088539,0.175929,2.609615,-2.069610
2026-01-04T15:14:08.151711,2.924029,-6.312266,-6.685546,-0.144164,2.408030,-1.973094
2026-01-04T15:14:08.161711,3.402593,-7.700103,-9.901499,-0.167377,2.447125,-1.858251
2026-01-04T15:14:08.170711,4.278366,-7.944171,-9.738787,0.085521,2.544864,-1.855808
2026-01-04T15:14:08.180711,4.709074,-7.934599,-7.183253,0.112399,2.781879,-1.795943
2026-01-04T15:14:08.190711,4.220939,-7.719245,-9.437292,0.350636,3.043329,-1.811825
2026-01-04T15:14:08.199711,3.795016,-6.216553,-7.657032,0.504574,3.191159,-1.849699
2026-01-04T15:14:08.209711,2.981456,-6.015556,-9.528219,0.151494,3.189937,-1.863138
2026-01-04T15:14:08.219711,3.048455,-6.781259,-9.279366,-0.175929,2.852740,-1.890016
2026-01-04T15:14:08.228711,4.010370,-7.838886,-7.408178,-0.392175,2.474003,-1.846034
2026-01-04T15:14:08.238711,4.752145,-9.087940,-11.380264,-0.295658,2.212553,-1.831373
2026-01-04T15:14:08.247711,6.202196,-8.705088,-10.073783,0.135612,2.009746,-1.813047
2026-01-04T15:14:08.257711,7.274180,-7.523034,-6.766902,0.423940,2.078163,-1.761734
2026-01-04T15:14:08.267711,7.173682,-6.565905,-7.891528,0.598647,2.372600,-1.754404
2026-01-04T15:14:08.276711,6.570690,-5.661418,-7.422535,0.624304,2.654819,-1.723861
2026-01-04T15:14:08.286711,5.613561,-5.278566,-7.575676,0.409279,2.762332,-1.705535
2026-01-04T15:14:08.295711,4.795216,-5.642275,-8.149953,0.197920,2.715906,-1.694539
2026-01-04T15:14:08.305711,4.488935,-6.264409,-8.130811,0.046425,2.543642,-1.690874
2026-01-04T15:14:08.315711,4.613361,-7.015755,-10.025926,0.051312,2.233322,-1.663996
2026-01-04T15:14:08.324711,5.709274,-7.044469,-9.829715,0.149051,1.814269,-1.605353
2026-01-04T15:14:08.334711,7.312465,-6.982256,-7.556533,0.144164,1.530827,-1.480737
2026-01-04T15:14:08.344711,8.178667,-7.111468,-8.532805,0.189368,1.523497,-1.365894
2026-01-04T15:14:08.353711,5.958128,-6.460621,-6.254838,0.320093,1.650557,-1.304807
2026-01-04T15:14:08.363711,8.279166,-6.063412,-4.809573,0.421496,1.953546,-1.284038
2026-01-04T15:14:08.372711,8.504091,-5.953342,-5.680560,0.399505,2.111149,-1.297477
2026-01-04T15:14:08.382711,7.417750,-5.857629,-6.206981,0.295658,2.009746,-1.286481
2026-01-04T15:14:08.392711,6.671189,-6.092126,-5.474778,0.229685,1.813047,-1.290147
2026-01-04T15:14:08.401711,6.958328,-6.297909,-6.800401,0.337197,1.670105,-1.315803
2026-01-04T15:14:08.411711,7.255038,-6.072983,-8.044669,0.499687,1.601688,-1.336572
2026-01-04T15:14:08.420711,7.776673,-5.522634,-7.456035,0.577878,1.551597,-1.326799
2026-01-04T15:14:08.430711,7.948956,-4.981856,-8.508877,0.513126,1.525941,-1.258382
2026-01-04T15:14:08.440711,8.173882,-4.852644,-7.642675,0.342084,1.516167,-1.199739
2026-01-04T15:14:08.449711,8.260023,-5.379065,-4.819144,0.117286,1.547932,-1.106887
2026-01-04T15:14:08.459711,7.872386,-6.503691,-4.991427,0.059864,1.532049,-1.018923
2026-01-04T15:14:08.469711,7.465606,-6.695117,-5.441278,0.337197,1.424537,-0.967610
2026-01-04T15:14:08.478711,7.570890,-5.718846,-3.527020,0.689055,1.284038,-0.985936
2026-01-04T15:14:08.488711,7.743173,-4.584648,-3.268595,0.795346,1.155756,-0.968832
2026-01-04T15:14:08.497711,7.996813,-3.996013,-4.220939,0.702494,1.006705,-0.926071
2026-01-04T15:14:08.507711,8.408378,-3.948157,-4.565505,0.502131,0.895528,-0.866206
2026-01-04T15:14:08.517711,8.748159,-4.340580,-5.556134,0.337197,0.863763,-0.811228
2026-01-04T15:14:08.526711,8.796015,-4.555934,-6.503691,0.288328,0.895528,-0.747698
2026-01-04T15:14:08.536711,8.748159,-4.417150,-6.642475,0.277332,0.944397,-0.690277
2026-01-04T15:14:08.545711,8.551947,-4.187439,-5.465206,0.177150,0.978605,-0.631634
2026-01-04T15:14:08.555711,8.197810,-4.345365,-4.426721,0.026878,0.961501,-0.563217
2026-01-04T15:14:08.565711,7.834101,-4.833501,-3.881158,-0.085521,0.874758,-0.491135
2026-01-04T15:14:08.574711,7.575676,-5.398207,-3.244667,-0.054977,0.751364,-0.464257
2026-01-04T15:14:08.584711,7.412964,-5.752345,-3.675375,0.067195,0.643851,-0.439822
2026-01-04T15:14:08.594711,7.403393,-5.584847,-4.661218,0.257785,0.493579,-0.410501
2026-01-04T15:14:08.603711,7.633104,-4.785645,-4.350151,0.447153,0.327423,-0.377514
2026-01-04T15:14:08.613711,7.977670,-3.972085,-4.345365,0.426383,0.232128,-0.329867
2026-01-04T15:14:08.622711,8.221738,-3.957728,-5.096712,0.241902,0.204028,-0.280997
2026-01-04T15:14:08.632711,8.355736,-4.374079,-5.699703,0.043982,0.199142,-0.230907
2026-01-04T15:14:08.642711,8.398807,-4.886143,-5.426921,-0.081855,0.206472,-0.197920
2026-01-04T15:14:08.651711,8.250452,-5.187639,-4.704289,-0.047647,0.256563,-0.174707
2026-01-04T15:14:08.661711,7.872386,-4.895715,-4.259224,0.047647,0.294436,-0.140498
2026-01-04T15:14:08.670711,7.341179,-4.632504,-4.608576,0.074525,0.237015,-0.094073
2026-01-04T15:14:08.680711,7.125825,-4.436293,-3.986442,0.036651,0.106290,-0.043982
2026-01-04T15:14:08.690711,6.982256,-4.718646,-3.981656,-0.075747,-0.065973,0.017104
2026-01-04T15:14:08.699711,7.116254,-5.187639,-4.670789,-0.111177,-0.268780,0.068416
2026-01-04T15:14:08.709711,7.465606,-5.513063,-4.867001,-0.065973,-0.447153,0.111177
2026-01-04T15:14:08.719711,8.006384,-5.642275,-5.388636,0.006108,-0.575434,0.144164
2026-01-04T15:14:08.728711,8.417949,-5.455635,-6.130411,0.125838,-0.634077,0.191811
2026-01-04T15:14:08.738711,8.733802,-4.704289,-6.259623,0.210137,-0.614530,0.234572
2026-01-04T15:14:08.747711,8.757730,-4.082155,-5.551348,0.091629,-0.551000,0.299323
2026-01-04T15:14:08.757711,8.413164,-4.235296,-5.580062,-0.149051,-0.496022,0.384845
2026-01-04T15:14:08.767711,7.848458,-4.905286,-5.039284,-0.316428,-0.489913,0.450818
2026-01-04T15:14:08.776711,7.140182,-5.527420,-4.977071,-0.377514,-0.588873,0.519235
2026-01-04T15:14:08.786711,6.809973,-6.173482,-4.943571,-0.302989,-0.801455,0.576656
2026-01-04T15:14:08.795711,6.699903,-6.293123,-5.455635,-0.117286,-1.034805,0.612086
2026-01-04T15:14:08.805711,7.015755,-6.058626,-6.340979,0.040317,-1.247386,0.637743
2026-01-04T15:14:08.815711,7.527819,-5.580062,-6.747759,0.133168,-1.428202,0.684168
2026-01-04T15:14:08.824711,8.082954,-5.120640,-6.776473,0.145385,-1.514945,0.746477
2026-01-04T15:14:08.834711,8.274380,-4.871786,-6.675975,0.057421,-1.489289,0.822224
2026-01-04T15:14:08.844711,8.197810,-4.895715,-6.446264,-0.046425,-1.397659,0.896749
2026-01-04T15:14:08.853711,7.814958,-5.101497,-6.235695,-0.178372,-1.347568,0.978605
2026-01-04T15:14:08.863711,7.456035,-5.551348,-5.991627,-0.284663,-1.386663,1.039692
2026-01-04T15:14:08.872711,7.030112,-5.915057,-6.125625,-0.317649,-1.467297,1.083674
2026-01-04T15:14:08.882711,6.814758,-6.388836,-6.872186,-0.315206,-1.621236,1.131322
2026-01-04T15:14:08.892711,7.006184,-6.527620,-6.805187,-0.243124,-1.863138,1.176526
2026-01-04T15:14:08.901711,7.489534,-6.345765,-6.379265,-0.163711,-2.083050,1.227838
2026-01-04T15:14:08.911711,7.905885,-6.417550,-6.766902,-0.144164,-2.195449,1.263269
2026-01-04T15:14:08.920711,8.216952,-6.431907,-7.714460,-0.102625,-2.221105,1.299920
2026-01-04T15:14:08.930711,8.250452,-6.388836,-7.350751,-0.028099,-2.182010,1.337794
2026-01-04T15:14:08.940711,7.939385,-6.034698,-7.030112,0.010995,-2.094045,1.391550
2026-01-04T15:14:08.949711,7.259823,-5.699703,-7.757530,0.023212,-2.036624,1.450193
2026-01-04T15:14:08.959711,6.671189,-5.536991,-7.719245,-0.051312,-2.065945,1.513723
2026-01-04T15:14:08.969711,6.288337,-5.785845,-7.637889,-0.205250,-2.182010,1.583362
2026-01-04T15:14:08.978711,6.288337,-6.288337,-7.853243,-0.331088,-2.346943,1.646892
2026-01-04T15:14:08.988711,6.484549,-6.905686,-8.130811,-0.408057,-2.509433,1.695761
2026-01-04T15:14:08.997711,6.848258,-7.523034,-7.331608,-0.379958,-2.627941,1.710422
2026-01-04T15:14:09.007711,7.068397,-7.886743,-7.910671,-0.254119,-2.657263,1.750739
2026-01-04T15:14:09.017711,7.092326,-7.657032,-8.556733,-0.050090,-2.638937,1.764178
2026-01-04T15:14:09.026711,6.948756,-6.982256,-8.082954,0.116064,-2.572963,1.804495
2026-01-04T15:14:09.036711,6.455835,-6.283552,-8.484948,0.069638,-2.526538,1.859473
2026-01-04T15:14:09.045711,6.015556,-6.273980,-8.188238,-0.079412,-2.524094,1.905899
2026-01-04T15:14:09.055711,5.560919,-6.781259,-8.068597,-0.204028,-2.546085,1.958433
2026-01-04T15:14:09.065711,5.125426,-7.312465,-8.633303,-0.282219,-2.608394,1.976759
2026-01-04T15:14:09.074711,4.905286,-7.786244,-8.398807,-0.213802,-2.697580,1.991420
2026-01-04T15:14:09.084711,4.646861,-7.661817,-9.011369,-0.052534,-2.757445,1.998750
2026-01-04T15:14:09.094711,4.613361,-7.149753,-8.097311,0.043982,-2.794097,1.985311
2026-01-04T15:14:09.103711,4.493720,-7.030112,-8.073383,0.020769,-2.805092,2.014633
2026-01-04T15:14:09.113711,4.182653,-7.159325,-9.236295,0.035430,-2.787988,2.026850
2026-01-04T15:14:09.122711,3.957728,-7.010970,-8.183453,0.041538,-2.747671,2.046398
2026-01-04T15:14:09.132711,3.464807,-7.197610,-8.422735,0.002443,-2.708575,2.068389
2026-01-04T15:14:09.142711,3.077169,-7.216752,-9.011369,0.052534,-2.700023,2.090380
2026-01-04T15:14:09.151711,2.751745,-6.790830,-8.561519,0.123394,-2.693915,2.112371
2026-01-04T15:14:09.161711,2.210968,-6.431907,-9.241080,0.074525,-2.722014,2.134362
2026-01-04T15:14:09.170711,2.187039,-6.058626,-7.604390,0.021991,-2.800205,2.139249
2026-01-04T15:14:09.180711,2.005185,-5.986842,-8.140382,-0.116064,-2.833192,2.188118
2026-01-04T15:14:09.190711,1.842473,-6.551548,-8.681160,-0.287106,-2.855183,2.180788
2026-01-04T15:14:09.199711,1.761117,-6.996613,-8.231309,-0.313984,-2.816088,2.173458
2026-01-04T15:14:09.209711,1.440479,-7.231109,-8.374879,-0.246789,-2.764775,2.152688
2026-01-04T15:14:09.219711,1.167697,-7.322037,-7.259823,-0.138055,-2.717128,2.129475
2026-01-04T15:14:09.228711,0.602991,-7.183253,-8.480163,-0.007330,-2.680476,2.140471
2026-01-04T15:14:09.238711,0.224925,-6.532405,-7.948956,0.153938,-2.692693,2.118480
2026-01-04T15:14:09.247711,-0.124426,-5.661418,-7.302894,0.215024,-2.664593,2.141693
2026-01-04T15:14:09.257711,-0.492921,-5.077569,-7.838886,0.125838,-2.659706,2.162462
2026-01-04T15:14:09.267711,-0.550349,-4.843072,-6.556333,0.018325,-2.657263,2.155132
2026-01-04T15:14:09.276711,-0.856630,-5.130211,-6.384050,-0.142942,-2.580294,2.179566
2026-01-04T15:14:09.286711,-1.292124,-5.924628,-7.690531,-0.205250,-2.526538,2.152688
2026-01-04T15:14:09.295711,-1.612762,-5.929414,-6.269195,-0.080634,-2.489886,2.111149
2026-01-04T15:14:09.305711,-1.952543,-5.752345,-6.637689,-0.042760,-2.460564,2.095267
2026-01-04T15:14:09.315711,-2.239681,-5.599204,-6.317051,0.013439,-2.477668,2.048841
2026-01-04T15:14:09.324711,-2.402393,-5.053641,-5.489135,0.117286,-2.477668,2.031737
2026-01-04T15:14:09.334711,-2.703889,-4.843072,-6.719045,0.054977,-2.472781,2.019520
2026-01-04T15:14:09.344711,-2.493321,-4.713860,-4.689932,0.017104,-2.513099,1.938885
2026-01-04T15:14:09.353711,-2.416750,-4.603790,-3.838087,0.035430,-2.436130,1.916894
2026-01-04T15:14:09.363711,-3.053241,-4.737788,-6.738188,0.008552,-2.294409,1.919338
2026-01-04T15:14:09.372711,-3.326023,-4.527220,-6.034698,0.037873,-2.204001,1.793499
2026-01-04T15:14:09.382711,-3.680161,-4.120440,-5.302494,0.015882,-2.122145,1.727526
2026-01-04T15:14:09.392711,-3.986442,-3.976871,-4.742574,-0.041538,-2.075719,1.678657
2026-01-04T15:14:09.401711,-4.287938,-4.005585,-5.407779,-0.074525,-2.063502,1.643227
2026-01-04T15:14:09.411711,-4.436293,-4.067798,-5.455635,-0.111177,-2.056171,1.607796
2026-01-04T15:14:09.420711,-4.431507,-3.938585,-4.197010,-0.048869,-2.014633,1.550375
2026-01-04T15:14:09.430711,-4.565505,-3.627519,-4.546362,0.025656,-1.943772,1.538158
2026-01-04T15:14:09.440711,-4.613361,-3.426521,-4.752145,0.001221,-1.896125,1.516167
2026-01-04T15:14:09.449711,-4.622933,-3.168097,-3.225524,0.012217,-1.835038,1.461189
2026-01-04T15:14:09.459711,-4.847858,-2.904886,-2.962314,0.050090,-1.732413,1.451415
2026-01-04T15:14:09.469711,-5.302494,-3.019742,-4.517649,-0.006108,-1.639561,1.448972
2026-01-04T15:14:09.478711,-5.479563,-3.101098,-3.455235,-0.018325,-1.593136,1.385442
2026-01-04T15:14:09.488711,-5.714060,-2.981456,-3.460021,0.042760,-1.522275,1.363450
2026-01-04T15:14:09.497711,-5.948556,-2.967100,-4.474578,0.047647,-1.463632,1.348790
2026-01-04T15:14:09.507711,-6.029912,-2.818745,-3.737588,0.087964,-1.440419,1.307251
2026-01-04T15:14:09.517711,-5.991627,-2.435893,-2.957528,0.146607,-1.395215,1.292590
2026-01-04T15:14:09.526711,-6.025127,-2.321037,-3.297309,0.146607,-1.313359,1.280373
2026-01-04T15:14:09.536711,-6.106483,-2.258824,-3.239881,0.135612,-1.218065,1.248608
2026-01-04T15:14:09.545711,-6.360122,-2.091326,-3.029313,0.136833,-1.108109,1.219286
2026-01-04T15:14:09.555711,-6.757331,-1.928615,-2.378465,0.146607,-0.990823,1.161865
2026-01-04T15:14:09.565711,-7.125825,-1.737189,-2.531606,0.177150,-0.893084,1.119104
2026-01-04T15:14:09.574711,-7.465606,-1.521835,-2.651247,0.174707,-0.835663,1.076344
2026-01-04T15:14:09.584711,-7.508677,-1.493121,-2.364108,0.096516,-0.818559,1.010370
2026-01-04T15:14:09.594711,-6.819544,-1.952543,-2.373680,0.072082,-0.774576,0.973718
2026-01-04T15:14:09.603711,-6.757331,-3.058027,-3.034099,-0.034208,-0.740368,1.167974
2026-01-04T15:14:09.613711,-1.354337,-0.497707,-2.048256,-0.029321,-0.643851,0.521678
2026-01-04T15:14:09.622711,-14.447862,0.751346,2.373680,0.669508,0.098960,1.266934
2026-01-04T15:14:09.632711,-11.887542,-4.699503,1.062413,0.400727,0.387288,0.875980
2026-01-04T15:14:09.642711,-10.284351,-1.756331,-4.862215,0.193033,-0.105068,0.720820
2026-01-04T15:14:09.651711,-9.403792,-0.449850,-1.598405,0.331088,-0.323758,0.642630
2026-01-04T15:14:09.661711,-9.375078,-0.234496,-2.297109,0.320093,-0.379958,0.598647
2026-01-04T15:14:09.670711,-9.198010,-0.248853,-1.981257,0.204028,-0.393397,0.524122
2026-01-04T15:14:09.680711,-8.915657,-0.172283,-0.837487,0.177150,-0.354301,0.425162
2026-01-04T15:14:09.690711,-8.480163,-0.406779,-1.421336,0.114842,-0.265115,0.364075
2026-01-04T15:14:09.699711,-8.403592,-0.875773,-2.325823,0.057421,-0.141720,0.296880
2026-01-04T15:14:09.709711,-8.666803,-0.847059,-1.564905,0.152716,-0.002443,0.186924
2026-01-04T15:14:09.719711,-8.863014,-0.483350,-0.904486,0.207694,0.081855,0.086742
2026-01-04T15:14:09.728711,-8.810372,-0.464207,-2.000399,0.145385,0.108733,0.019547
2026-01-04T15:14:09.738711,-8.781658,-0.449850,-1.923829,0.116064,0.134390,-0.074525
2026-01-04T15:14:09.747711,-8.470592,-0.191425,-1.186840,0.103847,0.194255,-0.179594
2026-01-04T15:14:09.757711,-8.293523,-0.066999,-0.847059,0.042760,0.268780,-0.282219
2026-01-04T15:14:09.767711,-7.920242,-0.081355,-0.842273,-0.029321,0.356745,-0.376292
2026-01-04T15:14:09.776711,-7.532605,-0.325423,-0.832702,-0.095294,0.480139,-0.470366
2026-01-04T15:14:09.786711,-7.188039,-0.593420,-0.918843,-0.111177,0.621860,-0.574213
2026-01-04T15:14:09.795711,-6.996613,-0.933200,-1.335195,-0.069638,0.770911,-0.680503
2026-01-04T15:14:09.805711,-6.929614,-1.167697,-1.770688,0.007330,0.915075,-0.772133
2026-01-04T15:14:09.815711,-6.934399,-1.282552,-2.608176,0.119729,1.049466,-0.858876
2026-01-04T15:14:09.824711,-6.943971,-1.272981,-3.756731,0.151494,1.150869,-0.940732
2026-01-04T15:14:09.834711,-6.795616,-1.172483,-2.306680,0.107512,1.189965,-1.065348
2026-01-04T15:14:09.844711,-6.465406,-1.186840,-1.957328,0.058643,1.240056,-1.134987
2026-01-04T15:14:09.853711,-6.159125,-1.368694,-2.900100,-0.025656,1.334129,-1.210734
2026-01-04T15:14:09.863711,-5.919843,-1.655833,-1.517049,-0.062308,1.447750,-1.345124
2026-01-04T15:14:09.872711,-5.656632,-1.746760,-1.043270,-0.026878,1.580918,-1.429424
2026-01-04T15:14:09.882711,-5.302494,-2.163111,-2.344966,-0.030543,1.696983,-1.499062
2026-01-04T15:14:09.892711,-5.096712,-2.608176,-3.287738,-0.019547,1.828930,-1.596801
2026-01-04T15:14:09.901711,-5.230710,-2.713460,-4.235296,0.102625,2.003637,-1.681100
2026-01-04T15:14:09.911711,-5.632704,-2.713460,-5.053641,0.084299,2.108706,-1.766621
2026-01-04T15:14:09.920711,-5.632704,-2.871387,-4.177868,-0.017104,2.048841,-1.860695
2026-01-04T15:14:09.930711,-5.316851,-2.947957,-4.043870,-0.047647,1.966985,-1.871690
2026-01-04T15:14:09.940711,-4.847858,-2.971885,-4.139583,-0.123394,1.938885,-1.902233
2026-01-04T15:14:09.949711,-4.220939,-3.029313,-3.115455,-0.149051,1.977981,-1.974316
2026-01-04T15:14:09.959711,-3.584448,-3.139383,-2.234896,-0.107512,2.113593,-2.002415
2026-01-04T15:14:09.969711,-3.498306,-3.469592,-4.814359,-0.092851,2.304183,-1.977981
2026-01-04T15:14:09.978711,-3.608376,-3.541377,-6.623332,-0.023212,2.433686,-2.012189
2026-01-04T15:14:09.988711,-3.766302,-3.311666,-6.508477,-0.014660,2.564411,-2.023185
2026-01-04T15:14:09.997711,-4.000799,-3.249453,-7.403393,-0.182037,2.613280,-2.018298
2026-01-04T15:14:10.007711,-3.713660,-3.474378,-5.627918,-0.389731,2.491107,-2.034180
2026-01-04T15:14:10.017711,-3.067598,-4.091726,-6.001199,-0.616973,2.417804,-1.936442
2026-01-04T15:14:10.026711,-2.665604,-5.034498,-7.278966,-0.741590,2.345722,-1.898568
2026-01-04T15:14:10.036711,-1.536192,-5.670989,-3.684946,-0.706160,2.310291,-1.940107
2026-01-04T15:14:10.045711,-0.995414,-6.369693,-4.340580,-0.459370,2.515542,-1.897347
2026-01-04T15:14:10.055711,-1.320838,-6.618547,-8.839086,-0.061086,2.747671,-1.913229
2026-01-04T15:14:10.065711,-1.177268,-5.991627,-5.560919,0.255341,2.875952,-2.056171
2026-01-04T15:14:10.074711,-1.847259,-5.426921,-7.795816,0.400727,3.086090,-2.042732
2026-01-04T15:14:10.084711,-2.766102,-4.867001,-12.969098,0.348193,3.046995,-2.065945
2026-01-04T15:14:10.094711,-2.053041,-4.331008,-8.011170,-0.007330,2.742784,-2.139249
2026-01-04T15:14:10.103711,-1.560120,-5.091926,-9.657432,-0.519235,2.560746,-1.976759
2026-01-04T15:14:10.113711,-0.655633,-6.101697,-10.346564,-0.681725,2.328617,-1.979202
2026-01-04T15:14:10.122711,1.071984,-6.618547,-3.804587,-0.711046,2.261422,-1.946216
2026-01-04T15:14:10.132711,1.957328,-7.800601,-3.311666,-0.580321,2.465451,-1.838703
2026-01-04T15:14:10.142711,2.158325,-8.312665,-7.704888,0.000000,2.690249,-1.852143
2026-01-04T15:14:10.151711,2.000399,-7.384250,-8.982656,0.535117,2.956587,-1.888794
2026-01-04T15:14:10.161711,0.971485,-6.206981,-12.466605,0.788015,3.232698,-1.982868
2026-01-04T15:14:10.170711,0.287138,-4.570291,-8.982656,0.747698,3.264463,-2.095267
2026-01-04T15:14:10.180711,0.000000,-4.211367,-8.786444,0.106290,3.081203,-2.004859
2026-01-04T15:14:10.190711,0.373280,-5.704489,-11.346764,-0.514348,2.613280,-1.943772
2026-01-04T15:14:10.199711,2.067398,-7.331608,-7.647461,-0.713490,2.263866,-1.842369
2026-01-04T15:14:10.209711,1.761117,-8.575876,-9.796215,-0.598647,2.131919,-1.711644
2026-01-04T15:14:10.219711,3.924229,-19.281364,-26.919254,-1.012814,1.279151,-1.938885
2026-01-04T15:14:10.228711,7.628318,-8.886943,-6.671189,-0.052534,1.830151,-1.885129
2026-01-04T15:14:10.238711,5.192425,-6.671189,-7.896314,0.443488,2.530203,-1.718974
2026-01-04T15:14:10.247711,4.785645,-6.072983,-10.547562,0.553443,2.841744,-1.698205
2026-01-04T15:14:10.257711,4.460221,-5.852844,-7.776673,0.359188,2.996904,-1.699426
2026-01-04T15:14:10.267711,3.531806,-6.532405,-9.346365,0.200363,3.132516,-1.717752
2026-01-04T15:14:10.276711,2.589034,-6.853043,-12.533604,0.140498,3.064099,-1.759291
2026-01-04T15:14:10.286711,2.751745,-6.987041,-9.064012,-0.026878,2.781879,-1.753182
2026-01-04T15:14:10.295711,3.306880,-7.829315,-9.164510,-0.177150,2.434908,-1.668883
2026-01-04T15:14:10.305711,4.292723,-8.207381,-10.073783,-0.063529,2.108706,-1.611462
2026-01-04T15:14:10.315711,5.905486,-7.752745,-5.934200,0.207694,1.997528,-1.572366
2026-01-04T15:14:10.324711,6.642475,-7.202396,-5.508277,0.521678,2.182010,-1.533271
2026-01-04T15:14:10.334711,6.537191,-6.163911,-8.221738,0.842993,2.474003,-1.547932
2026-01-04T15:14:10.344711,6.010770,-4.857429,-8.815158,0.855211,2.725680,-1.579697
2026-01-04T15:14:10.353711,5.355136,-4.412364,-7.824529,0.580321,2.875952,-1.613905
2026-01-04T15:14:10.363711,4.718646,-4.847858,-7.905885,0.295658,2.929709,-1.631009
2026-01-04T15:14:10.372711,4.110869,-5.699703,-10.408778,0.076969,2.839301,-1.644448
2026-01-04T15:14:10.382711,4.278366,-6.451049,-10.308279,-0.100181,2.521651,-1.645670
2026-01-04T15:14:10.392711,5.422136,-7.393821,-7.475177,-0.208915,2.103819,-1.579697
2026-01-04T15:14:10.401711,6.786044,-8.245666,-6.862615,-0.063529,1.799608,-1.514945
2026-01-04T15:14:10.411711,7.963313,-8.145168,-6.795616,0.334754,1.726304,-1.466076
2026-01-04T15:14:10.420711,8.685946,-7.216752,-6.580262,0.767246,1.841147,-1.442863
2026-01-04T15:14:10.430711,8.662017,-5.647061,-6.494120,1.083674,2.039067,-1.475850
2026-01-04T15:14:10.440711,8.461020,-4.067798,-6.029912,1.045801,2.206444,-1.489289
2026-01-04T15:14:10.449711,8.001598,-3.895515,-6.087340,0.676838,2.280970,-1.467297
2026-01-04T15:14:10.459711,7.518248,-4.642075,-7.403393,0.384845,2.247983,-1.452637
2026-01-04T15:14:10.469711,7.393821,-5.316851,-7.628318,0.240680,2.134362,-1.411098
2026-01-04T15:14:10.478711,7.585247,-5.891129,-6.915257,0.125838,1.938885,-1.362229
2026-01-04T15:14:10.488711,7.867600,-6.589833,-7.532605,0.161268,1.759291,-1.298699
2026-01-04T15:14:10.497711,8.121239,-6.623332,-7.872386,0.356745,1.623679,-1.247386
2026-01-04T15:14:10.507711,8.681160,-5.910271,-5.469992,0.526565,1.503949,-1.188743
2026-01-04T15:14:10.517711,9.025726,-5.115854,-3.766302,0.590095,1.457524,-1.110552
2026-01-04T15:14:10.526711,9.040083,-4.637290,-4.651647,0.531452,1.479515,-1.049466
2026-01-04T15:14:10.536711,8.863014,-4.699503,-4.924428,0.355523,1.506393,-1.020144
2026-01-04T15:14:10.545711,8.609375,-5.125426,-4.608576,0.199142,1.500284,-0.976162
2026-01-04T15:14:10.555711,8.255237,-5.685346,-4.986642,0.207694,1.452637,-0.949284
2026-01-04T15:14:10.565711,7.920242,-5.876772,-5.302494,0.309097,1.382998,-0.917519
2026-01-04T15:14:10.574711,7.618747,-5.795416,-5.838487,0.426383,1.281595,-0.884532
2026-01-04T15:14:10.584711,7.513462,-5.292923,-6.556333,0.540004,1.136209,-0.849102
2026-01-04T15:14:10.594711,7.633104,-4.603790,-6.101697,0.520457,0.973718,-0.770911
2026-01-04T15:14:10.603711,7.953742,-4.201796,-5.072783,0.354301,0.831998,-0.681725
2026-01-04T15:14:10.613711,8.264809,-4.536791,-4.876572,0.149051,0.758694,-0.580321
2026-01-04T15:14:10.622711,8.384450,-5.044070,-4.819144,0.024434,0.744033,-0.510683
2026-01-04T15:14:10.632711,8.264809,-5.374279,-4.412364,0.026878,0.775798,-0.467922
2026-01-04T15:14:10.642711,8.073383,-5.594419,-4.498506,0.086742,0.780685,-0.436157
2026-01-04T15:14:10.651711,7.743173,-5.565705,-5.297709,0.183259,0.720820,-0.403170
2026-01-04T15:14:10.661711,7.561319,-5.163711,-5.005784,0.230907,0.607199,-0.365297
2026-01-04T15:14:10.670711,7.441678,-5.039284,-5.048855,0.207694,0.449596,-0.302989
2026-01-04T15:14:10.680711,7.475177,-5.063212,-5.460421,0.138055,0.276111,-0.206472
2026-01-04T15:14:10.690711,7.680960,-5.096712,-4.852644,0.084299,0.086742,-0.112399
2026-01-04T15:14:10.699711,7.877171,-5.106283,-4.421936,0.042760,-0.061086,-0.007330
2026-01-04T15:14:10.709711,7.862815,-5.254638,-5.077569,-0.021991,-0.133168,0.081855
2026-01-04T15:14:10.719711,7.795816,-5.340780,-5.369493,-0.032986,-0.191811,0.147829
2026-01-04T15:14:10.728711,7.791030,-5.206781,-4.771288,0.003665,-0.278554,0.208915
2026-01-04T15:14:10.738711,7.762316,-4.962714,-4.780859,-0.004886,-0.375071,0.282219
2026-01-04T15:14:10.747711,7.709674,-4.929214,-5.402993,-0.067195,-0.471587,0.344527
2026-01-04T15:14:10.757711,7.752745,-4.996213,-5.374279,-0.111177,-0.579100,0.406836
2026-01-04T15:14:10.767711,7.814958,-5.111069,-5.446064,-0.164933,-0.681725,0.472809
2026-01-04T15:14:10.776711,7.853243,-5.431707,-5.197210,-0.190589,-0.780685,0.530230
2026-01-04T15:14:10.786711,7.944171,-5.546562,-4.776073,-0.136833,-0.853989,0.579100
2026-01-04T15:14:10.795711,7.920242,-5.426921,-5.259424,-0.067195,-0.910189,0.625525
2026-01-04T15:14:10.805711,7.843672,-5.216353,-5.781059,-0.056199,-0.971275,0.680503
2026-01-04T15:14:10.815711,7.824529,-5.087140,-5.374279,-0.094073,-1.058018,0.733038
2026-01-04T15:14:10.824711,7.795816,-5.101497,-4.828716,-0.155159,-1.167974,0.790459
2026-01-04T15:14:10.834711,7.771887,-5.532205,-5.355136,-0.227241,-1.280373,0.857654
2026-01-04T15:14:10.844711,7.709674,-5.857629,-6.116054,-0.171042,-1.400102,0.901636
2026-01-04T15:14:10.853711,7.776673,-5.709274,-5.929414,-0.075747,-1.529606,0.945619
2026-01-04T15:14:10.863711,7.834101,-5.422136,-6.154339,-0.030543,-1.668883,1.009149
2026-01-04T15:14:10.872711,8.068597,-5.192425,-5.623133,-0.050090,-1.789834,1.080009
2026-01-04T15:14:10.882711,8.279166,-5.125426,-5.929414,-0.144164,-1.853364,1.161865
2026-01-04T15:14:10.892711,8.341379,-5.402993,-6.862615,-0.241902,-1.853364,1.238834
2026-01-04T15:14:10.901711,8.159525,-5.613561,-7.470392,-0.315206,-1.848477,1.303586
2026-01-04T15:14:10.911711,7.972884,-5.728417,-6.752545,-0.360410,-1.892460,1.368337
2026-01-04T15:14:10.920711,7.805387,-5.996413,-6.278766,-0.439822,-1.986533,1.436754
2026-01-04T15:14:10.930711,7.671389,-6.742974,-6.494120,-0.502131,-2.124588,1.477071
2026-01-04T15:14:10.940711,7.652246,-7.451249,-6.522834,-0.419053,-2.282192,1.501506
2026-01-04T15:14:10.949711,7.609175,-7.661817,-7.326822,-0.216246,-2.410473,1.517388
2026-01-04T15:14:10.959711,7.690531,-7.278966,-7.570890,0.040317,-2.503325,1.528384
2026-01-04T15:14:10.969711,7.714460,-6.312266,-7.537391,0.194255,-2.553416,1.565036
2026-01-04T15:14:10.978711,7.647461,-5.551348,-7.996813,0.162490,-2.557081,1.632231
2026-01-04T15:14:10.988711,7.527819,-5.053641,-7.762316,0.009773,-2.547307,1.710422
2026-01-04T15:14:10.997711,7.197610,-5.402993,-7.460820,-0.244346,-2.498438,1.809382
2026-01-04T15:14:11.007711,6.742974,-6.451049,-8.331808,-0.421496,-2.474003,1.882686
2026-01-04T15:14:11.017711,6.317051,-7.144968,-8.370093,-0.390953,-2.505768,1.933998
2026-01-04T15:14:11.026711,6.025127,-7.451249,-8.111668,-0.328645,-2.570520,1.987755
2026-01-04T15:14:11.036711,5.895914,-7.503891,-8.322237,-0.248011,-2.669480,2.006081
2026-01-04T15:14:11.045711,5.843272,-7.408178,-8.676374,-0.193033,-2.774549,2.030515
2026-01-04T15:14:11.055711,5.876772,-7.484749,-8.006384,-0.193033,-2.872287,2.019520
2026-01-04T15:14:11.065711,5.900700,-7.609175,-7.389036,-0.141720,-2.908939,2.019520
2026-01-04T15:14:11.074711,5.680560,-7.738388,-8.738588,-0.062308,-2.885726,2.031737
2026-01-04T15:14:11.084711,5.335994,-7.484749,-9.040083,0.041538,-2.850296,2.026850
2026-01-04T15:14:11.094711,5.163711,-6.862615,-7.977670,0.125838,-2.816088,2.050063
2026-01-04T15:14:11.103711,4.685146,-6.637689,-8.738588,0.007330,-2.774549,2.102597
2026-01-04T15:14:11.113711,4.273581,-6.786044,-8.800801,-0.087964,-2.778214,2.140471
2026-01-04T15:14:11.122711,3.943371,-6.580262,-8.159525,-0.094073,-2.757445,2.189340
2026-01-04T15:14:11.132711,3.445664,-6.690331,-8.537591,-0.190589,-2.717128,2.227214
2026-01-04T15:14:11.142711,2.924029,-7.049255,-8.930013,-0.282219,-2.703688,2.243096
2026-01-04T15:14:11.151711,2.526820,-7.326822,-8.595018,-0.296880,-2.757445,2.235766
2026-01-04T15:14:11.161711,2.230110,-7.513462,-8.346165,-0.261450,-2.820975,2.217440
2026-01-04T15:14:11.170711,2.005185,-7.518248,-8.092526,-0.207694,-2.872287,2.188118
2026-01-04T15:14:11.180711,1.823330,-7.479963,-7.829315,-0.136833,-2.935817,2.167349
2026-01-04T15:14:11.190711,1.785045,-7.369893,-7.800601,-0.045204,-2.952921,2.180788
2026-01-04T15:14:11.199711,1.617548,-7.130611,-8.599804,0.047647,-2.913826,2.182010
2026-01-04T15:14:11.209711,1.359123,-6.623332,-8.355736,0.131946,-2.852740,2.184453
2026-01-04T15:14:11.219711,1.225125,-6.044269,-6.451049,0.157603,-2.778214,2.193005
2026-01-04T15:14:11.228711,0.641276,-6.058626,-8.408378,0.041538,-2.687806,2.257757
2026-01-04T15:14:11.238711,0.200997,-5.919843,-8.997012,0.000000,-2.651154,2.266309
2026-01-04T15:14:11.247711,-0.224925,-5.422136,-7.719245,-0.076969,-2.616946,2.272418
2026-01-04T15:14:11.257711,-0.655633,-5.517848,-7.647461,-0.323758,-2.636493,2.287078
2026-01-04T15:14:11.267711,-0.904486,-6.149554,-7.403393,-0.466700,-2.707354,2.274861
2026-01-04T15:14:11.276711,-1.095912,-6.690331,-6.948756,-0.445931,-2.739119,2.272418
2026-01-04T15:14:11.286711,-1.296909,-7.030112,-6.905686,-0.266337,-2.722014,2.214996
2026-01-04T15:14:11.295711,-1.545763,-6.723831,-6.551548,0.014660,-2.691471,2.161240
2026-01-04T15:14:11.305711,-1.765903,-5.852844,-5.402993,0.240680,-2.645045,2.124588
2026-01-04T15:14:11.315711,-2.053041,-5.034498,-5.962913,0.339641,-2.590068,2.114815
2026-01-04T15:14:11.324711,-2.359323,-4.455435,-6.317051,0.306654,-2.537533,2.107484
2026-01-04T15:14:11.334711,-2.608176,-4.101297,-5.929414,0.179594,-2.454456,2.090380
2026-01-04T15:14:11.344711,-3.081955,-4.086941,-6.958328,-0.035430,-2.392147,2.078163
2026-01-04T15:14:11.353711,-3.460021,-4.326223,-7.010970,-0.234572,-2.419025,2.048841
2026-01-04T15:14:11.363711,-3.416950,-4.407579,-5.053641,-0.313984,-2.432464,1.986533
2026-01-04T15:14:11.372711,-3.670589,-4.632504,-5.871986,-0.382401,-2.417804,1.968207
2026-01-04T15:14:11.382711,-3.646661,-5.048855,-5.326423,-0.361632,-2.434908,1.899790
2026-01-04T15:14:11.392711,-3.536591,-4.962714,-4.766502,-0.179594,-2.387260,1.850921
2026-01-04T15:14:11.401711,-3.498306,-4.608576,-4.058227,0.020769,-2.326174,1.789834
2026-01-04T15:14:11.411711,-3.445664,-4.158725,-3.359522,0.191811,-2.234544,1.755626
2026-01-04T15:14:11.420711,-3.718446,-3.570091,-4.862215,0.343306,-2.095267,1.770287
2026-01-04T15:14:11.430711,-4.072584,-2.880958,-4.876572,0.384845,-1.962098,1.732413
2026-01-04T15:14:11.440711,-4.359722,-2.191825,-3.297309,0.316428,-1.826486,1.692096
