Timestamp,Acceleration_X,Acceleration_Y,Acceleration_Z,Gyro_X,Gyro_Y,Gyro_Z
2026-01-04T14:28:30.056303,1.928615,7.317251,-6.273980,0.008552,-0.030543,0.034208
2026-01-04T14:28:30.066303,1.828116,7.077969,-6.508477,-0.021991,-0.007330,0.056199
2026-01-04T14:28:30.075303,1.679761,6.910471,-6.451049,-0.006108,0.004886,0.061086
2026-01-04T14:28:30.085303,1.631905,6.972685,-6.283552,0.042760,0.000000,0.052534
2026-01-04T14:28:30.094303,1.631905,7.039684,-6.317051,0.070860,-0.024434,0.069638
2026-01-04T14:28:30.104303,1.555334,7.235895,-6.494120,0.097738,-0.053756,0.074525
2026-01-04T14:28:30.114303,1.708475,7.508677,-6.125625,0.116064,-0.072082,0.050090
2026-01-04T14:28:30.123303,1.794616,7.613961,-5.948556,0.111177,-0.070860,0.037873
2026-01-04T14:28:30.133303,1.847259,7.685746,-6.072983,0.050090,-0.069638,0.051312
2026-01-04T14:28:30.143303,1.856830,7.456035,-6.163911,-0.006108,-0.057421,0.046425
2026-01-04T14:28:30.152303,1.880758,7.355536,-6.001199,-0.015882,-0.021991,0.039095
2026-01-04T14:28:30.162303,1.895115,7.288537,-5.876772,-0.020769,0.006108,0.037873
2026-01-04T14:28:30.171303,1.775474,7.250252,-5.962913,-0.034208,0.017104,0.036651
2026-01-04T14:28:30.181303,1.722832,7.255038,-6.101697,-0.020769,0.019547,0.035430
2026-01-04T14:28:30.191303,1.727617,7.307680,-6.187839,0.006108,0.017104,0.029321
2026-01-04T14:28:30.200303,1.674975,7.389036,-6.259623,0.020769,0.006108,0.026878
2026-01-04T14:28:30.210303,1.579262,7.594818,-6.159125,0.019547,-0.010995,0.023212
2026-01-04T14:28:30.219303,1.627119,7.585247,-6.178267,0.000000,-0.032986,0.017104
2026-01-04T14:28:30.229303,1.660618,7.484749,-6.130411,-0.050090,-0.056199,0.028099
2026-01-04T14:28:30.239303,1.761117,7.312465,-6.068198,-0.078190,-0.065973,0.030543
2026-01-04T14:28:30.248303,1.780260,7.130611,-5.848058,-0.063529,-0.059864,0.024434
2026-01-04T14:28:30.258303,1.842473,7.116254,-5.737988,-0.030543,-0.052534,0.020769
2026-01-04T14:28:30.268303,1.923829,7.154539,-5.752345,0.001221,-0.040317,0.018325
2026-01-04T14:28:30.277303,1.957328,7.235895,-5.723631,0.036651,-0.019547,0.014660
2026-01-04T14:28:30.287303,1.914258,7.389036,-5.886343,0.048869,-0.002443,0.010995
2026-01-04T14:28:30.296303,1.799402,7.489534,-6.144768,0.037873,0.010995,0.018325
2026-01-04T14:28:30.306303,1.689332,7.494320,-6.297909,0.003665,0.026878,0.023212
2026-01-04T14:28:30.316303,1.631905,7.432106,-6.254838,-0.050090,0.024434,0.024434
2026-01-04T14:28:30.325303,1.550549,7.307680,-6.364908,-0.085521,-0.004886,0.030543
2026-01-04T14:28:30.335303,1.555334,7.226324,-6.369693,-0.073303,-0.035430,0.024434
2026-01-04T14:28:30.344303,1.598405,7.121040,-6.154339,-0.036651,-0.052534,0.012217
2026-01-04T14:28:30.354303,1.718046,7.125825,-6.044269,0.006108,-0.065973,0.007330
2026-01-04T14:28:30.364303,1.746760,7.192824,-6.025127,0.050090,-0.059864,0.001221
2026-01-04T14:28:30.373303,1.775474,7.274180,-5.867201,0.072082,-0.036651,-0.006108
2026-01-04T14:28:30.383303,1.799402,7.389036,-5.800201,0.074525,-0.018325,-0.007330
2026-01-04T14:28:30.393303,1.789831,7.518248,-5.996413,0.053756,0.000000,0.004886
2026-01-04T14:28:30.402303,1.660618,7.642675,-6.235695,-0.003665,0.020769,0.015882
2026-01-04T14:28:30.412303,1.679761,7.661817,-6.259623,-0.074525,0.029321,0.029321
2026-01-04T14:28:30.421303,1.497906,7.613961,-6.283552,-0.123394,0.028099,0.037873
2026-01-04T14:28:30.431303,1.478764,7.422535,-6.216553,-0.145385,0.015882,0.036651
2026-01-04T14:28:30.441303,1.435693,7.144968,-6.029912,-0.118507,-0.007330,0.025656
2026-01-04T14:28:30.450303,1.574477,6.963113,-5.991627,-0.039095,-0.036651,0.017104
2026-01-04T14:28:30.460303,1.775474,6.886543,-6.010770,0.053756,-0.047647,0.009773
2026-01-04T14:28:30.469303,1.919043,7.001398,-6.139982,0.131946,-0.030543,0.003665
2026-01-04T14:28:30.479303,1.856830,7.231109,-6.235695,0.188146,0.002443,-0.002443
2026-01-04T14:28:30.489303,1.828116,7.518248,-6.211767,0.177150,0.029321,-0.006108
2026-01-04T14:28:30.498303,1.718046,7.647461,-6.302694,0.095294,0.040317,0.004886
2026-01-04T14:28:30.508303,1.593619,7.738388,-6.250052,-0.010995,0.032986,0.017104
2026-01-04T14:28:30.518303,1.569691,7.580461,-6.173482,-0.103847,0.002443,0.024434
2026-01-04T14:28:30.527303,1.579262,7.417750,-6.111268,-0.138055,-0.031764,0.028099
2026-01-04T14:28:30.537303,1.655833,7.140182,-6.144768,-0.111177,-0.057421,0.021991
2026-01-04T14:28:30.546303,1.818545,7.058826,-6.168696,-0.035430,-0.054977,0.009773
2026-01-04T14:28:30.556303,1.904686,7.097111,-6.120840,0.046425,-0.032986,-0.006108
2026-01-04T14:28:30.566303,1.852044,7.207181,-6.293123,0.085521,0.008552,-0.003665
2026-01-04T14:28:30.575303,1.684547,7.345965,-6.455835,0.097738,0.054977,-0.003665
2026-01-04T14:28:30.585303,1.517049,7.451249,-6.230910,0.091629,0.075747,-0.006108
2026-01-04T14:28:30.594303,1.354337,7.566105,-6.120840,0.073303,0.051312,-0.010995
2026-01-04T14:28:30.604303,1.349551,7.661817,-6.154339,0.025656,-0.004886,-0.002443
2026-01-04T14:28:30.614303,1.507478,7.618747,-6.106483,-0.045204,-0.058643,0.007330
2026-01-04T14:28:30.623303,1.665404,7.551748,-6.063412,-0.091629,-0.084299,0.006108
2026-01-04T14:28:30.633303,1.804188,7.389036,-6.072983,-0.113620,-0.076969,0.010995
2026-01-04T14:28:30.643303,1.880758,7.197610,-6.173482,-0.111177,-0.040317,0.010995
2026-01-04T14:28:30.652303,1.818545,7.073183,-6.130411,-0.064751,0.009773,0.003665
2026-01-04T14:28:30.662303,1.698904,6.896114,-6.144768,0.002443,0.045204,0.003665
2026-01-04T14:28:30.671303,1.493121,6.910471,-6.355336,0.087964,0.058643,0.003665
2026-01-04T14:28:30.681303,1.402194,7.202396,-6.278766,0.161268,0.043982,-0.008552
2026-01-04T14:28:30.691303,1.368694,7.518248,-6.120840,0.167377,0.001221,-0.012217
2026-01-04T14:28:30.700303,1.488335,7.714460,-6.116054,0.096516,-0.051312,-0.001221
2026-01-04T14:28:30.710303,1.603191,7.767102,-6.010770,-0.006108,-0.080634,0.009773
2026-01-04T14:28:30.719303,1.789831,7.719245,-5.886343,-0.120951,-0.079412,0.018325
2026-01-04T14:28:30.729303,1.813759,7.470392,-5.771488,-0.217467,-0.058643,0.032986
2026-01-04T14:28:30.739303,1.852044,7.082754,-5.814558,-0.219911,-0.021991,0.034208
2026-01-04T14:28:30.748303,1.746760,6.862615,-6.125625,-0.149051,0.021991,0.039095
2026-01-04T14:28:30.758303,1.646261,6.809973,-6.345765,-0.050090,0.057421,0.036651
2026-01-04T14:28:30.768303,1.469193,6.915257,-6.317051,0.065973,0.059864,0.028099
2026-01-04T14:28:30.777303,1.373480,7.121040,-6.340979,0.173485,0.017104,0.015882
2026-01-04T14:28:30.787303,1.464407,7.336394,-6.470192,0.219911,-0.037873,0.017104
2026-01-04T14:28:30.796303,1.612762,7.609175,-6.250052,0.202807,-0.074525,0.013439
2026-01-04T14:28:30.806303,1.741974,7.829315,-6.005984,0.130725,-0.089186,0.010995
2026-01-04T14:28:30.816303,1.885544,7.829315,-5.895914,0.026878,-0.078190,0.019547
2026-01-04T14:28:30.825303,1.919043,7.757530,-5.919843,-0.073303,-0.045204,0.021991
2026-01-04T14:28:30.835303,1.933400,7.633104,-6.092126,-0.150272,-0.002443,0.035430
2026-01-04T14:28:30.844303,1.761117,7.369893,-6.211767,-0.195476,0.030543,0.042760
2026-01-04T14:28:30.854303,1.555334,7.140182,-6.355336,-0.180816,0.048869,0.048869
2026-01-04T14:28:30.864303,1.473978,6.929614,-6.269195,-0.095294,0.035430,0.046425
2026-01-04T14:28:30.873303,1.378265,6.896114,-6.197410,0.028099,0.000000,0.030543
2026-01-04T14:28:30.883303,1.416550,7.144968,-6.125625,0.134390,-0.046425,0.018325
2026-01-04T14:28:30.893303,1.636690,7.403393,-6.082555,0.180816,-0.089186,0.012217
2026-01-04T14:28:30.902303,1.741974,7.652246,-6.183053,0.158824,-0.102625,0.017104
2026-01-04T14:28:30.912303,1.861615,7.853243,-6.197410,0.087964,-0.076969,0.018325
2026-01-04T14:28:30.921303,1.885544,7.843672,-6.096911,-0.023212,-0.045204,0.023212
2026-01-04T14:28:30.931303,1.861615,7.747959,-6.269195,-0.125838,-0.024434,0.028099
2026-01-04T14:28:30.941303,1.775474,7.465606,-6.513263,-0.199142,-0.021991,0.034208
2026-01-04T14:28:30.950303,1.751546,7.073183,-6.369693,-0.229685,-0.035430,0.043982
2026-01-04T14:28:30.960303,1.703689,6.776473,-6.135197,-0.174707,-0.048869,0.035430
2026-01-04T14:28:30.969303,1.746760,6.723831,-5.982056,-0.041538,-0.057421,0.020769
2026-01-04T14:28:30.979303,1.751546,6.833901,-5.943771,0.079412,-0.059864,0.003665
2026-01-04T14:28:30.989303,1.813759,7.130611,-6.039484,0.147829,-0.050090,-0.006108
2026-01-04T14:28:30.998303,1.756331,7.499106,-6.082555,0.135612,-0.028099,0.003665
2026-01-04T14:28:31.008303,1.694118,7.604390,-5.924628,0.040317,-0.014660,0.012217
2026-01-04T14:28:31.018303,1.636690,7.618747,-6.015556,-0.043982,-0.019547,0.019547
2026-01-04T14:28:31.027303,1.631905,7.475177,-6.312266,-0.076969,-0.041538,0.021991
2026-01-04T14:28:31.037303,1.698904,7.542176,-6.360122,-0.096516,-0.063529,0.018325
2026-01-04T14:28:31.046303,1.804188,7.341179,-6.230910,-0.105068,-0.073303,0.020769
2026-01-04T14:28:31.056303,1.890329,7.173682,-6.116054,-0.081855,-0.065973,0.021991
2026-01-04T14:28:31.066303,1.990828,7.144968,-6.058626,-0.030543,-0.039095,0.010995
2026-01-04T14:28:31.075303,1.899901,7.197610,-5.982056,0.021991,-0.001221,0.004886
2026-01-04T14:28:31.085303,1.751546,7.336394,-6.072983,0.039095,0.023212,-0.001221
2026-01-04T14:28:31.094303,1.655833,7.355536,-6.025127,0.017104,0.029321,-0.002443
2026-01-04T14:28:31.104303,1.521835,7.441678,-6.235695,-0.021991,0.010995,0.002443
2026-01-04T14:28:31.114303,1.531406,7.470392,-6.307480,-0.059864,-0.013439,0.006108
2026-01-04T14:28:31.123303,1.665404,7.345965,-6.235695,-0.072082,-0.032986,0.003665
2026-01-04T14:28:31.133303,1.722832,7.379464,-6.125625,-0.070860,-0.048869,0.004886
2026-01-04T14:28:31.143303,1.761117,7.374679,-6.125625,-0.080634,-0.052534,0.008552
2026-01-04T14:28:31.152303,1.761117,7.365107,-5.958128,-0.087964,-0.037873,0.004886
2026-01-04T14:28:31.162303,1.818545,7.298108,-5.723631,-0.072082,-0.021991,-0.004886
2026-01-04T14:28:31.171303,1.765903,7.283751,-5.757131,-0.036651,-0.006108,-0.009773
2026-01-04T14:28:31.181303,1.732403,7.288537,-5.905486,-0.010995,0.013439,-0.017104
2026-01-04T14:28:31.191303,1.698904,7.307680,-5.934200,0.003665,0.032986,-0.006108
2026-01-04T14:28:31.200303,1.655833,7.317251,-6.049055,-0.006108,0.037873,0.010995
2026-01-04T14:28:31.210303,1.665404,7.231109,-5.867201,-0.036651,0.036651,0.036651
2026-01-04T14:28:31.219303,1.579262,7.092326,-6.034698,-0.010995,0.037873,0.057421
2026-01-04T14:28:31.229303,1.526620,7.240681,-6.183053,0.089186,0.041538,0.046425
2026-01-04T14:28:31.239303,1.517049,7.436892,-6.005984,0.152716,0.037873,0.035430
2026-01-04T14:28:31.248303,1.507478,7.685746,-5.991627,0.131946,0.039095,0.043982
2026-01-04T14:28:31.258303,1.435693,7.881957,-5.915057,0.083077,0.041538,0.039095
2026-01-04T14:28:31.268303,1.469193,7.939385,-5.709274,0.017104,0.019547,0.018325
2026-01-04T14:28:31.277303,1.584048,7.834101,-5.709274,-0.101403,-0.026878,0.025656
2026-01-04T14:28:31.287303,1.765903,7.369893,-5.972485,-0.174707,-0.043982,0.036651
2026-01-04T14:28:31.296303,1.928615,6.991827,-5.953342,-0.150272,-0.025656,0.026878
2026-01-04T14:28:31.306303,1.866401,6.762116,-6.206981,-0.061086,-0.007330,0.026878
2026-01-04T14:28:31.316303,1.899901,6.589833,-6.264409,0.046425,0.008552,0.037873
2026-01-04T14:28:31.325303,1.703689,6.824330,-6.163911,0.182037,0.028099,0.039095
2026-01-04T14:28:31.335303,1.593619,7.326822,-6.317051,0.280997,0.032986,0.036651
2026-01-04T14:28:31.344303,1.483550,7.843672,-6.163911,0.267558,0.002443,0.034208
2026-01-04T14:28:31.354303,1.531406,8.044669,-6.053841,0.167377,-0.048869,0.034208
2026-01-04T14:28:31.364303,1.588834,8.164310,-5.905486,0.021991,-0.094073,0.026878
2026-01-04T14:28:31.373303,1.837687,7.853243,-5.891129,-0.127059,-0.125838,0.019547
2026-01-04T14:28:31.383303,2.100898,7.312465,-6.197410,-0.232128,-0.125838,0.029321
2026-01-04T14:28:31.393303,2.163111,6.771687,-6.513263,-0.227241,-0.081855,0.025656
2026-01-04T14:28:31.402303,2.143969,6.570690,-6.565905,-0.128281,-0.021991,0.014660
2026-01-04T14:28:31.412303,1.986042,6.628118,-6.618547,-0.006108,0.004886,0.012217
2026-01-04T14:28:31.421303,1.756331,6.881757,-6.623332,0.091629,0.004886,0.007330
2026-01-04T14:28:31.431303,1.708475,7.168896,-6.412764,0.133168,-0.020769,0.004886
2026-01-04T14:28:31.441303,1.631905,7.398607,-6.049055,0.119729,-0.061086,0.002443
2026-01-04T14:28:31.450303,1.737189,7.599604,-5.972485,0.070860,-0.100181,0.002443
2026-01-04T14:28:31.460303,1.919043,7.671389,-6.101697,0.006108,-0.108733,0.008552
2026-01-04T14:28:31.469303,1.971685,7.671389,-6.470192,-0.046425,-0.079412,0.017104
2026-01-04T14:28:31.479303,1.942971,7.762316,-6.585047,-0.095294,-0.023212,0.024434
2026-01-04T14:28:31.489303,1.732403,7.714460,-6.364908,-0.125838,0.018325,0.023212
2026-01-04T14:28:31.498303,1.402194,7.609175,-6.250052,-0.144164,0.021991,0.023212
2026-01-04T14:28:31.508303,1.373480,7.408178,-6.015556,-0.134390,-0.004886,0.015882
2026-01-04T14:28:31.518303,1.454836,7.264609,-5.824130,-0.106290,-0.042760,0.003665
2026-01-04T14:28:31.527303,1.564905,7.188039,-5.752345,-0.075747,-0.070860,-0.010995
2026-01-04T14:28:31.537303,1.794616,7.202396,-5.862415,-0.047647,-0.078190,-0.021991
2026-01-04T14:28:31.546303,1.909472,7.317251,-6.092126,-0.023212,-0.059864,-0.029321
2026-01-04T14:28:31.556303,1.871187,7.456035,-6.307480,-0.030543,-0.023212,-0.030543
2026-01-04T14:28:31.566303,1.861615,7.604390,-6.422335,-0.061086,0.003665,-0.031764
2026-01-04T14:28:31.575303,1.746760,7.676174,-6.326622,-0.109955,0.007330,-0.039095
2026-01-04T14:28:31.585303,1.689332,7.594818,-6.336194,-0.161268,-0.009773,-0.035430
2026-01-04T14:28:31.594303,1.655833,7.489534,-6.221338,-0.191811,-0.035430,-0.040317
2026-01-04T14:28:31.604303,1.713260,7.336394,-5.943771,-0.191811,-0.064751,-0.054977
2026-01-04T14:28:31.614303,1.823330,7.298108,-5.871986,-0.173485,-0.087964,-0.065973
2026-01-04T14:28:31.623303,1.914258,7.345965,-6.005984,-0.145385,-0.098960,-0.062308
2026-01-04T14:28:31.633303,1.885544,7.465606,-6.010770,-0.130725,-0.085521,-0.058643
2026-01-04T14:28:31.643303,1.808973,7.470392,-6.029912,-0.153938,-0.056199,-0.043982
2026-01-04T14:28:31.652303,1.674975,7.465606,-6.058626,-0.160046,-0.025656,-0.034208
2026-01-04T14:28:31.662303,1.478764,7.518248,-6.053841,-0.149051,-0.013439,-0.031764
2026-01-04T14:28:31.671303,1.368694,7.537391,-5.929414,-0.152716,-0.023212,-0.026878
2026-01-04T14:28:31.681303,1.277767,7.513462,-5.953342,-0.142942,-0.037873,-0.023212
2026-01-04T14:28:31.691303,1.292124,7.499106,-5.833701,-0.129503,-0.056199,-0.028099
2026-01-04T14:28:31.700303,1.435693,7.446463,-5.752345,-0.109955,-0.076969,-0.037873
2026-01-04T14:28:31.710303,1.584048,7.446463,-5.785845,-0.086742,-0.094073,-0.041538
2026-01-04T14:28:31.719303,1.756331,7.451249,-5.752345,-0.054977,-0.091629,-0.051312
2026-01-04T14:28:31.729303,1.856830,7.551748,-5.761916,-0.041538,-0.065973,-0.052534
2026-01-04T14:28:31.739303,1.837687,7.613961,-6.058626,-0.043982,-0.017104,-0.043982
2026-01-04T14:28:31.748303,1.665404,7.709674,-6.049055,-0.053756,0.037873,-0.046425
2026-01-04T14:28:31.758303,1.296909,7.767102,-5.852844,-0.092851,0.058643,-0.042760
2026-01-04T14:28:31.768303,1.124626,7.714460,-5.766702,-0.149051,0.026878,-0.030543
2026-01-04T14:28:31.777303,1.100698,7.642675,-5.733202,-0.178372,-0.024434,-0.025656
2026-01-04T14:28:31.787303,1.210768,7.451249,-5.465206,-0.172263,-0.068416,-0.024434
2026-01-04T14:28:31.796303,1.445264,7.331608,-5.254638,-0.133168,-0.094073,-0.025656
2026-01-04T14:28:31.806303,1.641476,7.240681,-5.412564,-0.067195,-0.090408,-0.023212
2026-01-04T14:28:31.816303,1.756331,7.255038,-5.608776,0.015882,-0.048869,-0.023212
2026-01-04T14:28:31.825303,1.727617,7.389036,-5.733202,0.079412,0.002443,-0.019547
2026-01-04T14:28:31.835303,1.584048,7.609175,-5.785845,0.102625,0.029321,-0.004886
2026-01-04T14:28:31.844303,1.392622,7.733602,-6.072983,0.074525,0.045204,0.009773
2026-01-04T14:28:31.854303,1.215553,7.896314,-6.106483,0.021991,0.048869,0.019547
2026-01-04T14:28:31.864303,1.024128,7.791030,-5.814558,-0.056199,0.017104,0.024434
2026-01-04T14:28:31.873303,1.033699,7.556533,-5.570491,-0.127059,-0.047647,0.035430
2026-01-04T14:28:31.883303,1.225125,7.384250,-5.465206,-0.133168,-0.101403,0.036651
2026-01-04T14:28:31.893303,1.483550,7.178467,-5.546562,-0.061086,-0.120951,0.024434
2026-01-04T14:28:31.902303,1.794616,7.221538,-5.685346,0.031764,-0.107512,0.013439
2026-01-04T14:28:31.912303,1.981257,7.355536,-5.809773,0.109955,-0.075747,0.010995
2026-01-04T14:28:31.921303,1.947757,7.628318,-6.116054,0.158824,-0.030543,0.017104
2026-01-04T14:28:31.931303,1.823330,7.934599,-6.221338,0.128281,0.026878,0.028099
2026-01-04T14:28:31.941303,1.531406,8.015955,-6.154339,0.037873,0.073303,0.036651
2026-01-04T14:28:31.950303,1.158126,8.049455,-6.130411,-0.041538,0.080634,0.040317
2026-01-04T14:28:31.960303,1.000199,7.905885,-6.087340,-0.117286,0.039095,0.036651
2026-01-04T14:28:31.969303,1.071984,7.647461,-5.895914,-0.172263,-0.037873,0.029321
2026-01-04T14:28:31.979303,1.292124,7.250252,-5.714060,-0.131946,-0.111177,0.010995
2026-01-04T14:28:31.989303,1.646261,7.298108,-5.642275,-0.026878,-0.152716,-0.015882
2026-01-04T14:28:31.998303,1.942971,7.345965,-5.728417,0.042760,-0.147829,-0.020769
2026-01-04T14:28:32.008303,2.172682,7.556533,-5.742774,0.065973,-0.089186,-0.009773
2026-01-04T14:28:32.018303,2.134397,7.709674,-5.608776,0.043982,0.009773,-0.010995
2026-01-04T14:28:32.027303,1.770688,7.795816,-5.728417,-0.024434,0.102625,0.010995
2026-01-04T14:28:32.037303,1.368694,7.680960,-6.092126,-0.090408,0.152716,0.031764
2026-01-04T14:28:32.046303,0.957129,7.503891,-6.221338,-0.128281,0.140498,0.046425
2026-01-04T14:28:32.056303,0.741775,7.307680,-5.867201,-0.118507,0.064751,0.040317
2026-01-04T14:28:32.066303,0.875773,7.183253,-5.647061,-0.032986,-0.056199,0.026878
2026-01-04T14:28:32.075303,1.234696,7.379464,-5.843272,0.083077,-0.162490,0.002443
2026-01-04T14:28:32.085303,1.794616,7.590033,-5.900700,0.150272,-0.208915,0.002443
2026-01-04T14:28:32.094303,2.124826,7.695317,-5.771488,0.138055,-0.175929,0.006108
2026-01-04T14:28:32.104303,2.277967,7.881957,-5.809773,0.069638,-0.085521,0.036651
2026-01-04T14:28:32.114303,2.091326,7.920242,-5.929414,-0.010995,0.025656,0.051312
2026-01-04T14:28:32.123303,1.651047,7.905885,-5.809773,-0.090408,0.113620,0.052534
2026-01-04T14:28:32.133303,1.196411,7.724031,-5.833701,-0.141720,0.129503,0.050090
2026-01-04T14:28:32.143303,0.899701,7.389036,-5.852844,-0.149051,0.065973,0.040317
2026-01-04T14:28:32.152303,0.899701,7.135396,-5.680560,-0.112399,-0.042760,0.019547
2026-01-04T14:28:32.162303,1.253839,6.891329,-5.848058,0.002443,-0.140498,0.004886
2026-01-04T14:28:32.171303,1.737189,7.135396,-5.804987,0.144164,-0.179594,-0.014660
2026-01-04T14:28:32.181303,2.167897,7.350751,-5.670989,0.196698,-0.160046,-0.021991
2026-01-04T14:28:32.191303,2.311466,7.700103,-6.068198,0.184481,-0.096516,-0.003665
2026-01-04T14:28:32.200303,2.172682,8.059026,-6.250052,0.107512,-0.001221,0.007330
2026-01-04T14:28:32.210303,1.799402,8.169096,-6.082555,-0.047647,0.078190,0.018325
2026-01-04T14:28:32.219303,1.344766,7.977670,-5.895914,-0.172263,0.095294,0.028099
2026-01-04T14:28:32.229303,1.182054,7.628318,-5.747559,-0.239459,0.037873,0.025656
2026-01-04T14:28:32.239303,1.225125,7.331608,-5.623133,-0.239459,-0.051312,0.009773
2026-01-04T14:28:32.248303,1.584048,7.111468,-5.508277,-0.168598,-0.122173,-0.009773
2026-01-04T14:28:32.258303,1.880758,7.044469,-5.642275,-0.056199,-0.142942,-0.031764
2026-01-04T14:28:32.268303,2.206182,7.030112,-6.039484,0.070860,-0.123394,-0.056199
2026-01-04T14:28:32.277303,2.335394,7.207181,-6.393621,0.189368,-0.089186,-0.065973
2026-01-04T14:28:32.287303,2.301895,7.551748,-6.771687,0.266337,-0.035430,-0.069638
2026-01-04T14:28:32.296303,2.072184,7.901100,-6.915257,0.265115,0.030543,-0.063529
2026-01-04T14:28:32.306303,1.679761,8.226524,-6.628118,0.188146,0.078190,-0.051312
2026-01-04T14:28:32.316303,1.282552,8.575876,-6.135197,0.073303,0.083077,-0.062308
2026-01-04T14:28:32.325303,1.038485,8.628518,-6.192624,-0.090408,0.039095,-0.073303
2026-01-04T14:28:32.335303,1.014556,8.240881,-6.168696,-0.313984,-0.037873,-0.070860
2026-01-04T14:28:32.344303,1.311266,7.566105,-5.580062,-0.486248,-0.098960,-0.073303
2026-01-04T14:28:32.354303,1.588834,6.939185,-5.484349,-0.491135,-0.118507,-0.079412
2026-01-04T14:28:32.364303,1.899901,6.580262,-5.661418,-0.370184,-0.102625,-0.098960
2026-01-04T14:28:32.373303,2.148754,6.513263,-5.656632,-0.186924,-0.054977,-0.119729
2026-01-04T14:28:32.383303,2.301895,6.867400,-5.915057,0.006108,0.013439,-0.128281
2026-01-04T14:28:32.393303,2.143969,7.393821,-6.269195,0.134390,0.080634,-0.131946
2026-01-04T14:28:32.402303,1.808973,7.948956,-6.221338,0.167377,0.123394,-0.136833
2026-01-04T14:28:32.412303,1.488335,8.389236,-6.135197,0.113620,0.134390,-0.139277
2026-01-04T14:28:32.421303,1.081555,8.685946,-5.967699,0.002443,0.107512,-0.150272
2026-01-04T14:28:32.431303,0.885344,8.657232,-5.656632,-0.168598,0.025656,-0.157603
2026-01-04T14:28:32.441303,0.914058,8.173882,-5.556134,-0.321315,-0.076969,-0.147829
2026-01-04T14:28:32.450303,1.172483,7.628318,-5.675775,-0.377514,-0.163711,-0.141720
2026-01-04T14:28:32.460303,1.469193,7.135396,-5.498706,-0.328645,-0.189368,-0.140498
2026-01-04T14:28:32.469303,1.617548,6.929614,-5.355136,-0.202807,-0.152716,-0.138055
2026-01-04T14:28:32.479303,1.679761,7.154539,-5.450849,-0.034208,-0.080634,-0.139277
2026-01-04T14:28:32.489303,1.473978,7.666603,-5.431707,0.100181,-0.010995,-0.142942
2026-01-04T14:28:32.498303,1.205982,8.216952,-5.431707,0.116064,0.025656,-0.135612
2026-01-04T14:28:32.508303,0.899701,8.542376,-5.532205,0.024434,0.032986,-0.117286
2026-01-04T14:28:32.518303,0.588634,8.561519,-5.393422,-0.114842,-0.004886,-0.107512
2026-01-04T14:28:32.527303,0.693918,8.288737,-5.273781,-0.257785,-0.084299,-0.095294
2026-01-04T14:28:32.537303,0.870987,7.867600,-5.283352,-0.332310,-0.145385,-0.089186
2026-01-04T14:28:32.546303,1.105484,7.398607,-5.245067,-0.309097,-0.158824,-0.097738
2026-01-04T14:28:32.556303,1.373480,7.068397,-5.182853,-0.207694,-0.133168,-0.101403
2026-01-04T14:28:32.566303,1.454836,6.996613,-5.312066,-0.058643,-0.094073,-0.108733
2026-01-04T14:28:32.575303,1.426122,7.255038,-5.388636,0.084299,-0.051312,-0.112399
2026-01-04T14:28:32.585303,1.239482,7.599604,-5.575276,0.169820,-0.014660,-0.105068
2026-01-04T14:28:32.594303,1.129412,7.853243,-5.685346,0.195476,0.002443,-0.096516
2026-01-04T14:28:32.604303,0.942772,8.135596,-5.809773,0.164933,-0.014660,-0.086742
2026-01-04T14:28:32.614303,0.933200,8.240881,-5.785845,0.081855,-0.043982,-0.072082
2026-01-04T14:28:32.623303,0.923629,8.240881,-5.517848,-0.018325,-0.067195,-0.058643
2026-01-04T14:28:32.633303,0.971485,8.015955,-5.355136,-0.097738,-0.068416,-0.052534
2026-01-04T14:28:32.643303,0.937986,7.805387,-5.460421,-0.133168,-0.051312,-0.051312
2026-01-04T14:28:32.652303,0.957129,7.671389,-5.584847,-0.135612,-0.023212,-0.041538
2026-01-04T14:28:32.662303,0.894915,7.408178,-5.312066,-0.118507,0.000000,-0.030543
2026-01-04T14:28:32.671303,0.794417,7.379464,-5.307280,-0.058643,0.024434,-0.015882
2026-01-04T14:28:32.681303,0.674775,7.542176,-5.364708,0.041538,0.045204,-0.009773
2026-01-04T14:28:32.691303,0.550349,7.776673,-5.331208,0.090408,0.051312,-0.001221
2026-01-04T14:28:32.700303,0.440279,7.939385,-5.340780,0.096516,0.035430,0.021991
2026-01-04T14:28:32.710303,0.459421,8.073383,-5.426921,0.089186,0.015882,0.042760
2026-01-04T14:28:32.719303,0.555134,8.035098,-5.517848,0.076969,0.003665,0.057421
2026-01-04T14:28:32.729303,0.674775,7.953742,-5.283352,0.076969,-0.007330,0.062308
2026-01-04T14:28:32.739303,0.794417,7.862815,-5.235495,0.100181,-0.012217,0.068416
2026-01-04T14:28:32.748303,0.947557,7.786244,-5.489135,0.141720,-0.006108,0.075747
2026-01-04T14:28:32.758303,1.028913,7.824529,-5.513063,0.180816,0.009773,0.073303
2026-01-04T14:28:32.768303,1.062413,7.786244,-5.331208,0.191811,0.021991,0.080634
2026-01-04T14:28:32.777303,1.086341,7.652246,-5.455635,0.196698,0.029321,0.103847
2026-01-04T14:28:32.787303,0.976271,7.623532,-5.776273,0.211359,0.041538,0.133168
2026-01-04T14:28:32.796303,0.904486,7.623532,-5.809773,0.211359,0.054977,0.152716
2026-01-04T14:28:32.806303,0.803988,7.637889,-5.742774,0.201585,0.056199,0.182037
2026-01-04T14:28:32.816303,0.722632,7.633104,-5.704489,0.224798,0.041538,0.193033
2026-01-04T14:28:32.825303,0.746560,7.757530,-5.575276,0.282219,0.026878,0.185702
2026-01-04T14:28:32.835303,0.842273,8.006384,-5.503491,0.315206,0.018325,0.169820
2026-01-04T14:28:32.844303,0.923629,7.996813,-5.546562,0.283441,0.004886,0.149051
2026-01-04T14:28:32.854303,1.115055,7.819744,-5.560919,0.195476,-0.007330,0.146607
2026-01-04T14:28:32.864303,1.263410,7.350751,-5.690132,0.127059,0.018325,0.152716
2026-01-04T14:28:32.873303,1.306481,6.972685,-5.938985,0.130725,0.086742,0.169820
2026-01-04T14:28:32.883303,1.100698,6.833901,-6.254838,0.172263,0.163711,0.190589
2026-01-04T14:28:32.893303,0.756131,6.915257,-6.331408,0.259006,0.195476,0.207694
2026-01-04T14:28:32.902303,0.598205,7.216752,-5.982056,0.354301,0.156381,0.204028
2026-01-04T14:28:32.912303,0.636490,7.551748,-5.651846,0.394618,0.072082,0.218689
2026-01-04T14:28:32.921303,1.000199,7.791030,-5.489135,0.392175,-0.004886,0.226020
2026-01-04T14:28:32.931303,1.426122,7.934599,-5.422136,0.365297,-0.023212,0.227241
2026-01-04T14:28:32.941303,1.746760,8.092526,-5.522634,0.304210,0.031764,0.234572
2026-01-04T14:28:32.950303,1.875972,7.905885,-5.522634,0.201585,0.124616,0.249232
2026-01-04T14:28:32.960303,1.804188,7.460820,-5.704489,0.131946,0.230907,0.280997
2026-01-04T14:28:32.969303,1.440479,7.058826,-5.986842,0.134390,0.332310,0.317649
2026-01-04T14:28:32.979303,1.033699,6.857829,-6.063412,0.196698,0.409279,0.346971
2026-01-04T14:28:32.989303,0.468993,6.991827,-5.862415,0.300545,0.425162,0.359188
2026-01-04T14:28:32.998303,0.162711,7.168896,-5.843272,0.392175,0.356745,0.368962
2026-01-04T14:28:33.008303,0.244067,7.446463,-6.159125,0.465479,0.234572,0.372627
2026-01-04T14:28:33.018303,0.555134,7.776673,-5.905486,0.487470,0.103847,0.361632
2026-01-04T14:28:33.027303,1.091127,7.786244,-5.996413,0.423940,0.010995,0.360410
2026-01-04T14:28:33.037303,1.689332,7.518248,-6.202196,0.364075,-0.025656,0.360410
2026-01-04T14:28:33.046303,2.100898,7.144968,-5.637490,0.255341,-0.021991,0.348193
2026-01-04T14:28:33.056303,2.531606,6.532405,-5.178068,0.149051,0.010995,0.364075
2026-01-04T14:28:33.066303,2.703889,6.264409,-4.867001,0.129503,0.086742,0.406836
2026-01-04T14:28:33.075303,2.689532,6.240481,-4.881358,0.197920,0.235793,0.411723
2026-01-04T14:28:33.085303,2.249253,6.417550,-5.111069,0.290771,0.387288,0.417831
2026-01-04T14:28:33.094303,1.761117,6.360122,-5.134997,0.335975,0.465479,0.431270
2026-01-04T14:28:33.104303,1.268195,6.364908,-5.331208,0.431270,0.450818,0.437379
2026-01-04T14:28:33.114303,1.201196,6.470192,-5.230710,0.565661,0.372627,0.425162
2026-01-04T14:28:33.123303,1.349551,6.522834,-5.067998,0.648738,0.276111,0.411723
2026-01-04T14:28:33.133303,1.732403,6.561119,-5.225924,0.709825,0.204028,0.412944
2026-01-04T14:28:33.143303,2.076970,6.699903,-5.637490,0.715933,0.193033,0.430049
2026-01-04T14:28:33.152303,2.335394,6.771687,-6.202196,0.640186,0.224798,0.476474
2026-01-04T14:28:33.162303,2.292324,6.766902,-6.719045,0.546113,0.265115,0.551000
2026-01-04T14:28:33.171303,2.076970,6.819544,-6.857829,0.450818,0.280997,0.620638
2026-01-04T14:28:33.181303,1.832902,6.594619,-6.905686,0.388510,0.249232,0.670729
2026-01-04T14:28:33.191303,1.737189,6.379265,-6.699903,0.438601,0.173485,0.692721
2026-01-04T14:28:33.200303,1.808973,6.235695,-6.441478,0.604756,0.080634,0.674395
2026-01-04T14:28:33.210303,2.115255,6.221338,-6.355336,0.819780,0.013439,0.638964
2026-01-04T14:28:33.219303,2.493321,6.345765,-6.384050,0.963945,-0.012217,0.609643
2026-01-04T14:28:33.229303,2.732603,6.575476,-6.991827,0.994488,0.025656,0.602312
2026-01-04T14:28:33.239303,2.842673,6.752545,-7.192824,0.962723,0.086742,0.587652
2026-01-04T14:28:33.248303,2.847458,6.738188,-7.192824,0.819780,0.116064,0.591317
2026-01-04T14:28:33.258303,2.971885,6.393621,-7.623532,0.638964,0.094073,0.619417
2026-01-04T14:28:33.268303,3.096312,6.125625,-7.987241,0.540004,0.046425,0.620638
2026-01-04T14:28:33.277303,3.421736,6.092126,-7.925028,0.499687,-0.012217,0.603534
2026-01-04T14:28:33.287303,3.828516,6.029912,-7.848458,0.476474,-0.054977,0.577878
2026-01-04T14:28:33.296303,4.201796,6.111268,-7.747959,0.467922,-0.062308,0.542448
2026-01-04T14:28:33.306303,4.594219,6.106483,-7.724031,0.443488,-0.025656,0.509461
2026-01-04T14:28:33.316303,4.675575,5.900700,-8.303094,0.399505,0.052534,0.493579
2026-01-04T14:28:33.325303,4.613361,5.613561,-8.288737,0.372627,0.155159,0.454483
2026-01-04T14:28:33.335303,4.450650,5.359922,-8.327022,0.381179,0.232128,0.415388
2026-01-04T14:28:33.344303,4.086941,5.374279,-9.164510,0.419053,0.252898,0.408057
2026-01-04T14:28:33.354303,3.766302,5.565705,-9.695717,0.447153,0.217467,0.362853
2026-01-04T14:28:33.364303,3.651447,5.848058,-9.389435,0.400727,0.127059,0.307876
2026-01-04T14:28:33.373303,3.866801,6.063412,-9.255437,0.290771,0.003665,0.272445
2026-01-04T14:28:33.383303,4.302295,6.278766,-9.035298,0.163711,-0.101403,0.208915
2026-01-04T14:28:33.393303,4.804787,6.326622,-8.930013,-0.023212,-0.151494,0.136833
2026-01-04T14:28:33.402303,5.254638,6.082555,-9.059226,-0.245567,-0.133168,0.096516
2026-01-04T14:28:33.412303,5.513063,5.781059,-8.719445,-0.382401,-0.043982,0.032986
2026-01-04T14:28:33.421303,5.493920,5.513063,-8.518448,-0.450818,0.067195,-0.042760
2026-01-04T14:28:33.431303,5.288137,5.206781,-8.805587,-0.454483,0.149051,-0.083077
2026-01-04T14:28:33.441303,4.938785,5.206781,-9.279366,-0.360410,0.193033,-0.129503
2026-01-04T14:28:33.450303,4.632504,5.536991,-9.288937,-0.227241,0.199142,-0.199142
2026-01-04T14:28:33.460303,4.369294,5.910271,-8.997012,-0.168598,0.158824,-0.255341
2026-01-04T14:28:33.469303,4.149154,6.293123,-8.968299,-0.229685,0.073303,-0.289550
2026-01-04T14:28:33.479303,4.101297,6.580262,-9.030512,-0.389731,-0.021991,-0.321315
2026-01-04T14:28:33.489303,4.173082,6.604190,-8.815158,-0.605978,-0.094073,-0.367740
2026-01-04T14:28:33.498303,4.316651,6.455835,-8.580661,-0.819780,-0.152716,-0.401949
2026-01-04T14:28:33.508303,4.589433,6.407978,-8.489734,-0.973718,-0.206472,-0.442266
2026-01-04T14:28:33.518303,4.914857,6.202196,-8.671589,-1.080009,-0.244346,-0.489913
2026-01-04T14:28:33.527303,5.235495,6.049055,-8.858229,-1.121548,-0.257785,-0.518013
2026-01-04T14:28:33.537303,5.422136,5.900700,-9.365507,-1.081231,-0.197920,-0.529009
2026-01-04T14:28:33.546303,5.288137,6.025127,-9.422935,-0.970053,-0.072082,-0.558330
2026-01-04T14:28:33.556303,4.934000,6.446264,-9.360722,-0.858876,0.041538,-0.591317
2026-01-04T14:28:33.566303,4.493720,6.967899,-9.489934,-0.802676,0.090408,-0.619417
2026-01-04T14:28:33.575303,4.096512,7.432106,-9.346365,-0.857654,0.079412,-0.664621
2026-01-04T14:28:33.585303,4.101297,7.814958,-9.236295,-1.031140,-0.003665,-0.703716
2026-01-04T14:28:33.594303,4.661218,7.915457,-9.355936,-1.297477,-0.157603,-0.724486
2026-01-04T14:28:33.604303,5.771488,7.628318,-9.590432,-1.599244,-0.305432,-0.741590
2026-01-04T14:28:33.614303,7.101897,7.015755,-10.403992,-1.775174,-0.294436,-0.779463
2026-01-04T14:28:33.623303,8.216952,6.675975,-11.796615,-1.776395,-0.041538,-0.797789
2026-01-04T14:28:33.633303,8.575876,6.575476,-12.452248,-1.678657,0.399505,-0.842993
2026-01-04T14:28:33.643303,8.370093,6.666403,-12.638888,-1.549153,0.884532,-0.889419
2026-01-04T14:28:33.652303,7.671389,7.063612,-12.969098,-1.425759,1.263269,-0.896749
2026-01-04T14:28:33.662303,7.058826,7.690531,-12.892528,-1.378111,1.485623,-0.952949
2026-01-04T14:28:33.671303,6.771687,8.264809,-12.112468,-1.380555,1.596801,-1.042135
2026-01-04T14:28:33.681303,6.948756,8.824729,-11.112268,-1.408654,1.738522,-1.176526
2026-01-04T14:28:33.691303,7.298108,9.480363,-10.762916,-1.508836,2.024406,-1.351233
2026-01-04T14:28:33.700303,7.518248,10.174281,-9.963713,-1.852143,2.441016,-1.549153
2026-01-04T14:28:33.710303,7.479963,9.868000,-9.738787,-2.481334,2.994460,-1.704313
2026-01-04T14:28:33.719303,6.637689,8.561519,-10.475777,-3.141068,3.608991,-1.795943
2026-01-04T14:28:33.729303,5.201996,6.723831,-11.571690,-3.727498,4.145330,-1.836260
2026-01-04T14:28:33.739303,3.273381,4.627718,-10.609775,-4.124561,4.554610,-1.837482
2026-01-04T14:28:33.748303,1.450050,2.617747,-5.833701,-4.161213,4.778186,-1.902233
2026-01-04T14:28:33.758303,0.062213,0.837487,0.502492,-3.979175,4.781852,-1.949881
2026-01-04T14:28:33.768303,5.426921,-9.911071,5.618347,-3.896097,4.500854,-2.284635
2026-01-04T14:28:33.777303,-0.287138,-1.521835,1.378265,-2.184453,5.573533,-2.158797
2026-01-04T14:28:33.787303,-2.684746,1.430907,1.536192,0.199142,5.149592,-3.287676
2026-01-04T14:28:33.796303,-0.344566,3.359522,0.535992,-0.354301,2.938261,-2.970026
2026-01-04T14:28:33.806303,-1.105484,6.039484,0.516849,0.158824,2.101375,-2.669480
2026-01-04T14:28:33.816303,0.315852,7.661817,1.708475,0.430049,1.560149,-2.597398
2026-01-04T14:28:33.825303,0.923629,9.734002,1.660618,0.079412,1.028696,-2.447125
2026-01-04T14:28:33.835303,1.115055,10.734202,1.842473,-0.526565,0.641408,-2.218662
2026-01-04T14:28:33.844303,0.425922,10.461420,0.851844,-1.205847,0.425162,-1.963320
2026-01-04T14:28:33.854303,-0.722632,9.064012,0.014356,-1.660331,0.280997,-1.809382
2026-01-04T14:28:33.864303,-1.603191,7.590033,-1.014556,-1.380555,0.097738,-1.871690
2026-01-04T14:28:33.873303,-3.637090,9.992427,-9.279366,-0.764803,-0.243124,-1.948659
2026-01-04T14:28:33.883303,-3.632304,10.169496,-3.512663,-0.695164,-0.485026,-2.029293
2026-01-04T14:28:33.893303,-3.072384,10.925627,-0.827916,-0.959058,-0.775798,-2.105041
2026-01-04T14:28:33.902303,-1.837687,10.863414,2.096112,-1.364672,-0.995710,-2.079384
2026-01-04T14:28:33.912303,-0.354137,9.638289,3.809373,-2.029293,-1.020144,-1.876577
2026-01-04T14:28:33.921303,0.746560,7.680960,3.617947,-2.439795,-0.583987,-1.555262
2026-01-04T14:28:33.931303,0.038285,6.790830,1.292124,-1.725083,0.095294,-1.577253
2026-01-04T14:28:33.941303,-1.292124,6.029912,0.110069,-1.191186,0.730594,-1.533271
2026-01-04T14:28:33.950303,-3.019742,5.599204,0.076570,-0.773355,1.077566,-1.484402
2026-01-04T14:28:33.960303,-5.111069,6.929614,-3.196810,0.335975,1.076344,-1.844812
2026-01-04T14:28:33.969303,-6.163911,6.116054,-6.058626,-0.019547,0.821002,-1.684765
2026-01-04T14:28:33.979303,-1.813759,8.930013,-3.330809,-0.465479,0.510683,-1.463632
2026-01-04T14:28:33.989303,-4.393222,8.293523,-0.468993,-0.660956,0.079412,-1.572366
2026-01-04T14:28:33.998303,-2.522035,8.432306,1.607976,-0.894306,-0.287106,-1.547932
2026-01-04T14:28:34.008303,-0.856630,8.231309,2.321037,-0.988379,-0.405614,-1.374446
2026-01-04T14:28:34.018303,0.550349,7.958527,3.292523,-0.819780,-0.174707,-1.221730
2026-01-04T14:28:34.027303,0.813559,8.542376,2.866601,-0.298102,0.299323,-1.248608
2026-01-04T14:28:34.037303,-0.287138,9.848857,1.249053,0.316428,0.799011,-1.368337
2026-01-04T14:28:34.046303,-1.990828,11.887542,-0.062213,0.585208,1.163087,-1.536936
2026-01-04T14:28:34.056303,-3.048455,13.457234,0.234496,0.503352,1.214399,-1.800830
2026-01-04T14:28:34.066303,-0.799202,16.711473,-2.364108,-0.227241,1.084896,-1.830151
2026-01-04T14:28:34.075303,-4.981856,13.552947,-0.200997,-1.192408,0.637743,-1.949881
2026-01-04T14:28:34.085303,-4.393222,11.442477,1.698904,-2.053728,0.226020,-2.023185
2026-01-04T14:28:34.094303,-3.507877,8.312665,2.100898,-2.493551,-0.021991,-1.940107
2026-01-04T14:28:34.104303,-2.981456,5.670989,2.325823,-2.372600,-0.067195,-1.806938
2026-01-04T14:28:34.114303,-2.780459,3.589233,2.258824,-1.913229,0.140498,-1.688431
2026-01-04T14:28:34.123303,-3.483949,2.402393,1.526620,-1.108109,0.510683,-1.584584
2026-01-04T14:28:34.133303,-4.761716,2.895315,0.957129,-0.080634,0.812450,-1.477071
2026-01-04T14:28:34.143303,-6.130411,4.809573,0.775274,0.772133,0.818559,-1.384220
2026-01-04T14:28:34.152303,-6.412764,7.360322,1.062413,1.235169,0.513126,-1.321912
2026-01-04T14:28:34.162303,-6.498906,9.308079,0.770488,1.354898,0.070860,-1.241277
2026-01-04T14:28:34.171303,-5.594419,11.241480,1.033699,1.220508,-0.328645,-1.148426
2026-01-04T14:28:34.181303,-4.498506,12.476177,1.177268,0.895528,-0.554665,-1.060461
2026-01-04T14:28:34.191303,-3.919443,12.945170,0.942772,0.420275,-0.526565,-0.949284
2026-01-04T14:28:34.200303,-3.957728,12.844671,0.196211,-0.111177,-0.300545,-0.847880
2026-01-04T14:28:34.210303,-4.527220,12.165110,-0.717846,-0.681725,-0.043982,-0.794124
2026-01-04T14:28:34.219303,-5.297709,10.643274,-1.320838,-1.257160,0.090408,-0.791681
2026-01-04T14:28:34.229303,-5.737988,8.355736,-1.502692,-1.621236,0.045204,-0.816115
2026-01-04T14:28:34.239303,-5.450849,6.269195,-0.780060,-1.576031,-0.213802,-0.888197
2026-01-04T14:28:34.248303,-4.244867,4.953142,0.598205,-1.144761,-0.685390,-0.979827
2026-01-04T14:28:34.258303,-2.531606,4.804787,1.828116,-0.486248,-1.160643,-0.949284
2026-01-04T14:28:34.268303,-0.492921,5.599204,3.589233,0.034208,-1.280373,-0.757472
2026-01-04T14:28:34.277303,0.047856,6.771687,3.531806,0.399505,-0.928514,-0.630412
2026-01-04T14:28:34.287303,-0.531206,8.173882,1.354337,0.878424,-0.310319,-0.546113
2026-01-04T14:28:34.296303,-1.990828,9.327222,-0.110069,0.927293,0.301767,-0.411723
2026-01-04T14:28:34.306303,-4.158725,10.274780,0.780060,1.152091,0.646295,-0.715933
2026-01-04T14:28:34.316303,-8.006384,11.815757,-4.350151,0.520457,0.582765,-0.700051
2026-01-04T14:28:34.325303,-8.805587,11.040483,-0.583848,-0.245567,0.084299,-0.607199
2026-01-04T14:28:34.335303,-8.102097,10.451849,0.081355,-0.653625,-0.612086,-0.794124
2026-01-04T14:28:34.344303,-5.594419,9.470791,1.411765,-0.692721,-1.320690,-0.977384
2026-01-04T14:28:34.354303,-2.627319,9.059226,1.942971,-0.359188,-1.769065,-1.005483
2026-01-04T14:28:34.364303,0.009571,9.461220,2.723032,0.045204,-1.701870,-1.023809
2026-01-04T14:28:34.373303,0.646062,9.939785,2.225325,0.554665,-1.144761,-1.183856
2026-01-04T14:28:34.383303,-0.344566,10.743773,0.942772,0.779463,-0.255341,-1.081231
2026-01-04T14:28:34.393303,-2.732603,10.963913,0.071784,0.608421,0.541226,-0.935845
2026-01-04T14:28:34.402303,-6.077769,10.872985,-0.799202,0.649960,0.817337,-1.194852
2026-01-04T14:28:34.412303,-8.140382,11.298908,-1.708475,-0.012217,0.464257,-1.098335
2026-01-04T14:28:34.421303,-9.858429,10.054640,-1.497906,-0.659734,-0.270002,-1.067792
2026-01-04T14:28:34.431303,-8.685946,8.934799,-0.803988,-1.197295,-1.011592,-1.188743
2026-01-04T14:28:34.441303,-6.522834,7.657032,0.210568,-1.521054,-1.470963,-1.213178
2026-01-04T14:28:34.450303,-4.235296,6.321837,1.488335,-1.599244,-1.555262,-1.153313
2026-01-04T14:28:34.460303,-2.699103,5.182853,2.033899,-1.396437,-1.293812,-1.081231
2026-01-04T14:28:34.469303,-1.808973,4.149154,2.076970,-0.937067,-0.858876,-0.968832
2026-01-04T14:28:34.479303,-2.258824,4.019941,0.799202,-0.287106,-0.367740,-0.851545
2026-01-04T14:28:34.489303,-3.263810,4.321437,0.306281,0.343306,0.074525,-0.788015
2026-01-04T14:28:34.498303,-5.785845,5.608776,-2.522035,0.877202,0.276111,-0.847880
2026-01-04T14:28:34.508303,-7.269395,6.561119,-0.277567,1.282816,0.135612,-0.901636
2026-01-04T14:28:34.518303,-8.389236,8.370093,2.120040,1.362229,-0.389731,-1.047022
2026-01-04T14:28:34.527303,-7.527819,9.461220,4.163511,0.825889,-1.169195,-1.169195
2026-01-04T14:28:34.537303,-5.206781,9.221938,3.311666,0.050090,-1.748295,-1.142317
2026-01-04T14:28:34.546303,-3.215953,8.413164,2.517249,-0.596204,-1.751961,-1.077566
2026-01-04T14:28:34.556303,-2.598605,7.365107,2.766102,-1.097113,-1.252273,-1.034805
2026-01-04T14:28:34.566303,-2.895315,5.809773,3.278166,-1.424537,-0.626747,-0.899193
2026-01-04T14:28:34.575303,-4.115654,4.130011,1.832902,-1.381776,-0.237015,-0.827111
2026-01-04T14:28:34.585303,-5.489135,2.823530,0.569491,-0.882089,-0.158824,-0.910189
2026-01-04T14:28:34.594303,-6.029912,1.741974,-0.358923,-0.492357,-0.317649,-0.878424
2026-01-04T14:28:34.604303,-6.781259,2.493321,-0.287138,0.166155,-0.608421,-0.960279
2026-01-04T14:28:34.614303,-6.551548,3.670589,0.550349,0.866206,-0.951727,-1.088561
2026-01-04T14:28:34.623303,-6.072983,5.613561,1.636690,1.244943,-1.192408,-1.187521
2026-01-04T14:28:34.633303,-5.651846,7.412964,2.933600,1.148426,-1.227838,-1.238834
2026-01-04T14:28:34.643303,-5.431707,8.389236,3.517449,0.668286,-1.039692,-1.252273
2026-01-04T14:28:34.652303,-5.953342,8.480163,3.311666,0.041538,-0.737925,-1.241277
2026-01-04T14:28:34.662303,-6.967899,7.838886,3.407379,-0.555887,-0.486248,-1.209512
2026-01-04T14:28:34.671303,-7.795816,6.422335,3.536591,-1.036027,-0.414166,-1.186300
2026-01-04T14:28:34.681303,-8.197810,4.570291,2.957528,-1.266934,-0.522900,-1.125213
2026-01-04T14:28:34.691303,-8.097311,3.000599,2.129612,-1.209512,-0.702494,-1.080009
2026-01-04T14:28:34.700303,-7.834101,1.837687,1.454836,-0.928514,-0.845437,-1.053131
2026-01-04T14:28:34.710303,-7.700103,1.584048,1.469193,-0.487470,-0.922406,-1.034805
2026-01-04T14:28:34.719303,-7.791030,2.019542,2.340180,-0.054977,-0.933401,-1.040914
2026-01-04T14:28:34.729303,-8.087740,2.943171,4.173082,0.171042,-0.884532,-1.042135
2026-01-04T14:28:34.739303,-7.867600,3.718446,4.943571,-0.007330,-0.805120,-0.998153
2026-01-04T14:28:34.748303,-8.451449,3.919443,4.584648,-0.492357,-0.668286,-0.872315
2026-01-04T14:28:34.758303,-8.556733,3.335594,3.943371,-0.842993,-0.525343,-0.846659
2026-01-04T14:28:34.768303,-8.791230,2.201396,4.225724,-1.099557,-0.389731,-0.823446
2026-01-04T14:28:34.777303,-8.930013,1.823330,3.737588,-1.464854,-0.301767,-0.779463
2026-01-04T14:28:34.787303,-10.040283,-0.373280,4.646861,-0.927293,-0.282219,-0.792902
2026-01-04T14:28:34.796303,-8.609375,-0.564706,4.417150,-0.354301,-0.362853,-0.755029
2026-01-04T14:28:34.806303,-8.279166,-0.100498,3.847658,0.147829,-0.387288,-0.735481
2026-01-04T14:28:34.816303,-8.523234,0.957129,4.656432,0.570548,-0.366519,-0.752585
2026-01-04T14:28:34.825303,-9.068797,2.589034,6.149554,0.729372,-0.342084,-0.790459
2026-01-04T14:28:34.835303,-9.446863,4.024727,7.317251,0.431270,-0.345749,-0.790459
2026-01-04T14:28:34.844303,-9.317651,4.374079,6.829115,-0.307876,-0.353080,-0.763581
2026-01-04T14:28:34.854303,-8.968299,2.933600,5.565705,-1.089783,-0.244346,-0.687834
2026-01-04T14:28:34.864303,-9.365507,0.765703,5.785845,-1.462411,-0.018325,-0.643851
2026-01-04T14:28:34.873303,-10.001998,-1.095912,6.364908,-1.356120,0.162490,-0.592539
2026-01-04T14:28:34.883303,-10.877771,-2.038684,6.345765,-0.949284,0.194255,-0.514348
2026-01-04T14:28:34.893303,-11.318050,-2.316252,6.106483,-0.357966,0.122173,-0.452040
2026-01-04T14:28:34.902303,-11.662617,-1.584048,5.943771,0.312762,0.008552,-0.388510
2026-01-04T14:28:34.912303,-11.753544,0.033499,5.953342,0.875980,-0.118507,-0.335975
2026-01-04T14:28:34.921303,-11.858828,1.775474,6.192624,1.108109,-0.217467,-0.271224
2026-01-04T14:28:34.931303,-11.944970,3.230310,6.762116,0.963945,-0.266337,-0.180816
2026-01-04T14:28:34.941303,-11.815757,4.043870,7.192824,0.470366,-0.276111,-0.103847
2026-01-04T14:28:34.950303,-11.471191,3.742374,6.872186,-0.278554,-0.255341,0.006108
2026-01-04T14:28:34.960303,-11.365907,2.450250,6.259623,-0.929736,-0.161268,0.117286
2026-01-04T14:28:34.969303,-11.361121,0.641276,6.173482,-1.215621,-0.034208,0.212581
2026-01-04T14:28:34.979303,-11.653046,-1.052841,6.417550,-1.142317,0.028099,0.300545
2026-01-04T14:28:34.989303,-11.643474,-2.258824,6.288337,-0.713490,-0.004886,0.373849
2026-01-04T14:28:34.998303,-11.385049,-2.708675,6.001199,-0.048869,-0.098960,0.455705
2026-01-04T14:28:35.008303,-11.026126,-1.914258,5.910271,0.678060,-0.172263,0.537561
2026-01-04T14:28:35.018303,-10.772487,-0.157926,6.173482,1.257160,-0.197920,0.594982
2026-01-04T14:28:35.027303,-10.518848,1.708475,6.518048,1.469741,-0.197920,0.651182
2026-01-04T14:28:35.037303,-10.341779,3.019742,6.422335,1.299920,-0.182037,0.731816
2026-01-04T14:28:35.046303,-10.116853,3.675375,6.575476,0.884532,-0.141720,0.780685
2026-01-04T14:28:35.056303,-9.872786,3.507877,6.398407,0.312762,-0.085521,0.816115
2026-01-04T14:28:35.066303,-9.528219,2.536391,5.871986,-0.222354,-0.023212,0.866206
2026-01-04T14:28:35.075303,-9.355936,1.244267,5.460421,-0.511904,0.043982,0.910189
2026-01-04T14:28:35.085303,-9.255437,-0.124426,5.254638,-0.486248,0.094073,0.961501
2026-01-04T14:28:35.094303,-9.322436,-1.091127,5.020141,-0.210137,0.094073,1.015257
2026-01-04T14:28:35.104303,-9.221938,-1.363908,4.455435,0.240680,0.023212,1.094670
2026-01-04T14:28:35.114303,-9.183653,-0.703489,4.369294,0.799011,-0.085521,1.177747
2026-01-04T14:28:35.123303,-8.886943,0.775274,4.890929,1.270599,-0.205250,1.221730
2026-01-04T14:28:35.133303,-8.446663,2.340180,5.254638,1.462411,-0.282219,1.280373
2026-01-04T14:28:35.143303,-7.872386,3.594019,5.278566,1.390328,-0.263893,1.336572
2026-01-04T14:28:35.152303,-7.336394,4.421936,5.441278,1.143539,-0.146607,1.359785
2026-01-04T14:28:35.162303,-7.087540,4.747360,5.570491,0.761137,0.021991,1.381776
2026-01-04T14:28:35.171303,-6.967899,4.350151,5.379065,0.332310,0.194255,1.404989
2026-01-04T14:28:35.181303,-6.886543,3.268595,4.876572,0.007330,0.357966,1.429424
2026-01-04T14:28:35.191303,-6.929614,2.100898,3.976871,-0.127059,0.453261,1.491732
2026-01-04T14:28:35.200303,-7.034898,1.239482,3.172882,0.017104,0.454483,1.562592
2026-01-04T14:28:35.210303,-6.934399,1.148554,2.727817,0.381179,0.368962,1.624901
2026-01-04T14:28:35.219303,-6.503691,1.775474,2.780459,0.827111,0.223576,1.674992
2026-01-04T14:28:35.229303,-5.742774,2.933600,2.727817,1.222951,0.102625,1.700648
2026-01-04T14:28:35.239303,-4.804787,4.048655,2.751745,1.433089,0.103847,1.718974
2026-01-04T14:28:35.248303,-3.957728,4.096512,3.024527,1.670105,0.340862,1.798386
2026-01-04T14:28:35.258303,-3.914657,7.326822,3.493520,1.262047,0.481361,1.688431
2026-01-04T14:28:35.268303,-4.182653,6.565905,3.139383,0.963945,0.696386,1.599244
2026-01-04T14:28:35.277303,-4.369294,6.661618,2.297109,0.758694,0.934623,1.556484
2026-01-04T14:28:35.287303,-4.776073,6.604190,1.148554,0.515570,1.081231,1.545488
2026-01-04T14:28:35.296303,-5.297709,6.206981,0.660419,0.346971,1.071457,1.539380
2026-01-04T14:28:35.306303,-5.417350,5.934200,0.641276,0.351858,0.949284,1.517388
2026-01-04T14:28:35.316303,-5.163711,5.967699,0.492921,0.486248,0.777020,1.490510
2026-01-04T14:28:35.325303,-4.527220,6.379265,0.751346,0.678060,0.605978,1.450193
2026-01-04T14:28:35.335303,-3.795016,7.192824,1.320838,0.834441,0.498465,1.390328
2026-01-04T14:28:35.344303,-3.120240,8.006384,1.473978,0.806341,0.487470,1.352455
2026-01-04T14:28:35.354303,-2.713460,8.360522,1.115055,0.599869,0.572991,1.330464
2026-01-04T14:28:35.364303,-2.938386,8.513662,0.894915,0.332310,0.700051,1.293812
2026-01-04T14:28:35.373303,-3.239881,8.331808,0.803988,0.106290,0.786794,1.244943
2026-01-04T14:28:35.383303,-3.646661,8.035098,1.014556,0.000000,0.772133,1.175304
2026-01-04T14:28:35.393303,-3.818944,7.575676,1.196411,-0.046425,0.657290,1.108109
2026-01-04T14:28:35.402303,-3.742374,7.164110,0.976271,0.031764,0.543669,1.083674
2026-01-04T14:28:35.412303,-3.603590,7.350751,0.847059,0.204028,0.494800,1.053131
2026-01-04T14:28:35.421303,-3.527020,7.728816,1.325623,0.287106,0.487470,1.039692
2026-01-04T14:28:35.431303,-3.699303,7.867600,1.966900,0.272445,0.471587,1.065348
2026-01-04T14:28:35.441303,-3.823730,7.886743,2.230110,0.299323,0.505796,1.060461
2026-01-04T14:28:35.450303,-4.139583,7.944171,2.053041,0.313984,0.579100,1.047022
2026-01-04T14:28:35.460303,-4.517649,7.996813,1.909472,0.267558,0.582765,1.048244
2026-01-04T14:28:35.469303,-4.776073,8.197810,1.674975,0.243124,0.488692,1.051909
2026-01-04T14:28:35.479303,-4.857429,8.561519,1.674975,0.178372,0.338419,1.094670
2026-01-04T14:28:35.489303,-4.790430,8.494520,1.909472,0.072082,0.184481,1.161865
2026-01-04T14:28:35.498303,-4.613361,8.188238,2.167897,0.042760,0.059864,1.227838
2026-01-04T14:28:35.508303,-4.551148,7.905885,2.751745,0.096516,-0.047647,1.306029
2026-01-04T14:28:35.518303,-4.331008,7.685746,3.053241,0.204028,-0.114842,1.384220
2026-01-04T14:28:35.527303,-4.158725,7.752745,2.368894,0.432492,-0.070860,1.426980
2026-01-04T14:28:35.537303,-4.283152,8.121239,2.014756,0.646295,0.034208,1.469741
2026-01-04T14:28:35.546303,-4.594219,8.580661,2.249253,0.739146,0.125838,1.484402
2026-01-04T14:28:35.556303,-4.838287,8.729016,1.847259,0.679282,0.129503,1.500284
2026-01-04T14:28:35.566303,-4.795216,8.571090,1.493121,0.536339,0.052534,1.546710
2026-01-04T14:28:35.575303,-4.575076,8.274380,1.655833,0.414166,-0.067195,1.588249
2026-01-04T14:28:35.585303,-4.134797,7.824529,1.804188,0.365297,-0.172263,1.642005
2026-01-04T14:28:35.594303,-3.598805,7.245466,1.560120,0.393397,-0.189368,1.707978
2026-01-04T14:28:35.604303,-3.397808,6.843472,1.689332,0.513126,-0.135612,1.770287
2026-01-04T14:28:35.614303,-3.407379,6.771687,2.062613,0.742811,-0.069638,1.813047
2026-01-04T14:28:35.623303,-3.436093,7.073183,2.512463,0.938288,-0.052534,1.843590
2026-01-04T14:28:35.633303,-3.412165,7.202396,2.081755,1.034805,-0.083077,1.890016
2026-01-04T14:28:35.643303,-3.034099,7.389036,1.938186,1.155756,-0.157603,1.910786
2026-01-04T14:28:35.652303,-2.478964,7.810172,1.933400,1.255938,-0.228463,1.892460
2026-01-04T14:28:35.662303,-1.818545,8.121239,1.574477,1.203404,-0.290771,1.915672
2026-01-04T14:28:35.671303,-1.167697,7.958527,0.990628,1.060461,-0.340862,1.963320
2026-01-04T14:28:35.681303,-0.617348,7.542176,0.521635,0.949284,-0.344527,1.982868
2026-01-04T14:28:35.691303,-0.425922,6.829115,0.282353,0.932180,-0.289550,2.018298
2026-01-04T14:28:35.700303,-0.598205,6.202196,0.119641,1.095892,-0.185702,2.064724
2026-01-04T14:28:35.710303,-1.043270,6.283552,-0.315852,1.400102,-0.109955,2.096489
2026-01-04T14:28:35.719303,-1.631905,6.809973,-1.119840,1.712865,-0.134390,2.133140
2026-01-04T14:28:35.729303,-2.000399,7.915457,-0.512064,2.018298,-0.315206,2.155132
2026-01-04T14:28:35.739303,-1.301695,8.915657,1.349551,1.938885,-0.701273,2.190562
2026-01-04T14:28:35.748303,-0.100498,9.231509,0.315852,1.775174,-1.033583,2.239431
2026-01-04T14:28:35.758303,1.627119,8.901300,-0.713061,1.606575,-1.167974,2.277305
2026-01-04T14:28:35.768303,2.880958,8.633303,-1.110269,1.507615,-1.047022,2.241874
2026-01-04T14:28:35.777303,3.326023,8.279166,-1.282552,1.439198,-0.729372,2.221105
2026-01-04T14:28:35.787303,2.957528,7.604390,-1.694118,1.403768,-0.331088,2.246761
2026-01-04T14:28:35.796303,1.976471,6.795616,-1.899901,1.546710,0.017104,2.240653
2026-01-04T14:28:35.806303,1.861615,6.369693,-1.895115,1.582140,0.059864,2.332282
2026-01-04T14:28:35.816303,-0.110069,6.565905,-3.527020,1.853364,-0.133168,2.320065
2026-01-04T14:28:35.825303,0.325423,6.972685,-3.728017,2.097710,-0.510683,2.296852
2026-01-04T14:28:35.835303,1.220339,7.829315,-2.914457,2.250427,-0.915075,2.230879
2026-01-04T14:28:35.844303,2.756531,8.542376,-2.110469,2.182010,-1.170417,2.180788
2026-01-04T14:28:35.854303,4.173082,8.762516,-2.522035,1.979202,-1.182634,2.211331
2026-01-04T14:28:35.864303,4.225724,9.121439,-2.866601,1.783726,-1.021366,2.371378
2026-01-04T14:28:35.873303,4.666004,8.963513,-3.244667,1.593136,-0.994488,2.923600
2026-01-04T14:28:35.883303,4.206582,8.149953,-4.000799,1.439198,-1.215621,3.230254
2026-01-04T14:28:35.893303,4.991427,8.164310,-5.546562,1.069013,-2.280970,2.113593
2026-01-04T14:28:35.902303,4.627718,7.073183,-4.335794,1.593136,-1.325577,2.476447
2026-01-04T14:28:35.912303,4.197010,8.015955,-7.800601,2.087936,-0.813672,2.338391
2026-01-04T14:28:35.921303,4.670789,8.853443,-7.369893,2.265087,-0.923628,2.133140
2026-01-04T14:28:35.931303,5.637490,9.499505,-6.680760,2.289522,-1.077566,2.072054
2026-01-04T14:28:35.941303,6.723831,10.202995,-5.321637,2.216218,-1.110552,2.004859
2026-01-04T14:28:35.950303,7.508677,10.466206,-4.709074,1.907120,-0.960279,1.980424
2026-01-04T14:28:35.960303,7.695317,9.796215,-5.460421,1.407433,-0.647517,2.072054
2026-01-04T14:28:35.969303,7.336394,8.427521,-5.938985,1.032362,-0.344527,2.131919
2026-01-04T14:28:35.979303,6.843472,6.900900,-6.522834,0.825889,-0.191811,2.095267
2026-01-04T14:28:35.989303,6.302694,5.082355,-7.575676,0.783129,-0.125838,2.064724
2026-01-04T14:28:35.998303,5.546562,3.680161,-8.001598,0.987158,-0.026878,1.992641
2026-01-04T14:28:36.008303,4.972285,3.067598,-7.671389,1.345124,0.070860,1.814269
2026-01-04T14:28:36.018303,4.675575,3.158525,-6.915257,1.646892,0.039095,1.612683
2026-01-04T14:28:36.027303,4.852644,3.527020,-6.120840,1.798386,-0.147829,1.478293
2026-01-04T14:28:36.037303,5.742774,4.287938,-5.627918,1.808160,-0.375071,1.392772
2026-01-04T14:28:36.046303,6.958328,5.063212,-6.403193,1.707978,-0.543669,1.384220
2026-01-04T14:28:36.056303,8.015955,5.953342,-7.006184,1.562592,-0.643851,1.463632
2026-01-04T14:28:36.066303,8.336593,5.809773,-6.963113,1.304807,-0.649960,1.524719
2026-01-04T14:28:36.075303,9.451649,5.556134,-7.312465,1.207069,-0.420275,1.621236
2026-01-04T14:28:36.085303,8.633303,4.551148,-7.968099,1.456302,-0.036651,1.821599
2026-01-04T14:28:36.094303,7.992027,3.948157,-7.240681,1.858251,0.316428,1.806938
2026-01-04T14:28:36.104303,6.843472,4.383651,-6.987041,2.064724,0.452040,1.598023
2026-01-04T14:28:36.114303,8.585447,6.087340,-9.265009,1.789834,0.634077,1.397659
2026-01-04T14:28:36.123303,-11.021340,-0.890130,-23.397018,0.885754,0.304210,1.340238
2026-01-04T14:28:36.133303,8.451449,5.154139,-9.671788,1.188743,0.412944,1.153313
2026-01-04T14:28:36.143303,6.307480,5.355136,-8.776873,1.236390,0.471587,1.177747
2026-01-04T14:28:36.152303,5.948556,5.125426,-7.934599,1.026253,0.333532,1.161865
2026-01-04T14:28:36.162303,6.125625,4.666004,-7.891528,0.915075,0.107512,1.094670
2026-01-04T14:28:36.171303,6.728617,4.417150,-8.422735,0.961501,-0.095294,0.994488
2026-01-04T14:28:36.181303,7.666603,4.383651,-8.824729,1.103222,-0.191811,0.764803
2026-01-04T14:28:36.191303,8.618947,4.666004,-8.298308,1.150869,-0.177150,0.525343
2026-01-04T14:28:36.200303,9.446863,4.905286,-7.417750,0.952949,-0.067195,0.392175
2026-01-04T14:28:36.210303,9.590432,4.924428,-7.843672,0.525343,0.168598,0.480139
2026-01-04T14:28:36.219303,9.111868,4.043870,-8.901300,0.063529,0.450818,0.775798
2026-01-04T14:28:36.229303,7.968099,4.125226,-8.111668,-0.204028,0.689055,0.527787
2026-01-04T14:28:36.239303,7.795816,2.172682,-8.863014,-0.118507,0.660956,0.493579
2026-01-04T14:28:36.248303,7.494320,2.215753,-9.020941,0.150272,0.390953,0.499687
2026-01-04T14:28:36.258303,7.987241,2.732603,-8.685946,0.535117,0.043982,0.394618
2026-01-04T14:28:36.268303,8.901300,3.866801,-8.523234,0.981049,-0.206472,0.212581
2026-01-04T14:28:36.277303,9.906285,5.503491,-9.006584,1.262047,-0.288328,0.013439
2026-01-04T14:28:36.287303,10.470991,6.948756,-9.255437,1.148426,-0.202807,-0.152716
2026-01-04T14:28:36.296303,10.609775,7.661817,-9.097511,0.612086,0.000000,-0.245567
2026-01-04T14:28:36.306303,9.978070,7.312465,-9.351150,-0.150272,0.241902,-0.284663
2026-01-04T14:28:36.316303,9.030512,6.144768,-10.403992,-0.869871,0.373849,-0.313984
2026-01-04T14:28:36.325303,8.413164,4.622933,-11.782258,-1.363450,0.270002,-0.401949
2026-01-04T14:28:36.335303,8.580661,3.412165,-13.060025,-1.519832,-0.040317,-0.561995
2026-01-04T14:28:36.344303,9.437292,2.938386,-13.371092,-1.365894,-0.397062,-0.810007
2026-01-04T14:28:36.354303,11.174481,3.354737,-13.198809,-1.069013,-0.678060,-1.108109
2026-01-04T14:28:36.364303,13.064811,4.249652,-13.462019,-0.851545,-0.861319,-1.359785
2026-01-04T14:28:36.373303,14.974283,5.187639,-13.462019,-0.801455,-0.894306,-1.550375
2026-01-04T14:28:36.383303,16.357334,6.130411,-12.701102,-0.908967,-0.707381,-1.716530
2026-01-04T14:28:36.393303,17.017754,6.589833,-12.294322,-1.221730,-0.309097,-1.854586
2026-01-04T14:28:36.402303,16.601402,6.561119,-13.237094,-1.674992,0.180816,-1.984089
2026-01-04T14:28:36.412303,15.577275,6.451049,-14.624931,-2.185675,0.577878,-2.158797
2026-01-04T14:28:36.421303,14.720644,5.795416,-15.050854,-2.853961,0.816115,-2.321287
2026-01-04T14:28:36.431303,14.189438,4.656432,-14.782858,-3.456274,0.951727,-2.459342
2026-01-04T14:28:36.441303,13.988440,3.694518,-14.964712,-3.731164,1.060461,-2.638937
2026-01-04T14:28:36.450303,13.950155,2.857030,-14.782858,-3.825237,1.265712,-2.829527
2026-01-04T14:28:36.460303,13.538590,2.091326,-13.280165,-3.740937,1.689652,-3.061655
2026-01-04T14:28:36.469303,12.332607,1.856830,-11.633903,-3.522248,2.307848,-3.279123
2026-01-04T14:28:36.479303,10.102497,1.871187,-9.801001,-3.392744,2.932152,-3.414735
2026-01-04T14:28:36.489303,7.513462,1.732403,-6.455835,-3.369531,3.385414,-3.497813
2026-01-04T14:28:36.498303,4.661218,1.067198,-2.215753,-3.336545,3.628538,-3.552791
2026-01-04T14:28:36.508303,1.923829,-0.086141,0.612562,-3.222924,3.703064,-3.567452
2026-01-04T14:28:36.518303,-0.832702,-1.210768,1.497906,-3.189937,4.064696,-3.555234
2026-01-04T14:28:36.527303,-1.239482,-7.905885,5.580062,-2.139249,5.501450,-3.802024
2026-01-04T14:28:36.537303,-0.229710,-0.153140,0.181854,-1.633453,2.648711,-3.996279
2026-01-04T14:28:36.546303,-2.775674,-2.033899,0.143569,-1.198517,0.533896,-3.263241
2026-01-04T14:28:36.556303,-2.383251,0.224925,-1.249053,-0.061086,-0.329867,-3.128851
2026-01-04T14:28:36.566303,2.187039,4.560719,0.765703,0.657290,-0.758694,-4.069583
2026-01-04T14:28:36.575303,2.464607,9.973284,2.349751,0.867428,-0.768468,-4.428772
2026-01-04T14:28:36.585303,3.584448,12.212966,0.368494,0.575434,-0.441044,-3.310888
2026-01-04T14:28:36.594303,4.699503,12.189038,-1.100698,-0.097738,-0.117286,-2.698802
2026-01-04T14:28:36.604303,3.617947,11.964113,-2.024327,-0.447153,0.507018,-2.734232
2026-01-04T14:28:36.614303,2.842673,11.619546,-3.062812,-1.321912,0.084299,-3.115412
2026-01-04T14:28:36.623303,-0.612562,9.815358,-6.857829,-1.973094,-0.223576,-2.585181
2026-01-04T14:28:36.633303,-2.947957,8.384450,-5.929414,-2.109928,-0.245567,-2.361604
2026-01-04T14:28:36.643303,-4.661218,7.709674,-2.153540,-2.295631,0.250454,-2.390926
2026-01-04T14:28:36.652303,-5.603990,6.647261,0.191425,-2.343278,0.123394,-2.241874
2026-01-04T14:28:36.662303,-5.178068,5.685346,2.723032,-2.048841,-0.283441,-2.067167
2026-01-04T14:28:36.671303,-3.397808,5.565705,4.072584,-1.879021,-0.224798,-1.874134
2026-01-04T14:28:36.681303,2.009970,4.689932,-2.574677,-0.504574,-0.766024,-1.913229
2026-01-04T14:28:36.691303,-0.301495,7.345965,4.125226,0.410501,-0.680503,-1.868025
2026-01-04T14:28:36.700303,-0.765703,9.518648,0.114855,0.844215,-0.274889,-1.772730
2026-01-04T14:28:36.710303,-0.564706,11.160124,-0.674775,1.105665,0.032986,-1.846034
2026-01-04T14:28:36.719303,-5.168496,14.926427,-4.929214,0.632856,-0.789237,-1.478293
2026-01-04T14:28:36.729303,-1.938186,13.777872,-3.393022,-0.288328,-0.248011,-1.419650
2026-01-04T14:28:36.739303,-3.110669,13.691730,-2.311466,-1.268155,-0.134390,-1.404989
2026-01-04T14:28:36.748303,-3.038884,11.892328,-2.120040,-2.042732,-0.362853,-1.381776
2026-01-04T14:28:36.758303,-2.450250,9.662217,-0.899701,-2.295631,-0.588873,-1.426980
2026-01-04T14:28:36.768303,-1.416550,7.814958,1.952543,-2.092823,-0.767246,-1.560149
2026-01-04T14:28:36.777303,0.157926,6.336194,3.182454,-1.788613,-0.795346,-1.585805
2026-01-04T14:28:36.787303,1.138983,5.589633,2.397608,-1.271821,-0.597426,-1.616349
2026-01-04T14:28:36.796303,1.478764,5.556134,-0.004785,-0.631634,-0.441044,-1.726304
2026-01-04T14:28:36.806303,1.311266,6.211767,-0.827916,-0.202807,-0.189368,-1.795943
2026-01-04T14:28:36.816303,0.713061,7.063612,-0.559920,-0.092851,0.058643,-1.817934
2026-01-04T14:28:36.825303,-0.401994,7.838886,-0.574277,-0.296880,0.184481,-1.784947
2026-01-04T14:28:36.835303,-1.660618,8.164310,-0.191425,-0.624304,0.166155,-1.728748
2026-01-04T14:28:36.844303,-2.785245,7.948956,0.674775,-1.026253,0.004886,-1.734856
2026-01-04T14:28:36.854303,-3.239881,7.054041,0.995414,-1.309694,-0.296880,-1.747074
2026-01-04T14:28:36.864303,-2.986242,6.250052,1.182054,-1.295034,-0.629191,-1.759291
2026-01-04T14:28:36.873303,-2.344966,5.771488,1.622333,-1.070235,-0.858876,-1.827708
2026-01-04T14:28:36.883303,-1.808973,5.603990,2.182254,-0.747698,-0.895528,-1.881464
2026-01-04T14:28:36.893303,-1.694118,5.623133,2.335394,-0.465479,-0.742811,-1.881464
2026-01-04T14:28:36.902303,-2.000399,5.929414,2.191825,-0.252898,-0.444709,-1.773952
2026-01-04T14:28:36.912303,-2.761317,6.427121,1.928615,-0.119729,-0.140498,-1.640783
2026-01-04T14:28:36.921303,-3.699303,7.092326,1.497906,-0.028099,0.054977,-1.540601
2026-01-04T14:28:36.931303,-4.728217,7.791030,0.985842,-0.056199,0.051312,-1.481958
2026-01-04T14:28:36.941303,-4.986642,7.680960,0.870987,-0.243124,-0.160046,-1.470963
2026-01-04T14:28:36.950303,-7.460820,11.399406,-11.542976,0.051312,-0.482583,-1.718974
2026-01-04T14:28:36.960303,-4.177868,7.226324,-0.320638,-0.377514,-0.713490,-1.588249
2026-01-04T14:28:36.969303,-3.665804,6.498906,0.014356,-0.561995,-0.822224,-1.556484
2026-01-04T14:28:36.979303,-3.259024,5.852844,0.741775,-0.433714,-0.772133,-1.576031
2026-01-04T14:28:36.989303,-3.407379,5.723631,1.172483,-0.233350,-0.559552,-1.565036
2026-01-04T14:28:36.998303,-4.063012,5.785845,1.607976,0.010995,-0.246789,-1.502728
2026-01-04T14:28:37.008303,-5.594419,6.561119,2.507678,0.327423,0.004886,-1.455080
2026-01-04T14:28:37.018303,-5.647061,7.618747,3.670589,0.513126,0.109955,-1.464854
2026-01-04T14:28:37.027303,-6.015556,8.135596,3.909872,0.293215,0.529009,-1.395215
2026-01-04T14:28:37.037303,-8.384450,6.369693,2.029113,0.118507,-0.284663,-1.270599
2026-01-04T14:28:37.046303,-11.992826,13.270594,1.847259,-0.288328,-0.711046,-1.050687
2026-01-04T14:28:37.056303,-6.853043,6.044269,0.507278,-0.139277,-0.801455,-1.282816
2026-01-04T14:28:37.066303,-6.374479,7.054041,0.349352,-0.250454,-0.779463,-1.296255
2026-01-04T14:28:37.075303,-6.331408,6.862615,0.287138,-0.378736,-0.730594,-1.214399
2026-01-04T14:28:37.085303,-6.250052,6.307480,-0.119641,-0.384845,-0.708603,-1.128878
2026-01-04T14:28:37.094303,-6.254838,5.814558,-0.028713,-0.287106,-0.689055,-1.058018
2026-01-04T14:28:37.104303,-6.790830,5.723631,0.947557,-0.067195,-0.680503,-1.004262
2026-01-04T14:28:37.114303,-7.393821,6.144768,2.268395,0.139277,-0.735481,-0.959058
2026-01-04T14:28:37.123303,-7.173682,6.541976,2.799602,0.238237,-0.874758,-0.910189
2026-01-04T14:28:37.133303,-6.699903,6.824330,2.033899,0.211359,-1.036027,-0.884532
2026-01-04T14:28:37.143303,-6.690331,6.786044,0.736989,0.118507,-1.083674,-0.888197
2026-01-04T14:28:37.152303,-5.589633,6.900900,0.272781,0.021991,-1.004262,-0.913854
2026-01-04T14:28:37.162303,-5.292923,6.876972,0.583848,-0.094073,-0.896749,-0.943175
2026-01-04T14:28:37.171303,-5.283352,6.829115,1.201196,-0.229685,-0.839328,-0.983492
2026-01-04T14:28:37.181303,-5.259424,6.709474,1.162911,-0.371405,-0.822224,-1.018923
2026-01-04T14:28:37.191303,-5.455635,6.738188,1.521835,-0.532674,-0.742811,-1.047022
2026-01-04T14:28:37.200303,-5.536991,6.503691,2.699103,-0.764803,-0.629191,-1.095892
2026-01-04T14:28:37.210303,-5.551348,5.910271,2.986242,-1.043357,-0.532674,-1.102000
2026-01-04T14:28:37.219303,-5.618347,4.977071,2.565105,-1.205847,-0.403170,-1.087339
2026-01-04T14:28:37.229303,-6.111268,4.383651,3.718446,-1.242499,-0.272445,-1.159421
2026-01-04T14:28:37.239303,-6.498906,3.775874,4.570291,-1.332907,-0.259006,-1.192408
2026-01-04T14:28:37.248303,-5.039284,3.230310,2.699103,-1.329242,-0.296880,-1.114217
2026-01-04T14:28:37.258303,-15.869199,1.349551,-1.445264,-1.218065,-0.212581,-1.166752
2026-01-04T14:28:37.268303,-6.728617,3.029313,3.297309,-1.081231,-0.243124,-1.176526
2026-01-04T14:28:37.277303,-6.934399,2.971885,4.010370,-1.022588,-0.288328,-1.123991
2026-01-04T14:28:37.287303,-6.872186,2.598605,4.177868,-1.009149,-0.272445,-1.080009
2026-01-04T14:28:37.296303,-6.977470,1.933400,4.417150,-0.979827,-0.175929,-1.059240
2026-01-04T14:28:37.306303,-7.264609,1.799402,4.130011,-0.901636,-0.036651,-1.042135
2026-01-04T14:28:37.316303,-7.963313,1.808973,4.082155,-0.926071,0.063529,-1.034805
2026-01-04T14:28:37.325303,-8.556733,2.617747,4.426721,-0.629191,0.125838,-1.001818
2026-01-04T14:28:37.335303,-9.212367,2.206182,4.790430,-0.511904,0.078190,-0.995710
2026-01-04T14:28:37.344303,-9.207581,2.483749,4.225724,-0.570548,-0.041538,-1.003040
2026-01-04T14:28:37.354303,-9.059226,2.526820,3.646661,-0.713490,-0.127059,-0.982271
2026-01-04T14:28:37.364303,-9.097511,2.143969,3.512663,-0.853989,-0.125838,-0.943175
2026-01-04T14:28:37.373303,-9.384650,1.397408,4.182653,-0.916297,-0.034208,-0.901636
2026-01-04T14:28:37.383303,-10.006784,0.602991,4.838287,-0.808785,0.032986,-0.863763
2026-01-04T14:28:37.393303,-10.719845,0.440279,5.393422,-0.543669,0.040317,-0.812450
2026-01-04T14:28:37.402303,-11.203195,0.937986,5.469992,-0.293215,0.017104,-0.764803
2026-01-04T14:28:37.412303,-11.509476,1.641476,5.594419,-0.149051,-0.017104,-0.714712
2026-01-04T14:28:37.421303,-11.820543,2.737389,5.862415,-0.124616,-0.050090,-0.645073
2026-01-04T14:28:37.431303,-11.873185,3.641875,5.943771,-0.333532,-0.094073,-0.582765
2026-01-04T14:28:37.441303,-11.720045,3.311666,4.977071,-0.703716,-0.153938,-0.463035
2026-01-04T14:28:37.450303,-11.648260,2.153540,4.776073,-0.915075,-0.177150,-0.345749
2026-01-04T14:28:37.460303,-11.696116,1.014556,5.513063,-0.810007,-0.171042,-0.274889
2026-01-04T14:28:37.469303,-11.729616,0.330209,6.178267,-0.492357,-0.194255,-0.207694
2026-01-04T14:28:37.479303,-11.657831,0.234496,6.197410,-0.094073,-0.226020,-0.127059
2026-01-04T14:28:37.489303,-11.590832,0.784845,6.120840,0.288328,-0.217467,-0.051312
2026-01-04T14:28:37.498303,-11.686545,1.737189,6.675975,0.515570,-0.208915,0.013439
2026-01-04T14:28:37.508303,-11.633903,2.713460,6.924828,0.433714,-0.243124,0.111177
2026-01-04T14:28:37.518303,-11.394621,2.952743,6.833901,0.124616,-0.270002,0.216246
2026-01-04T14:28:37.527303,-11.002198,2.493321,6.953542,-0.200363,-0.256563,0.304210
2026-01-04T14:28:37.537303,-10.600204,1.670190,6.924828,-0.398284,-0.200363,0.392175
2026-01-04T14:28:37.546303,-10.303494,0.808774,6.331408,-0.354301,-0.117286,0.469144
2026-01-04T14:28:37.556303,-10.231709,0.330209,5.819344,-0.091629,-0.029321,0.544891
2026-01-04T14:28:37.566303,-10.451849,0.301495,5.551348,0.270002,0.029321,0.613308
2026-01-04T14:28:37.575303,-10.571490,0.693918,5.268995,0.607199,0.019547,0.668286
2026-01-04T14:28:37.585303,-10.585847,1.478764,5.187639,0.844215,-0.063529,0.735481
2026-01-04T14:28:37.594303,-10.494919,2.301895,5.747559,0.908967,-0.166155,0.794124
2026-01-04T14:28:37.604303,-10.126425,2.962314,6.302694,0.794124,-0.245567,0.828333
2026-01-04T14:28:37.614303,-9.509077,3.153740,6.154339,0.526565,-0.259006,0.900415
2026-01-04T14:28:37.623303,-9.035298,2.909672,5.948556,0.224798,-0.185702,0.972497
2026-01-04T14:28:37.633303,-8.963513,2.545963,5.871986,0.039095,-0.054977,1.037248
2026-01-04T14:28:37.643303,-8.982656,2.153540,5.608776,-0.046425,0.043982,1.126435
2026-01-04T14:28:37.652303,-9.044869,1.674975,5.115854,0.014660,0.078190,1.199739
2026-01-04T14:28:37.662303,-8.930013,1.148554,4.776073,0.244346,0.054977,1.249830
2026-01-04T14:28:37.671303,-8.729016,1.115055,4.713860,0.609643,0.001221,1.285260
2026-01-04T14:28:37.681303,-8.307880,1.564905,4.484149,1.004262,-0.057421,1.314581
2026-01-04T14:28:37.691303,-7.872386,2.517249,4.220939,1.288925,-0.070860,1.341459
2026-01-04T14:28:37.700303,-7.475177,3.680161,4.345365,1.403768,-0.043982,1.356120
2026-01-04T14:28:37.710303,-7.101897,4.603790,5.005784,1.334129,-0.004886,1.362229
2026-01-04T14:28:37.719303,-6.556333,5.273781,5.393422,1.066570,0.034208,1.365894
2026-01-04T14:28:37.729303,-6.015556,5.182853,5.111069,0.641408,0.106290,1.393994
2026-01-04T14:28:37.739303,-5.603990,4.508077,4.522434,0.238237,0.240680,1.441641
2026-01-04T14:28:37.748303,-5.508277,3.416950,3.929014,-0.003665,0.422718,1.477071
2026-01-04T14:28:37.758303,-5.795416,2.287538,3.340380,-0.040317,0.607199,1.503949
2026-01-04T14:28:37.768303,-6.278766,1.660618,2.565105,0.163711,0.713490,1.528384
2026-01-04T14:28:37.777303,-6.752545,1.837687,2.158325,0.540004,0.706160,1.503949
2026-01-04T14:28:37.787303,-6.967899,2.426322,1.904686,0.910189,0.610865,1.446528
2026-01-04T14:28:37.796303,-6.948756,3.359522,2.196611,1.225395,0.486248,1.396437
2026-01-04T14:28:37.806303,-6.618547,4.469792,3.201596,1.485623,0.437379,1.353677
2026-01-04T14:28:37.816303,-5.130211,7.097111,4.240081,1.175304,0.285884,1.315803
2026-01-04T14:28:37.825303,-5.216353,6.230910,4.599005,0.761137,0.276111,1.284038
2026-01-04T14:28:37.835303,-4.733003,5.560919,4.378865,0.376292,0.375071,1.292590
2026-01-04T14:28:37.844303,-4.484149,4.699503,3.498306,0.120951,0.515570,1.354898
2026-01-04T14:28:37.854303,-4.445864,3.814159,2.608176,0.112399,0.625525,1.418428
2026-01-04T14:28:37.864303,-4.790430,3.364308,1.631905,0.346971,0.680503,1.448972
2026-01-04T14:28:37.873303,-5.182853,3.732803,0.990628,0.680503,0.687834,1.477071
2026-01-04T14:28:37.883303,-5.632704,4.790430,0.756131,0.965166,0.618195,1.484402
2026-01-04T14:28:37.893303,-5.742774,5.986842,0.870987,1.103222,0.466700,1.499062
2026-01-04T14:28:37.902303,-5.618347,6.958328,1.641476,1.064127,0.267558,1.530827
2026-01-04T14:28:37.912303,-5.245067,7.527819,2.469392,0.963945,0.112399,1.527162
2026-01-04T14:28:37.921303,-4.627718,7.752745,3.479164,0.841772,-0.008552,1.538158
2026-01-04T14:28:37.931303,-3.771088,7.829315,3.598805,0.795346,0.017104,1.579697
2026-01-04T14:28:37.941303,-2.967100,7.948956,2.234896,0.757472,0.168598,1.583362
2026-01-04T14:28:37.950303,-2.483749,7.977670,0.564706,0.642630,0.331088,1.600466
2026-01-04T14:28:37.960303,-2.416750,7.690531,-0.349352,0.507018,0.475253,1.598023
2026-01-04T14:28:37.969303,-2.627319,7.211967,-0.593420,0.450818,0.594982,1.536936
2026-01-04T14:28:37.979303,-3.024527,7.001398,-0.564706,0.477696,0.627969,1.483180
2026-01-04T14:28:37.989303,-3.407379,6.943971,-0.282353,0.558330,0.536339,1.461189
2026-01-04T14:28:37.998303,-3.546163,7.192824,0.181854,0.664621,0.359188,1.448972
2026-01-04T14:28:38.008303,-3.407379,7.690531,0.435493,0.747698,0.169820,1.442863
2026-01-04T14:28:38.018303,-3.110669,8.116454,0.851844,0.805120,0.045204,1.430646
2026-01-04T14:28:38.027303,-2.799602,8.666803,1.564905,0.856432,0.040317,1.408654
2026-01-04T14:28:38.037303,-2.718246,9.322436,2.354537,0.851545,0.146607,1.375668
2026-01-04T14:28:38.046303,-3.000599,9.619146,2.230110,0.684168,0.265115,1.356120
2026-01-04T14:28:38.056303,-3.172882,9.274580,2.268395,0.370184,0.270002,1.369559
2026-01-04T14:28:38.066303,-3.259024,8.681160,2.335394,0.230907,0.210137,1.389107
2026-01-04T14:28:38.075303,-3.326023,8.394021,1.497906,0.263893,0.167377,1.420872
2026-01-04T14:28:38.085303,-3.464807,7.905885,0.732203,0.263893,0.153938,1.501506
2026-01-04T14:28:38.094303,-3.780659,7.240681,0.588634,0.343306,0.140498,1.580918
2026-01-04T14:28:38.104303,-4.000799,6.920042,0.358923,0.560774,0.112399,1.653000
2026-01-04T14:28:38.114303,-4.359722,6.781259,0.167497,0.748920,0.043982,1.725083
2026-01-04T14:28:38.123303,-4.268795,6.781259,0.411565,0.906523,-0.096516,1.773952
2026-01-04T14:28:38.133303,-3.905086,7.049255,0.851844,1.069013,-0.257785,1.799608
2026-01-04T14:28:38.143303,-3.292523,7.484749,1.818545,1.131322,-0.393397,1.800830
2026-01-04T14:28:38.152303,-2.392822,7.570890,2.536391,1.108109,-0.458148,1.815491
2026-01-04T14:28:38.162303,-1.550549,7.613961,2.421536,1.092226,-0.438601,1.842369
2026-01-04T14:28:38.171303,-0.947557,7.494320,2.024327,1.058018,-0.331088,1.890016
2026-01-04T14:28:38.181303,-0.689132,7.264609,1.521835,1.034805,-0.171042,1.948659
2026-01-04T14:28:38.191303,-0.957129,7.006184,0.579063,1.130100,-0.006108,2.024406
2026-01-04T14:28:38.200303,-1.445264,6.795616,0.038285,1.304807,0.097738,2.103819
2026-01-04T14:28:38.210303,-2.076970,6.886543,-0.555134,1.486845,0.073303,2.179566
2026-01-04T14:28:38.219303,-2.488535,7.063612,-1.215553,1.656666,-0.096516,2.279748
2026-01-04T14:28:38.229303,-2.301895,7.628318,-1.402194,1.828930,-0.328645,2.351830
2026-01-04T14:28:38.239303,-1.909472,8.164310,-1.564905,1.931555,-0.544891,2.381152
2026-01-04T14:28:38.248303,-0.885344,8.547162,-1.478764,1.837482,-0.758694,2.438573
2026-01-04T14:28:38.258303,0.114855,8.394021,-1.172483,1.655444,-0.896749,2.470338
2026-01-04T14:28:38.268303,1.100698,7.920242,-0.732203,1.430646,-0.917519,2.489886
2026-01-04T14:28:38.277303,1.971685,6.939185,-0.727418,1.280373,-0.807563,2.524094
2026-01-04T14:28:38.287303,2.502892,6.111268,-1.277767,1.319468,-0.623082,2.555859
2026-01-04T14:28:38.296303,2.708675,5.675775,-2.029113,1.560149,-0.456927,2.577850
2026-01-04T14:28:38.306303,2.756531,5.785845,-2.656033,1.875355,-0.359188,2.605950
2026-01-04T14:28:38.316303,2.861815,5.948556,-3.474378,2.094045,-0.368962,2.656041
2026-01-04T14:28:38.325303,2.837887,6.173482,-4.254438,2.304183,-0.405614,2.692693
2026-01-04T14:28:38.335303,2.813959,6.853043,-5.058426,2.546085,-0.408057,2.703688
2026-01-04T14:28:38.344303,2.737389,8.015955,-4.225724,2.657263,-0.386066,2.657263
2026-01-04T14:28:38.354303,2.813959,8.772087,-3.584448,2.387260,-0.421496,2.660928
2026-01-04T14:28:38.364303,3.081955,9.001798,-4.426721,1.944994,-0.533896,2.763553
2026-01-04T14:28:38.373303,3.804587,8.848657,-5.125426,1.620014,-0.729372,2.779436
2026-01-04T14:28:38.383303,5.034498,8.437092,-5.024927,1.492954,-0.943175,2.701245
2026-01-04T14:28:38.393303,4.847858,8.432306,-5.053641,1.616349,-1.133765,2.851518
2026-01-04T14:28:38.402303,6.173482,9.217152,-5.781059,1.870468,-1.822821,3.897319
2026-01-04T14:28:38.412303,5.833701,6.484549,-5.804987,1.147204,-3.304780,3.352427
2026-01-04T14:28:38.421303,5.986842,7.283751,-0.741775,2.591289,-1.262047,2.812422
2026-01-04T14:28:38.431303,6.666403,6.312266,-2.062613,3.269350,0.222354,2.559524
2026-01-04T14:28:38.441303,6.010770,5.690132,-2.167897,2.709797,0.491135,2.128254
2026-01-04T14:28:38.450303,115.477615,18.118452,-22.071396,2.149023,0.921184,2.039067
2026-01-04T14:28:38.460303,8.025527,6.762116,-4.929214,1.792278,0.629191,1.645670
2026-01-04T14:28:38.469303,6.742974,6.388836,-7.034898,1.461189,0.299323,2.127032
2026-01-04T14:28:38.479303,6.206981,5.091926,-6.977470,1.182634,-0.073303,2.348165
2026-01-04T14:28:38.489303,6.585047,3.756731,-7.719245,1.361007,-0.393397,2.239431
2026-01-04T14:28:38.498303,7.044469,3.594019,-8.408378,1.892460,-0.525343,2.267531
2026-01-04T14:28:38.508303,7.982456,4.106083,-7.369893,2.329839,-0.515570,2.537533
2026-01-04T14:28:38.518303,0.775274,-0.669990,-1.406979,2.675589,-0.459370,2.103819
2026-01-04T14:28:38.527303,9.872786,5.225924,-7.494320,2.619389,-0.186924,1.467297
2026-01-04T14:28:38.537303,9.308079,5.302494,-8.800801,2.206444,0.107512,1.475850
2026-01-04T14:28:38.546303,8.709874,5.723631,-9.025726,1.733635,0.153938,1.618792
2026-01-04T14:28:38.556303,8.800801,5.115854,-6.967899,1.266934,-0.052534,1.621236
2026-01-04T14:28:38.566303,9.341579,3.292523,-5.886343,0.999375,-0.237015,1.616349
2026-01-04T14:28:38.575303,9.810572,1.942971,-6.776473,1.324355,-0.207694,1.489289
2026-01-04T14:28:38.585303,10.088140,1.962114,-8.379664,1.914451,-0.028099,1.222951
2026-01-04T14:28:38.594303,10.212566,2.622533,-8.834301,2.168571,0.117286,1.054353
2026-01-04T14:28:38.604303,10.001998,3.000599,-8.982656,2.092823,0.276111,0.996931
2026-01-04T14:28:38.614303,9.312865,3.163311,-10.193424,1.904677,0.563217,1.015257
2026-01-04T14:28:38.623303,7.982456,3.335594,-11.810972,1.632231,0.877202,1.099557
2026-01-04T14:28:38.633303,6.479763,3.656232,-12.145967,1.436754,0.945619,1.133765
2026-01-04T14:28:38.643303,5.651846,4.096512,-10.882557,1.182634,0.634077,1.066570
2026-01-04T14:28:38.652303,5.857629,3.881158,-9.413364,0.789237,0.116064,0.971275
2026-01-04T14:28:38.662303,7.116254,3.230310,-8.049455,0.596204,-0.342084,0.807563
2026-01-04T14:28:38.671303,8.958727,3.273381,-6.642475,0.572991,-0.551000,0.580321
2026-01-04T14:28:38.681303,10.724630,3.168097,-6.034698,0.417831,-0.441044,0.432492
2026-01-04T14:28:38.691303,11.566904,2.665604,-7.240681,0.237015,-0.078190,0.376292
2026-01-04T14:28:38.700303,11.303693,2.349751,-9.781858,0.248011,0.365297,0.375071
2026-01-04T14:28:38.710303,10.236495,2.541177,-11.509476,0.390953,0.690277,0.350636
2026-01-04T14:28:38.719303,9.150153,2.943171,-12.117253,0.577878,0.724486,0.257785
2026-01-04T14:28:38.729303,8.398807,3.895515,-12.777672,0.724486,0.463035,0.113620
2026-01-04T14:28:38.739303,8.499305,4.924428,-13.366307,0.718377,0.028099,-0.129503
2026-01-04T14:28:38.748303,9.542576,5.814558,-13.524233,0.559552,-0.437379,-0.459370
2026-01-04T14:28:38.758303,11.327622,6.518048,-13.227523,0.131946,-0.845437,-0.775798
2026-01-04T14:28:38.768303,13.442877,6.293123,-12.370892,-0.685390,-1.089783,-1.005483
2026-01-04T14:28:38.777303,15.414563,5.134997,-12.107682,-1.530827,-1.004262,-1.188743
2026-01-04T14:28:38.787303,16.414762,3.876372,-12.614960,-2.105041,-0.594982,-1.337794
2026-01-04T14:28:38.796303,16.156338,2.847458,-14.021940,-2.390926,-0.064751,-1.470963
2026-01-04T14:28:38.806303,14.950355,2.158325,-16.242479,-2.399478,0.323758,-1.609018
2026-01-04T14:28:38.816303,13.686945,2.019542,-17.625530,-2.206444,0.399505,-1.805717
2026-01-04T14:28:38.825303,13.146167,2.158325,-17.142181,-1.957211,0.218689,-2.078163
2026-01-04T14:28:38.835303,13.557732,2.976671,-15.189637,-1.720196,0.034208,-2.383595
2026-01-04T14:28:38.844303,14.285150,4.498506,-13.725230,-1.665218,0.048869,-2.684141
2026-01-04T14:28:38.854303,14.811571,5.929414,-13.213166,-1.992641,0.267558,-2.924822
2026-01-04T14:28:38.864303,15.084353,6.494120,-12.308679,-2.626719,0.608421,-3.097086
2026-01-04T14:28:38.873303,14.615360,5.833701,-12.342178,-3.434283,0.983492,-3.203376
2026-01-04T14:28:38.883303,13.763515,4.278366,-13.624731,-4.146552,1.320690,-3.299893
2026-01-04T14:28:38.893303,12.964312,2.799602,-13.155738,-4.472754,1.568701,-3.453831
2026-01-04T14:28:38.902303,12.251251,1.713260,-11.542976,-4.576601,1.765400,-3.593108
2026-01-04T14:28:38.912303,11.447263,0.684347,-9.422935,-4.575379,2.001194,-3.661525
2026-01-04T14:28:38.921303,10.155139,-0.411565,-7.154539,-4.409224,2.320065,-3.694512
2026-01-04T14:28:38.931303,8.398807,-1.430907,-4.905286,-4.131891,2.697580,-3.707951
2026-01-04T14:28:38.941303,5.991627,-2.239681,-2.914457,-3.756820,3.119077,-3.712838
2026-01-04T14:28:38.950303,3.091526,-2.435893,-1.076770,-3.218037,3.514917,-3.723833
2026-01-04T14:28:38.960303,-0.205782,-1.923829,0.344566,-2.564411,3.775146,-3.753155
2026-01-04T14:28:38.969303,-0.248853,0.019142,0.870987,-2.130697,3.979175,-3.695733
2026-01-04T14:28:38.979303,-0.823130,0.052642,1.167697,-0.493579,5.039637,-3.462383
2026-01-04T14:28:38.989303,-0.789631,0.425922,0.947557,-1.556484,0.201585,-4.862486
2026-01-04T14:28:38.998303,-4.613361,-0.497707,4.718646,1.567479,0.861319,-3.331658
2026-01-04T14:28:39.008303,-0.540777,2.009970,0.631705,1.617570,-1.385442,-4.500854
2026-01-04T14:28:39.018303,1.368694,-0.899701,-1.909472,1.791056,-1.153313,-4.601036
2026-01-04T14:28:39.027303,4.527220,13.624731,-0.516849,0.790459,-0.922406,-3.087312
2026-01-04T14:28:39.037303,5.158925,12.926027,0.631705,-0.460592,-0.354301,-2.575407
2026-01-04T14:28:39.046303,3.799802,11.595618,-1.579262,-1.729969,0.547335,-2.607172
2026-01-04T14:28:39.056303,-4.776073,3.421736,0.354137,-2.389704,1.301142,-2.758666
2026-01-04T14:28:39.066303,-2.560320,6.924828,-5.106283,-3.099529,1.714087,-2.157575
2026-01-04T14:28:39.075303,-6.144768,4.589433,-4.819144,-2.789210,1.574810,-1.952324
2026-01-04T14:28:39.085303,-15.371492,4.814359,-0.976271,-1.912007,1.202182,-2.045176
2026-01-04T14:28:39.094303,-12.638888,5.862415,-3.713660,-0.972497,-0.168598,-1.901012
2026-01-04T14:28:39.104303,-7.293323,5.187639,1.971685,0.076969,-1.572366,-1.855808
2026-01-04T14:28:39.114303,-3.503092,7.915457,4.005585,0.930958,-2.375043,-1.869247
2026-01-04T14:28:39.123303,2.522035,11.059626,6.733402,1.390328,-2.537533,-1.850921
2026-01-04T14:28:39.133303,3.464807,12.323036,2.574677,1.131322,-1.887573,-1.729969
2026-01-04T14:28:39.143303,3.742374,12.815957,-0.794417,0.340862,-0.900415,-1.501506
2026-01-04T14:28:39.152303,2.622533,12.136396,-2.100898,-0.629191,0.162490,-1.447750
2026-01-04T14:28:39.162303,0.435493,10.604989,-1.785045,-1.016479,1.235169,-1.635896
2026-01-04T14:28:39.171303,-2.282752,10.882557,-9.150153,-1.848477,1.600466,-1.648114
2026-01-04T14:28:39.181303,-5.594419,6.982256,-2.545963,-2.609615,1.406211,-1.678657
2026-01-04T14:28:39.191303,-6.800401,4.996213,-1.220339,-2.590068,0.689055,-1.770287
2026-01-04T14:28:39.200303,-6.245266,3.795016,0.435493,-1.838703,-0.378736,-1.755626
2026-01-04T14:28:39.210303,-4.192225,4.072584,0.894915,-0.998153,-1.441641,-1.749517
2026-01-04T14:28:39.219303,1.086341,4.359722,0.775274,-0.206472,-2.149023,-1.683544
2026-01-04T14:28:39.229303,0.765703,6.288337,1.574477,0.684168,-1.762956,-1.826486
2026-01-04T14:28:39.239303,1.789831,8.350950,0.157926,1.171639,-1.037248,-1.791056
2026-01-04T14:28:39.248303,1.411765,10.461420,-0.220139,1.189965,-0.190589,-1.687209
2026-01-04T14:28:39.258303,-0.267996,12.074182,0.057427,0.675616,0.594982,-1.767843
2026-01-04T14:28:39.268303,-2.890529,12.409178,1.115055,-0.184481,1.065348,-1.776395
2026-01-04T14:28:39.277303,-5.264209,11.667402,1.335195,-1.076344,1.038470,-1.661553
2026-01-04T14:28:39.287303,-6.326622,9.695717,0.440279,-1.673770,0.376292,-1.754404
2026-01-04T14:28:39.296303,-5.613561,7.604390,-0.043070,-1.494176,-0.304210,-1.908342
2026-01-04T14:28:39.306303,-3.148954,7.685746,-0.698704,-1.379333,-1.025031,-1.815491
2026-01-04T14:28:39.316303,-2.368894,5.900700,-0.253639,-1.020144,-1.276708,-1.843590
2026-01-04T14:28:39.325303,-1.450050,6.920042,-0.387637,-0.553443,-1.116661,-1.918116
2026-01-04T14:28:39.335303,-1.134197,7.661817,-0.071784,-0.273667,-0.690277,-1.883908
2026-01-04T14:28:39.344303,-1.808973,8.346165,0.559920,-0.216246,-0.195476,-1.817934
2026-01-04T14:28:39.354303,-3.125026,8.595018,1.741974,-0.383623,0.162490,-1.777617
2026-01-04T14:28:39.364303,-4.675575,8.102097,2.187039,-0.675616,0.190589,-1.731191
2026-01-04T14:28:39.373303,-5.656632,6.953542,1.454836,-0.912632,-0.135612,-1.700648
2026-01-04T14:28:39.383303,-5.560919,5.790630,0.507278,-1.014036,-0.557108,-1.621236
2026-01-04T14:28:39.393303,-4.780859,4.819144,0.076570,-0.940732,-0.846659,-1.585805
2026-01-04T14:28:39.402303,-4.000799,4.484149,0.124426,-0.671951,-0.897971,-1.568701
2026-01-04T14:28:39.412303,-3.488735,4.967499,0.588634,-0.375071,-0.752585,-1.523497
2026-01-04T14:28:39.421303,-3.345165,5.651846,1.076770,-0.173485,-0.504574,-1.446528
2026-01-04T14:28:39.431303,-3.531806,6.752545,1.416550,0.064751,-0.287106,-1.359785
2026-01-04T14:28:39.441303,-4.106083,7.934599,1.852044,0.212581,-0.141720,-1.314581
2026-01-04T14:28:39.450303,-4.900500,8.441878,1.942971,0.168598,-0.046425,-1.310916
2026-01-04T14:28:39.460303,-5.680560,8.480163,1.263410,0.101403,-0.010995,-1.310916
2026-01-04T14:28:39.469303,-6.494120,8.484948,1.043270,0.109955,-0.101403,-1.351233
2026-01-04T14:28:39.479303,-6.924828,8.489734,2.009970,0.021991,-0.375071,-1.440419
2026-01-04T14:28:39.489303,-6.608976,7.905885,1.698904,-0.250454,-0.744033,-1.428202
2026-01-04T14:28:39.498303,-5.919843,7.197610,0.684347,-0.450818,-0.978605,-1.358564
2026-01-04T14:28:39.508303,-5.388636,6.752545,0.837487,-0.586430,-1.000597,-1.345124
2026-01-04T14:28:39.518303,-5.206781,6.417550,1.445264,-0.711046,-0.883310,-1.296255
2026-01-04T14:28:39.527303,-5.474778,6.226124,1.962114,-0.744033,-0.736703,-1.203404
2026-01-04T14:28:39.537303,-5.833701,6.001199,1.914258,-0.691499,-0.627969,-1.136209
2026-01-04T14:28:39.546303,-6.111268,5.804987,1.440479,-0.546113,-0.559552,-1.083674
2026-01-04T14:28:39.556303,-6.403193,5.852844,1.177268,-0.250454,-0.514348,-1.054353
2026-01-04T14:28:39.566303,-6.656832,6.422335,1.105484,0.086742,-0.514348,-1.070235
2026-01-04T14:28:39.575303,-6.762116,7.034898,0.914058,0.307876,-0.571769,-1.093448
2026-01-04T14:28:39.585303,-6.628118,7.652246,0.512064,0.403170,-0.649960,-1.091005
2026-01-04T14:28:39.594303,-6.623332,8.087740,0.373280,0.392175,-0.676838,-1.091005
2026-01-04T14:28:39.604303,-6.900900,8.446663,0.899701,0.254119,-0.665842,-1.104444
2026-01-04T14:28:39.614303,-7.168896,8.547162,1.627119,-0.090408,-0.700051,-1.082452
2026-01-04T14:28:39.623303,-7.144968,7.948956,1.445264,-0.548556,-0.788015,-1.006705
2026-01-04T14:28:39.633303,-6.833901,6.872186,0.985842,-0.918741,-0.862541,-0.944397
2026-01-04T14:28:39.643303,-6.594619,5.833701,1.124626,-1.108109,-0.884532,-0.948062
2026-01-04T14:28:39.652303,-6.384050,5.039284,1.703689,-1.126435,-0.867428,-0.981049
2026-01-04T14:28:39.662303,-6.163911,4.350151,2.134397,-1.031140,-0.828333,-1.007927
2026-01-04T14:28:39.671303,-6.120840,3.895515,2.134397,-0.904080,-0.730594,-1.027475
2026-01-04T14:28:39.681303,-6.278766,3.488735,2.100898,-0.767246,-0.574213,-1.032362
2026-01-04T14:28:39.691303,-6.891329,3.330809,1.923829,-0.641408,-0.397062,-1.029918
2026-01-04T14:28:39.700303,-7.872386,3.297309,1.785045,-0.549778,-0.254119,-1.010370
2026-01-04T14:28:39.710303,-8.915657,3.617947,3.416950,-0.508239,-0.283441,-1.020144
2026-01-04T14:28:39.719303,-9.087940,3.751945,4.876572,-0.720820,-0.558330,-1.036027
2026-01-04T14:28:39.729303,-8.025527,3.048455,3.866801,-1.065348,-0.845437,-0.932180
2026-01-04T14:28:39.739303,-6.848258,2.201396,3.187239,-1.172861,-0.861319,-0.860098
2026-01-04T14:28:39.748303,-6.221338,1.856830,4.244867,-1.070235,-0.598647,-0.885754
2026-01-04T14:28:39.758303,-6.489334,2.249253,4.756931,-1.005483,-0.288328,-0.852767
2026-01-04T14:28:39.768303,-4.603790,-0.904486,5.599204,-0.858876,-0.094073,-0.785572
2026-01-04T14:28:39.777303,-7.465606,2.100898,4.302295,-0.520457,0.218689,-0.767246
2026-01-04T14:28:39.787303,-8.255237,2.378465,4.120440,-0.312762,0.383623,-0.786794
2026-01-04T14:28:39.796303,-9.332008,2.833101,4.153940,-0.257785,0.375071,-0.797789
2026-01-04T14:28:39.806303,-10.088140,3.115455,4.225724,-0.311541,0.244346,-0.781907
2026-01-04T14:28:39.816303,-10.231709,3.072384,4.575076,-0.428827,0.040317,-0.777020
2026-01-04T14:28:39.825303,-9.791430,2.522035,5.096712,-0.569326,-0.153938,-0.768468
2026-01-04T14:28:39.835303,-9.040083,1.785045,5.436492,-0.668286,-0.284663,-0.740368
2026-01-04T14:28:39.844303,-8.307880,0.971485,5.340780,-0.674395,-0.294436,-0.690277
2026-01-04T14:28:39.854303,-8.116454,0.468993,5.302494,-0.571769,-0.189368,-0.635299
2026-01-04T14:28:39.864303,-8.432306,0.205782,5.178068,-0.455705,-0.019547,-0.558330
2026-01-04T14:28:39.873303,-9.360722,0.148355,4.666004,-0.326201,0.178372,-0.455705
2026-01-04T14:28:39.883303,-10.724630,0.468993,4.264009,-0.179594,0.309097,-0.392175
2026-01-04T14:28:39.893303,-11.849257,0.866201,4.106083,-0.101403,0.263893,-0.349414
2026-01-04T14:28:39.902303,-12.571889,1.210768,4.302295,-0.091629,0.045204,-0.301767
2026-01-04T14:28:39.912303,-12.370892,1.435693,4.895715,-0.109955,-0.241902,-0.278554
2026-01-04T14:28:39.921303,-11.638689,1.454836,5.345565,-0.144164,-0.456927,-0.266337
2026-01-04T14:28:39.931303,-10.600204,1.421336,5.742774,-0.147829,-0.499687,-0.249232
2026-01-04T14:28:39.941303,-10.011569,1.450050,6.197410,-0.113620,-0.354301,-0.229685
2026-01-04T14:28:39.950303,-9.906285,1.459621,6.498906,-0.057421,-0.101403,-0.204028
2026-01-04T14:28:39.960303,-10.236495,1.435693,6.326622,-0.030543,0.138055,-0.160046
2026-01-04T14:28:39.969303,-10.834700,1.210768,5.929414,-0.047647,0.278554,-0.098960
2026-01-04T14:28:39.979303,-11.447263,0.818345,5.331208,-0.063529,0.318871,-0.007330
2026-01-04T14:28:39.989303,-11.968898,0.512064,4.857429,-0.057421,0.271224,0.090408
2026-01-04T14:28:39.998303,-12.366107,0.277567,4.723431,0.006108,0.151494,0.189368
2026-01-04T14:28:40.008303,-12.485748,0.277567,5.292923,0.146607,-0.026878,0.279776
2026-01-04T14:28:40.018303,-12.112468,0.545563,5.828915,0.261450,-0.235793,0.355523
2026-01-04T14:28:40.027303,-11.432906,0.756131,5.900700,0.329867,-0.384845,0.450818
2026-01-04T14:28:40.037303,-10.734202,1.124626,6.168696,0.405614,-0.406836,0.522900
2026-01-04T14:28:40.046303,-10.356136,1.555334,6.608976,0.428827,-0.340862,0.582765
2026-01-04T14:28:40.056303,-10.107282,1.627119,6.183053,0.361632,-0.238237,0.668286
2026-01-04T14:28:40.066303,-10.193424,1.464407,5.781059,0.329867,-0.120951,0.741590
2026-01-04T14:28:40.075303,-10.413563,1.258624,5.407779,0.376292,-0.039095,0.783129
2026-01-04T14:28:40.085303,-10.619346,0.995414,4.804787,0.476474,-0.039095,0.847880
2026-01-04T14:28:40.094303,-10.719845,1.019342,4.407579,0.618195,-0.117286,0.894306
2026-01-04T14:28:40.104303,-10.475777,1.282552,4.149154,0.751364,-0.243124,0.946840
2026-01-04T14:28:40.114303,-10.059426,1.732403,4.134797,0.846659,-0.354301,1.007927
2026-01-04T14:28:40.123303,-9.489934,2.321037,4.335794,0.857654,-0.438601,1.060461
2026-01-04T14:28:40.133303,-8.925228,2.727817,4.685146,0.758694,-0.481361,1.130100
2026-01-04T14:28:40.143303,-8.394021,2.914457,4.924428,0.594982,-0.458148,1.204625
2026-01-04T14:28:40.152303,-8.011170,2.890529,5.163711,0.442266,-0.378736,1.270599
2026-01-04T14:28:40.162303,-7.719245,2.718246,5.278566,0.326201,-0.274889,1.320690
2026-01-04T14:28:40.171303,-7.628318,2.522035,4.972285,0.252898,-0.169820,1.372003
2026-01-04T14:28:40.181303,-7.556533,2.230110,4.469792,0.273667,-0.057421,1.418428
2026-01-04T14:28:40.191303,-7.657032,1.923829,4.101297,0.389731,0.056199,1.436754
2026-01-04T14:28:40.200303,-7.700103,1.698904,3.536591,0.585208,0.133168,1.448972
2026-01-04T14:28:40.210303,-7.757530,1.808973,2.895315,0.853989,0.167377,1.474628
2026-01-04T14:28:40.219303,-7.752745,2.450250,2.885744,1.114217,0.147829,1.483180
2026-01-04T14:28:40.229303,-7.585247,3.211167,3.029313,1.260825,0.058643,1.483180
2026-01-04T14:28:40.239303,-6.929614,4.015156,3.220739,1.273042,-0.090408,1.506393
2026-01-04T14:28:40.248303,-5.924628,4.680361,3.507877,1.164308,-0.212581,1.555262
2026-01-04T14:28:40.258303,-4.857429,5.178068,3.814159,0.989601,-0.221133,1.582140
2026-01-04T14:28:40.268303,-4.163511,5.436492,3.608376,0.785572,-0.109955,1.560149
2026-01-04T14:28:40.277303,-3.728017,5.546562,3.402593,0.592539,0.135612,1.591914
2026-01-04T14:28:40.287303,-3.613162,4.455435,3.431307,0.465479,0.448374,1.814269
2026-01-04T14:28:40.296303,-4.350151,4.728217,2.560320,0.315206,0.707381,1.663996
2026-01-04T14:28:40.306303,-5.163711,4.455435,2.254038,0.360410,0.849102,1.600466
2026-01-04T14:28:40.316303,-5.962913,4.436293,2.019542,0.531452,0.796568,1.563814
2026-01-04T14:28:40.325303,-6.264409,4.814359,1.957328,0.789237,0.577878,1.541823
2026-01-04T14:28:40.335303,-5.800201,5.752345,2.019542,1.038470,0.265115,1.513723
2026-01-04T14:28:40.344303,-4.819144,6.647261,1.852044,1.153313,0.012217,1.480737
2026-01-04T14:28:40.354303,-3.656232,7.470392,1.923829,1.125213,-0.103847,1.456302
2026-01-04T14:28:40.364303,-2.900100,8.269594,2.139183,1.031140,-0.037873,1.406211
2026-01-04T14:28:40.373303,-2.335394,8.877371,2.431107,0.811228,0.178372,1.384220
2026-01-04T14:28:40.383303,-2.139183,8.896514,2.478964,0.480139,0.477696,1.391550
2026-01-04T14:28:40.393303,-2.636890,8.379664,2.148754,0.186924,0.784350,1.389107
2026-01-04T14:28:40.402303,-3.364308,7.561319,1.919043,0.000000,1.011592,1.401324
2026-01-04T14:28:40.412303,-4.359722,6.671189,1.727617,-0.078190,1.073900,1.411098
2026-01-04T14:28:40.421303,-5.130211,5.972485,1.473978,0.050090,0.950506,1.401324
2026-01-04T14:28:40.431303,-5.393422,6.020341,1.124626,0.365297,0.715933,1.451415
2026-01-04T14:28:40.441303,-4.991427,6.632904,0.535992,0.714712,0.439822,1.462411
2026-01-04T14:28:40.450303,-4.374079,7.609175,0.535992,0.977384,0.199142,1.461189
2026-01-04T14:28:40.460303,-3.680161,8.470592,1.038485,1.071457,0.063529,1.445306
2026-01-04T14:28:40.469303,-3.115455,9.087940,1.507478,1.005483,0.034208,1.422093
2026-01-04T14:28:40.479303,-2.718246,9.346365,2.057827,0.821002,0.097738,1.429424
2026-01-04T14:28:40.489303,-2.703889,9.212367,2.756531,0.554665,0.224798,1.434311
2026-01-04T14:28:40.498303,-2.880958,8.571090,2.699103,0.289550,0.377514,1.437976
2026-01-04T14:28:40.508303,-3.129811,7.704888,2.378465,0.117286,0.496022,1.452637
2026-01-04T14:28:40.518303,-3.460021,6.805187,1.986042,0.078190,0.522900,1.453858
2026-01-04T14:28:40.527303,-3.627519,6.245266,1.655833,0.226020,0.448374,1.457524
2026-01-04T14:28:40.537303,-3.555734,6.259623,1.244267,0.464257,0.327423,1.473406
2026-01-04T14:28:40.546303,-3.474378,6.479763,1.119840,0.674395,0.221133,1.507615
2026-01-04T14:28:40.556303,-3.306880,6.848258,1.158126,0.827111,0.138055,1.558927
2026-01-04T14:28:40.566303,-3.278166,7.226324,1.138983,0.934623,0.087964,1.609018
2026-01-04T14:28:40.575303,-3.225524,7.719245,1.119840,1.001818,0.069638,1.656666
2026-01-04T14:28:40.585303,-3.354737,8.063812,1.301695,1.016479,0.058643,1.694539
2026-01-04T14:28:40.594303,-3.431307,8.212167,1.732403,0.984714,0.034208,1.698205
2026-01-04T14:28:40.604303,-3.445664,8.106882,2.110469,0.880867,0.007330,1.693318
2026-01-04T14:28:40.614303,-3.460021,7.791030,1.928615,0.757472,-0.004886,1.699426
2026-01-04T14:28:40.623303,-3.613162,7.312465,1.837687,0.678060,-0.018325,1.676213
2026-01-04T14:28:40.633303,-3.972085,6.742974,1.837687,0.638964,-0.034208,1.623679
2026-01-04T14:28:40.643303,-4.441078,6.106483,1.856830,0.642630,-0.068416,1.591914
2026-01-04T14:28:40.652303,-4.938785,5.594419,2.053041,0.703716,-0.182037,1.610240
2026-01-04T14:28:40.662303,-4.996213,5.206781,2.555534,0.852767,-0.441044,1.673770
2026-01-04T14:28:40.671303,-4.589433,5.192425,2.335394,1.001818,-0.818559,1.782504
2026-01-04T14:28:40.681303,-3.704089,5.254638,1.430907,1.121548,-1.181413,1.914451
2026-01-04T14:28:40.691303,-2.794816,5.340780,0.837487,1.210734,-1.424537,2.012189
2026-01-04T14:28:40.700303,-1.646261,5.331208,0.813559,1.413541,-1.497841,2.153910
2026-01-04T14:28:40.710303,-0.770488,5.661418,0.799202,1.793499,-1.478293,2.219883
2026-01-04T14:28:40.719303,-0.014356,6.470192,0.052642,2.142914,-1.372003,2.274861
2026-01-04T14:28:40.729303,0.244067,7.211967,-0.875773,2.311513,-1.149648,2.377487
2026-01-04T14:28:40.739303,0.133998,7.661817,-1.373480,2.291965,-0.860098,2.449569
2026-01-04T14:28:40.748303,-0.267996,7.786244,-1.316052,2.188118,-0.581543,2.504546
2026-01-04T14:28:40.758303,-0.803988,7.513462,-1.469193,2.014633,-0.375071,2.552194
2026-01-04T14:28:40.768303,-1.225125,6.862615,-1.421336,1.923003,-0.272445,2.583959
2026-01-04T14:28:40.777303,-1.426122,6.278766,-1.406979,1.887573,-0.262671,2.609615
2026-01-04T14:28:40.787303,-1.067198,5.728417,-1.024128,1.783726,-0.312762,2.638937
2026-01-04T14:28:40.796303,-0.507278,5.082355,-1.708475,1.709200,-0.415388,2.708575
2026-01-04T14:28:40.806303,0.334995,4.326223,-2.163111,1.788613,-0.554665,2.779436
2026-01-04T14:28:40.816303,0.851844,3.756731,-3.187239,1.824043,-0.775798,2.863735
2026-01-04T14:28:40.825303,2.837887,3.316452,-3.594019,2.020741,-0.957836,2.933374
2026-01-04T14:28:40.835303,4.139583,3.675375,-4.776073,2.454456,-1.047022,2.973691
2026-01-04T14:28:40.844303,3.991228,5.053641,-5.536991,3.015230,-1.097113,3.098307
2026-01-04T14:28:40.854303,4.981856,7.312465,-5.407779,3.491704,-1.837482,4.042705
2026-01-04T14:28:40.864303,5.130211,6.139982,-4.335794,3.061655,-3.007899,3.784920
2026-01-04T14:28:40.873303,7.489534,9.274580,-4.962714,4.450763,-0.932180,3.093420
2026-01-04T14:28:40.883303,10.001998,11.212766,-5.197210,4.232073,-0.779463,2.587624
2026-01-04T14:28:40.893303,9.561719,11.231909,-5.230710,3.809354,-0.245567,2.553416
2026-01-04T14:28:40.902303,10.470991,9.446863,-7.853243,3.248580,0.354301,2.680476
2026-01-04T14:28:40.912303,7.738388,7.494320,-9.537790,2.594954,0.714712,2.814866
2026-01-04T14:28:40.921303,6.460621,5.259424,-11.188838,2.029293,0.767246,2.959030
2026-01-04T14:28:40.931303,5.785845,3.517449,-11.562118,1.799608,0.591317,2.993239
2026-01-04T14:28:40.941303,5.709274,2.268395,-11.466405,1.877799,0.313984,2.907717
2026-01-04T14:28:40.950303,6.460621,1.732403,-11.361121,2.127032,0.007330,2.751336
2026-01-04T14:28:40.960303,7.786244,1.804188,-11.164910,2.401921,-0.259006,2.524094
2026-01-04T14:28:40.969303,9.011369,2.589034,-11.059626,2.533868,-0.426383,2.470338
2026-01-04T14:28:40.979303,7.082754,1.875972,-10.504491,2.608394,-0.477696,2.713462
2026-01-04T14:28:40.989303,6.293123,3.503092,-8.370093,2.613280,-0.373849,2.912604
2026-01-04T14:28:40.998303,10.509276,3.225524,-5.149354,2.018298,-0.284663,3.406183
2026-01-04T14:28:41.008303,-1.737189,1.588834,-11.815757,1.484402,-0.102625,1.683544
2026-01-04T14:28:41.018303,0.368494,1.593619,-1.186840,2.243096,0.188146,1.391550
2026-01-04T14:28:41.027303,15.601203,3.426521,-13.648660,1.927890,0.728151,1.804495
2026-01-04T14:28:41.037303,14.629717,3.220739,-13.026526,1.833817,1.065348,1.803273
2026-01-04T14:28:41.046303,12.930813,3.728017,-11.619546,1.964542,1.242499,1.679879
2026-01-04T14:28:41.056303,11.050054,4.144368,-9.992427,2.032959,1.387885,1.513723
2026-01-04T14:28:41.066303,9.131011,4.551148,-9.265009,2.039067,1.468519,1.255938
2026-01-04T14:28:41.075303,7.125825,4.929214,-8.805587,1.728748,1.393994,1.028696
2026-01-04T14:28:41.085303,5.651846,4.522434,-8.872586,1.040914,1.177747,0.885754
2026-01-04T14:28:41.094303,4.579862,3.646661,-9.973284,0.326201,0.913854,0.818559
2026-01-04T14:28:41.104303,4.235296,2.837887,-10.576275,-0.204028,0.544891,0.751364
2026-01-04T14:28:41.114303,5.048855,1.703689,-9.351150,-0.689055,-0.006108,0.648738
2026-01-04T14:28:41.123303,7.039684,0.263210,-7.747959,-0.893084,-0.558330,0.585208
2026-01-04T14:28:41.133303,9.432506,-0.488135,-6.905686,-0.632856,-0.823446,0.493579
2026-01-04T14:28:41.143303,11.523833,-0.497707,-6.690331,-0.109955,-0.653625,0.342084
2026-01-04T14:28:41.152303,12.576675,0.129212,-6.589833,0.470366,-0.140498,0.217467
2026-01-04T14:28:41.162303,12.193823,1.335195,-6.388836,0.989601,0.516791,0.129503
2026-01-04T14:28:41.171303,10.604989,2.895315,-7.211967,1.312138,1.064127,0.084299
2026-01-04T14:28:41.181303,8.719445,4.469792,-8.327022,1.351233,1.231504,0.070860
2026-01-04T14:28:41.191303,7.283751,5.723631,-9.150153,1.131322,0.988379,0.045204
2026-01-04T14:28:41.200303,6.876972,6.431907,-9.245866,0.747698,0.467922,-0.065973
2026-01-04T14:28:41.210303,7.537391,6.503691,-9.513862,0.263893,-0.114842,-0.210137
2026-01-04T14:28:41.219303,8.982656,6.087340,-9.705288,-0.215024,-0.544891,-0.355523
2026-01-04T14:28:41.229303,10.619346,5.087140,-9.757930,-0.720820,-0.690277,-0.482583
2026-01-04T14:28:41.239303,11.705688,3.479164,-10.279565,-1.153313,-0.518013,-0.549778
2026-01-04T14:28:41.248303,11.614760,2.062613,-10.743773,-1.205847,-0.160046,-0.632856
2026-01-04T14:28:41.258303,11.011769,1.674975,-10.514062,-0.875980,0.102625,-0.806341
2026-01-04T14:28:41.268303,10.518848,2.344966,-9.896714,-0.411723,0.092851,-1.064127
2026-01-04T14:28:41.277303,10.499705,4.307080,-10.365707,0.026878,-0.098960,-1.393994
2026-01-04T14:28:41.287303,11.164910,6.924828,-12.160324,0.103847,-0.342084,-1.742187
2026-01-04T14:28:41.296303,12.586246,8.724231,-14.275579,-0.461814,-0.598647,-2.028072
2026-01-04T14:28:41.306303,14.696716,9.049655,-15.696916,-1.484402,-0.811228,-2.241874
2026-01-04T14:28:41.316303,17.290537,7.757530,-16.247265,-2.662150,-0.882089,-2.400699
2026-01-04T14:28:41.325303,19.587645,5.201996,-17.017754,-3.668855,-0.701273,-2.509433
2026-01-04T14:28:41.335303,21.162123,2.435893,-16.386049,-4.188091,-0.218689,-2.689028
2026-01-04T14:28:41.344303,21.396620,0.090927,-15.041282,-4.269947,0.510683,-2.884505
2026-01-04T14:28:41.354303,20.267206,-1.359123,-13.935798,-3.937636,1.334129,-3.088534
2026-01-04T14:28:41.364303,18.132809,-1.138983,-12.988241,-3.411070,2.015854,-3.349984
2026-01-04T14:28:41.373303,15.797414,0.066999,-12.031112,-3.079981,2.426356,-3.576004
2026-01-04T14:28:41.383303,13.892728,1.344766,-11.126625,-3.020117,2.634050,-3.743381
2026-01-04T14:28:41.393303,12.351750,2.153540,-10.159924,-3.215593,2.752558,-3.835011
2026-01-04T14:28:41.402303,10.935199,2.196611,-9.308079,-3.481931,2.905274,-3.864332
2026-01-04T14:28:41.412303,9.489934,1.875972,-6.675975,-3.499035,3.152063,-3.900984
2026-01-04T14:28:41.421303,7.676174,1.770688,-2.675175,-3.232698,3.486818,-3.957184
2026-01-04T14:28:41.431303,4.996213,1.454836,-1.134197,-2.873509,3.816685,-3.977953
2026-01-04T14:28:41.441303,1.598405,1.512263,0.291924,-2.454456,4.059809,-4.010940
2026-01-04T14:28:41.450303,-1.564905,-0.191425,0.918843,-2.332282,4.223521,-4.189312
2026-01-04T14:28:41.460303,-0.574277,0.401994,1.086341,-2.392147,4.331033,-4.753751
2026-01-04T14:28:41.469303,-0.937986,-0.220139,-0.258424,0.266337,4.418998,-5.382943
2026-01-04T14:28:41.479303,-0.019142,-0.421136,0.301495,-0.067195,0.079412,-4.373794
2026-01-04T14:28:41.489303,-150.092194,-33.686157,23.803799,-1.028696,0.248011,-3.619986
2026-01-04T14:28:41.498303,0.124426,-0.062213,0.952343,-1.523497,-1.714087,-3.046995
2026-01-04T14:28:41.508303,1.737189,4.852644,6.398407,-0.345749,-1.148426,-2.460564
2026-01-04T14:28:41.518303,1.349551,11.906685,6.202196,0.283441,-0.223576,-1.692096
2026-01-04T14:28:41.527303,3.326023,7.412964,5.733202,0.305432,-0.503352,-2.197892
2026-01-04T14:28:41.537303,2.890529,7.982456,3.211167,0.315206,-0.498465,-2.285857
2026-01-04T14:28:41.546303,2.120040,8.695517,-0.258424,0.365297,-0.251676,-2.127032
2026-01-04T14:28:41.556303,1.435693,9.992427,-2.622533,0.400727,0.091629,-2.052506
2026-01-04T14:28:41.566303,0.646062,11.083554,-1.895115,0.972497,0.583987,-2.447125
2026-01-04T14:28:41.575303,-7.054041,7.920242,-9.193224,-0.535117,0.718377,-2.086715
2026-01-04T14:28:41.585303,-4.957928,11.222337,-5.398207,-1.587027,1.247386,-1.809382
2026-01-04T14:28:41.594303,-6.905686,9.576076,-4.335794,-2.168571,1.114217,-1.689652
2026-01-04T14:28:41.604303,-7.834101,7.451249,-1.631905,-2.324952,0.465479,-1.565036
2026-01-04T14:28:41.614303,-6.460621,5.589633,0.808774,-1.824043,-0.267558,-1.448972
2026-01-04T14:28:41.623303,-5.149354,5.120640,1.842473,-0.851545,-0.497244,-1.497841
2026-01-04T14:28:41.633303,-12.600603,4.838287,2.900100,0.076969,-0.467922,-1.557706
2026-01-04T14:28:41.643303,-1.574477,7.891528,1.555334,0.662177,-1.138652,-1.408654
2026-01-04T14:28:41.652303,-0.933200,9.585647,0.502492,0.910189,-1.225395,-1.412320
2026-01-04T14:28:41.662303,0.038285,11.715259,0.138783,0.663399,-0.873537,-1.325577
2026-01-04T14:28:41.671303,0.492921,13.055240,0.014356,-0.243124,-0.466700,-1.152091
2026-01-04T14:28:41.681303,0.406779,12.514462,-0.674775,-1.378111,-0.079412,-0.949284
2026-01-04T14:28:41.691303,-0.756131,10.308279,-0.574277,-2.316400,0.230907,-0.753807
2026-01-04T14:28:41.700303,-1.335195,8.216952,0.344566,-2.610837,0.394618,-0.663399
2026-01-04T14:28:41.710303,-1.718046,6.096911,2.646461,-2.448347,0.464257,-0.511904
2026-01-04T14:28:41.719303,-2.373680,4.398007,3.148954,-1.578475,0.417831,-0.524122
2026-01-04T14:28:41.729303,-2.000399,3.842873,2.751745,-0.105068,0.094073,-0.764803
2026-01-04T14:28:41.739303,-2.014756,6.211767,0.086141,1.282816,-0.278554,-1.033583
2026-01-04T14:28:41.748303,-1.483550,8.982656,-0.646062,2.199114,-0.548556,-1.313359
2026-01-04T14:28:41.758303,-0.574277,11.743973,-1.411765,3.045773,-0.662177,-1.764178
2026-01-04T14:28:41.768303,-0.344566,15.151352,-0.301495,2.309070,-0.689055,-1.516167
2026-01-04T14:28:41.777303,-0.229710,15.763915,-1.464407,1.287703,-0.613308,-1.430646
2026-01-04T14:28:41.787303,-0.483350,15.730415,-0.612562,-0.094073,-0.576656,-1.398881
2026-01-04T14:28:41.796303,-0.708275,13.792229,-0.909272,-1.529606,-0.634077,-1.268155
2026-01-04T14:28:41.806303,-0.794417,10.997412,-1.392622,-2.516764,-0.753807,-1.177747
2026-01-04T14:28:41.816303,-0.703489,8.331808,-0.870987,-2.897944,-0.886976,-1.215621
2026-01-04T14:28:41.825303,-0.698704,6.063412,0.057427,-2.731788,-0.982271,-1.324355
2026-01-04T14:28:41.835303,-0.497707,4.709074,1.028913,-2.464229,-1.016479,-1.277929
2026-01-04T14:28:41.844303,0.607776,5.024927,2.263610,-1.293812,-0.941954,-1.524719
2026-01-04T14:28:41.854303,0.110069,4.388436,3.196810,-0.200363,-0.684168,-1.662774
2026-01-04T14:28:41.864303,-0.349352,5.790630,2.321037,0.489913,-0.290771,-1.634675
2026-01-04T14:28:41.873303,-1.225125,7.149753,0.741775,0.836885,0.040317,-1.525941
2026-01-04T14:28:41.883303,-2.076970,8.408378,-0.535992,0.955393,0.174707,-1.457524
2026-01-04T14:28:41.893303,-2.517249,9.537790,0.291924,1.230282,0.127059,-1.673770
2026-01-04T14:28:41.902303,-5.412564,10.413563,2.306680,0.306654,-0.073303,-1.544267
2026-01-04T14:28:41.912303,-1.316052,11.016555,-0.287138,-0.419053,-0.383623,-1.384220
2026-01-04T14:28:41.921303,-3.512663,8.355736,-1.517049,-0.829554,-0.777020,-1.408654
2026-01-04T14:28:41.931303,-2.991028,6.728617,-1.330409,-0.976162,-0.996931,-1.459967
2026-01-04T14:28:41.941303,-2.545963,5.551348,-0.401994,-0.813672,-0.994488,-1.491732
2026-01-04T14:28:41.950303,-2.732603,5.139782,0.789631,-0.483805,-0.828333,-1.495397
2026-01-04T14:28:41.960303,-3.163311,5.326423,1.545763,-0.174707,-0.574213,-1.403768
2026-01-04T14:28:41.969303,-3.866801,6.005984,0.971485,0.067195,-0.351858,-1.227838
2026-01-04T14:28:41.979303,-4.479363,6.963113,0.090927,0.183259,-0.290771,-1.099557
2026-01-04T14:28:41.989303,-4.790430,7.877171,0.009571,0.191811,-0.426383,-1.123991
2026-01-04T14:28:41.998303,-4.666004,8.422735,0.138783,0.085521,-0.643851,-1.170417
2026-01-04T14:28:42.008303,-4.149154,8.551947,0.301495,0.008552,-0.818559,-1.181413
2026-01-04T14:28:42.018303,-3.541377,8.437092,0.698704,-0.012217,-0.902858,-1.293812
2026-01-04T14:28:42.027303,-2.947957,7.891528,0.952343,0.023212,-0.910189,-1.431867
2026-01-04T14:28:42.037303,-2.727817,7.499106,0.985842,0.162490,-0.825889,-1.525941
2026-01-04T14:28:42.046303,-2.852244,7.350751,1.411765,0.284663,-0.623082,-1.606575
2026-01-04T14:28:42.056303,-3.512663,7.537391,1.761117,0.387288,-0.339641,-1.637118
2026-01-04T14:28:42.066303,-4.704289,8.183453,2.105683,0.388510,-0.092851,-1.623679
2026-01-04T14:28:42.075303,-5.905486,8.494520,1.933400,0.094073,-0.030543,-1.583362
2026-01-04T14:28:42.085303,-6.733402,8.331808,1.320838,-0.384845,-0.195476,-1.508836
2026-01-04T14:28:42.094303,-6.752545,7.546962,0.990628,-0.907745,-0.531452,-1.484402
2026-01-04T14:28:42.104303,-6.068198,6.082555,0.354137,-1.337794,-0.882089,-1.470963
2026-01-04T14:28:42.114303,-5.058426,4.445864,-0.736989,-1.417207,-1.061683,-1.450193
2026-01-04T14:28:42.123303,-4.393222,3.182454,-1.105484,-1.182634,-1.027475,-1.496619
2026-01-04T14:28:42.133303,-4.173082,2.383251,-0.626919,-0.786794,-0.873537,-1.551597
2026-01-04T14:28:42.143303,-4.603790,2.359323,0.071784,-0.279776,-0.675616,-1.538158
2026-01-04T14:28:42.152303,-5.680560,3.383451,0.368494,0.133168,-0.485026,-1.500284
2026-01-04T14:28:42.162303,-6.786044,4.733003,0.354137,0.221133,-0.401949,-1.455080
2026-01-04T14:28:42.171303,-7.814958,5.910271,0.708275,0.002443,-0.482583,-1.401324
2026-01-04T14:28:42.181303,-8.126025,6.556333,1.521835,-0.410501,-0.696386,-1.369559
2026-01-04T14:28:42.191303,-7.786244,6.556333,1.756331,-0.912632,-0.934623,-1.337794
2026-01-04T14:28:42.200303,-7.192824,6.025127,1.942971,-1.354898,-1.103222,-1.312138
2026-01-04T14:28:42.210303,-6.417550,5.144568,2.895315,-1.767843,-1.171639,-1.298699
2026-01-04T14:28:42.219303,-5.905486,3.598805,3.105883,-2.073276,-1.089783,-1.249830
2026-01-04T14:28:42.229303,-5.867201,1.957328,2.622533,-2.031737,-0.875980,-1.191186
2026-01-04T14:28:42.239303,-6.259623,1.560120,2.909672,-1.666440,-0.636521,-1.187521
2026-01-04T14:28:42.248303,-7.192824,1.899901,3.641875,-1.762956,-0.387288,-1.213178
2026-01-04T14:28:42.258303,-7.293323,1.411765,6.546762,-0.772133,-0.384845,-1.177747
2026-01-04T14:28:42.268303,-7.757530,2.550748,5.862415,-0.100181,-0.386066,-1.164308
2026-01-04T14:28:42.277303,-7.403393,3.766302,4.938785,0.076969,-0.318871,-1.156978
2026-01-04T14:28:42.287303,-7.360322,4.455435,3.981656,-0.020769,-0.210137,-1.121548
2026-01-04T14:28:42.296303,-7.384250,4.192225,3.440878,-0.248011,-0.085521,-1.089783
2026-01-04T14:28:42.306303,-7.714460,3.469592,2.636890,-0.234572,0.091629,-1.012814
2026-01-04T14:28:42.316303,-8.652446,5.474778,2.813959,-0.842993,0.018325,-1.016479
2026-01-04T14:28:42.325303,-9.087940,2.344966,3.469592,-1.049466,-0.105068,-1.100778
2026-01-04T14:28:42.335303,-9.695717,2.234896,4.230510,-0.960279,-0.300545,-1.134987
2026-01-04T14:28:42.344303,-9.781858,2.703889,5.283352,-1.143539,-0.461814,-1.178969
2026-01-04T14:28:42.354303,-9.805787,3.771088,4.986642,-0.943175,-0.432492,-1.141096
2026-01-04T14:28:42.364303,-8.714659,2.014756,7.154539,-0.977384,-0.313984,-1.099557
2026-01-04T14:28:42.373303,-8.915657,1.904686,6.987041,-1.098335,-0.039095,-1.015257
2026-01-04T14:28:42.383303,-9.652646,1.339980,6.369693,-1.188743,0.274889,-0.890641
2026-01-04T14:28:42.393303,-10.863414,0.799202,5.637490,-1.221730,0.472809,-0.766024
2026-01-04T14:28:42.402303,-12.064611,0.009571,4.905286,-1.111774,0.522900,-0.647517
2026-01-04T14:28:42.412303,-13.064811,-0.373280,5.029713,-0.810007,0.388510,-0.585208
2026-01-04T14:28:42.421303,-13.265808,-0.296710,5.469992,-0.366519,0.081855,-0.549778
2026-01-04T14:28:42.431303,-12.610175,0.545563,5.594419,0.103847,-0.256563,-0.518013
2026-01-04T14:28:42.441303,-11.495119,1.684547,5.852844,0.470366,-0.448374,-0.489913
2026-01-04T14:28:42.450303,-10.748559,2.885744,6.384050,0.596204,-0.437379,-0.437379
2026-01-04T14:28:42.460303,-10.470991,3.675375,6.924828,0.466700,-0.293215,-0.356745
2026-01-04T14:28:42.469303,-10.834700,3.900300,7.235895,0.189368,-0.105068,-0.263893
2026-01-04T14:28:42.479303,-11.461620,3.646661,7.312465,-0.164933,0.040317,-0.186924
2026-01-04T14:28:42.489303,-12.102896,2.742174,6.781259,-0.499687,0.095294,-0.102625
2026-01-04T14:28:42.498303,-12.610175,1.751546,6.393621,-0.654847,0.047647,-0.025656
2026-01-04T14:28:42.508303,-12.696316,0.976271,6.221338,-0.663399,-0.084299,0.034208
2026-01-04T14:28:42.518303,-12.380464,0.440279,5.690132,-0.605978,-0.235793,0.123394
2026-01-04T14:28:42.527303,-11.858828,-0.023928,5.383850,-0.458148,-0.334754,0.217467
2026-01-04T14:28:42.537303,-11.370692,-0.550349,5.733202,-0.241902,-0.362853,0.304210
2026-01-04T14:28:42.546303,-10.954341,-0.914058,5.915057,0.045204,-0.353080,0.414166
2026-01-04T14:28:42.556303,-10.671988,-0.617348,5.766702,0.394618,-0.301767,0.527787
2026-01-04T14:28:42.566303,-10.542776,0.095712,5.852844,0.689055,-0.226020,0.608421
2026-01-04T14:28:42.575303,-10.418349,0.899701,5.986842,0.860098,-0.168598,0.674395
2026-01-04T14:28:42.585303,-10.269994,1.564905,5.905486,0.916297,-0.138055,0.741590
2026-01-04T14:28:42.594303,-10.107282,2.057827,5.804987,0.840550,-0.105068,0.805120
2026-01-04T14:28:42.604303,-9.863214,2.172682,5.742774,0.664621,-0.064751,0.847880
2026-01-04T14:28:42.614303,-9.643075,1.899901,5.546562,0.472809,-0.037873,0.893084
2026-01-04T14:28:42.623303,-9.442077,1.545763,5.096712,0.339641,-0.025656,0.941954
2026-01-04T14:28:42.633303,-9.174081,1.143769,4.661218,0.307876,-0.020769,0.985936
2026-01-04T14:28:42.643303,-8.930013,0.827916,4.374079,0.397062,0.004886,1.047022
2026-01-04T14:28:42.652303,-8.772087,0.717846,4.302295,0.570548,0.045204,1.095892
2026-01-04T14:28:42.662303,-8.638089,0.813559,4.264009,0.767246,0.059864,1.158200
2026-01-04T14:28:42.671303,-8.623732,1.311266,4.173082,0.970053,0.058643,1.218065
2026-01-04T14:28:42.681303,-8.413164,1.952543,4.484149,1.108109,0.057421,1.249830
2026-01-04T14:28:42.691303,-8.121239,2.589034,4.771288,1.148426,0.054977,1.270599
2026-01-04T14:28:42.700303,-7.781459,3.081955,4.785645,1.109331,0.061086,1.286481
2026-01-04T14:28:42.710303,-7.312465,3.474378,4.838287,0.965166,0.095294,1.299920
2026-01-04T14:28:42.719303,-6.781259,3.469592,4.469792,0.741590,0.164933,1.319468
2026-01-04T14:28:42.729303,-6.331408,3.206382,3.943371,0.557108,0.263893,1.354898
2026-01-04T14:28:42.739303,-6.072983,2.761317,3.393022,0.455705,0.370184,1.387885
2026-01-04T14:28:42.748303,-6.034698,2.287538,2.780459,0.472809,0.463035,1.433089
2026-01-04T14:28:42.758303,-6.163911,2.254038,2.340180,0.671951,0.546113,1.473406
2026-01-04T14:28:42.768303,-6.264409,2.737389,1.995614,0.948062,0.588873,1.480737
2026-01-04T14:28:42.777303,-6.398407,3.546163,1.741974,1.198517,0.558330,1.499062
2026-01-04T14:28:42.787303,-6.336194,4.618147,1.966900,1.398881,0.467922,1.508836
2026-01-04T14:28:42.796303,-5.962913,4.680361,2.670390,1.461189,0.392175,1.519832
2026-01-04T14:28:42.806303,-9.174081,3.125026,3.641875,1.402546,0.454483,1.280373
2026-01-04T14:28:42.816303,-4.804787,8.044669,1.847259,0.896749,0.389731,1.430646
2026-01-04T14:28:42.825303,-5.039284,7.484749,1.976471,0.499687,0.455705,1.441641
2026-01-04T14:28:42.835303,-5.024927,6.991827,2.191825,0.226020,0.594982,1.406211
2026-01-04T14:28:42.844303,-5.000999,6.436692,2.196611,0.032986,0.703716,1.402546
2026-01-04T14:28:42.854303,-5.029713,5.905486,1.890329,0.029321,0.735481,1.376889
2026-01-04T14:28:42.864303,-4.938785,5.781059,1.387837,0.193033,0.687834,1.347568
2026-01-04T14:28:42.873303,-4.651647,6.029912,0.851844,0.458148,0.629191,1.318246
2026-01-04T14:28:42.883303,-4.512863,6.618547,0.454636,0.740368,0.597426,1.268155
2026-01-04T14:28:42.893303,-4.512863,7.398607,0.320638,0.976162,0.580321,1.222951
2026-01-04T14:28:42.902303,-4.546362,8.413164,0.421136,1.065348,0.538783,1.172861
2026-01-04T14:28:42.912303,-4.575076,9.164510,0.569491,0.933401,0.471587,1.125213
2026-01-04T14:28:42.921303,-4.407579,9.518648,0.847059,0.624304,0.408057,1.098335
2026-01-04T14:28:42.931303,-4.249652,9.485148,0.866201,0.237015,0.367740,1.077566
2026-01-04T14:28:42.941303,-4.019941,9.164510,0.942772,-0.116064,0.361632,1.066570
2026-01-04T14:28:42.950303,-3.699303,8.513662,1.167697,-0.384845,0.365297,1.061683
2026-01-04T14:28:42.960303,-3.440878,7.637889,1.229910,-0.481361,0.366519,1.051909
2026-01-04T14:28:42.969303,-3.359522,7.121040,1.115055,-0.340862,0.399505,1.032362
2026-01-04T14:28:42.979303,-3.517449,7.015755,1.335195,-0.058643,0.449596,1.018923
2026-01-04T14:28:42.989303,-3.857230,7.235895,1.775474,0.255341,0.454483,1.017701
2026-01-04T14:28:42.998303,-4.268795,7.719245,1.976471,0.460592,0.400727,1.009149
2026-01-04T14:28:43.008303,-4.398007,8.073383,1.421336,0.522900,0.338419,1.034805
2026-01-04T14:28:43.018303,-4.508077,8.561519,0.928415,0.494800,0.305432,1.055574
2026-01-04T14:28:43.027303,-4.450650,8.724231,0.583848,0.304210,0.266337,1.056796
2026-01-04T14:28:43.037303,-4.383651,8.537591,0.512064,0.034208,0.251676,1.076344
2026-01-04T14:28:43.046303,-4.345365,8.193024,1.076770,-0.149051,0.252898,1.077566
2026-01-04T14:28:43.056303,-4.244867,7.771887,1.684547,-0.227241,0.213802,1.077566
2026-01-04T14:28:43.066303,-3.957728,7.298108,1.885544,-0.168598,0.162490,1.093448
2026-01-04T14:28:43.075303,-3.862015,7.106683,1.928615,-0.003665,0.156381,1.117883
2026-01-04T14:28:43.085303,-3.833301,7.202396,2.029113,0.206472,0.171042,1.152091
2026-01-04T14:28:43.094303,-3.905086,7.436892,2.057827,0.392175,0.171042,1.176526
2026-01-04T14:28:43.104303,-4.158725,7.791030,1.631905,0.478918,0.185702,1.200960
2026-01-04T14:28:43.114303,-4.460221,8.063812,1.631905,0.510683,0.221133,1.244943
2026-01-04T14:28:43.123303,-4.823930,8.441878,1.885544,0.466700,0.230907,1.271821
2026-01-04T14:28:43.133303,-4.986642,8.585447,1.775474,0.301767,0.188146,1.326799
2026-01-04T14:28:43.143303,-4.924428,8.441878,1.588834,0.091629,0.094073,1.414763
2026-01-04T14:28:43.152303,-4.570291,7.915457,1.517049,-0.037873,-0.051312,1.497841
2026-01-04T14:28:43.162303,-3.933800,7.250252,1.526620,0.007330,-0.189368,1.558927
2026-01-04T14:28:43.171303,-3.378665,6.680760,1.670190,0.257785,-0.219911,1.574810
2026-01-04T14:28:43.181303,-3.125026,6.833901,1.799402,0.665842,-0.123394,1.595579
2026-01-04T14:28:43.191303,-3.230310,7.417750,1.737189,1.025031,0.012217,1.628566
2026-01-04T14:28:43.200303,-3.574876,8.011170,1.229910,1.186300,0.122173,1.678657
2026-01-04T14:28:43.210303,-4.216153,8.542376,1.100698,1.211956,0.140498,1.761734
2026-01-04T14:28:43.219303,-4.570291,8.987441,2.402393,1.095892,0.014660,1.841147
2026-01-04T14:28:43.229303,-4.297509,8.896514,2.569891,0.773355,-0.213802,1.935220
2026-01-04T14:28:43.239303,-3.512663,7.992027,1.210768,0.444709,-0.379958,2.094045
2026-01-04T14:28:43.248303,-2.713460,7.231109,0.904486,0.366519,-0.367740,2.177123
2026-01-04T14:28:43.258303,-2.225325,6.795616,1.445264,0.475253,-0.262671,2.167349
2026-01-04T14:28:43.268303,-1.890329,6.331408,1.335195,0.645073,-0.156381,2.194227
2026-01-04T14:28:43.277303,-1.674975,5.867201,0.713061,0.917519,-0.084299,2.244318
2026-01-04T14:28:43.287303,-1.579262,5.881557,0.157926,1.323133,-0.081855,2.263866
2026-01-04T14:28:43.296303,-1.588834,6.460621,0.052642,1.688431,-0.135612,2.290744
2026-01-04T14:28:43.306303,-1.727617,7.154539,0.143569,1.890016,-0.193033,2.349387
2026-01-04T14:28:43.316303,-1.914258,7.757530,0.258424,1.986533,-0.255341,2.428799
2026-01-04T14:28:43.325303,-1.933400,8.408378,0.794417,1.992641,-0.367740,2.499660
2026-01-04T14:28:43.335303,-1.493121,8.786444,1.124626,1.797165,-0.560774,2.574185
2026-01-04T14:28:43.344303,-0.598205,8.322237,0.373280,1.375668,-0.773355,2.680476
2026-01-04T14:28:43.354303,0.473778,7.441678,-0.780060,1.000597,-0.886976,2.724458
2026-01-04T14:28:43.364303,1.363908,6.551548,-1.655833,0.937067,-0.874758,2.656041
2026-01-04T14:28:43.373303,2.153540,6.116054,-1.871187,1.059240,-0.763581,2.546085
2026-01-04T14:28:43.383303,2.493321,5.848058,-1.694118,1.251051,-0.605978,2.449569
2026-01-04T14:28:43.393303,2.608176,5.800201,-1.344766,1.469741,-0.410501,2.387260
2026-01-04T14:28:43.402303,2.244467,5.857629,-1.387837,1.645670,-0.226020,2.390926
2026-01-04T14:28:43.412303,1.823330,6.020341,-1.564905,1.771508,-0.142942,2.452012
2026-01-04T14:28:43.421303,1.483550,6.144768,-1.904686,1.894903,-0.221133,2.505768
2026-01-04T14:28:43.431303,1.378265,6.522834,-2.124826,2.036624,-0.420275,2.522872
2026-01-04T14:28:43.441303,1.789831,7.207181,-2.091326,2.142914,-0.647517,2.498438
2026-01-04T14:28:43.450303,2.459821,7.968099,-2.249253,2.171014,-0.852767,2.459342
2026-01-04T14:28:43.460303,3.268595,9.131011,-2.785245,2.316400,-0.944397,2.379930
2026-01-04T14:28:43.469303,4.153940,10.777272,-3.034099,2.390926,-0.915075,2.296852
2026-01-04T14:28:43.479303,5.020141,11.892328,-3.120240,2.158797,-0.834441,2.305404
2026-01-04T14:28:43.489303,5.340780,12.284751,-3.608376,1.902233,-0.728151,2.329839
2026-01-04T14:28:43.498303,5.647061,12.136396,-5.115854,1.638340,-0.634077,2.365269
2026-01-04T14:28:43.508303,5.670989,11.083554,-7.030112,1.309694,-0.569326,2.437351
2026-01-04T14:28:43.518303,5.431707,9.494720,-8.140382,1.016479,-0.515570,2.535090
2026-01-04T14:28:43.527303,4.838287,8.006384,-7.848458,0.855211,-0.469144,2.565633
2026-01-04T14:28:43.537303,4.163511,6.585047,-6.972685,0.698829,-0.505796,2.505768
2026-01-04T14:28:43.546303,3.775874,4.929214,-5.374279,0.511904,-0.719599,2.397034
2026-01-04T14:28:43.556303,4.086941,3.407379,-2.986242,0.443488,-1.094670,2.234544
2026-01-04T14:28:43.566303,4.187439,3.067598,-1.531406,0.487470,-1.484402,2.160019
2026-01-04T14:28:43.575303,4.967499,3.948157,-1.182054,0.619417,-1.660331,3.130072
2026-01-04T14:28:43.585303,2.622533,1.387837,-1.105484,1.027475,-1.798386,3.479487
2026-01-04T14:28:43.594303,6.187839,3.809373,-0.655633,0.558330,-3.209485,3.786141
2026-01-04T14:28:43.604303,1.167697,-0.468993,-0.942772,0.874758,-0.431270,1.075122
2026-01-04T14:28:43.614303,0.622133,-0.392422,-0.387637,4.825834,-1.483180,1.161865
2026-01-04T14:28:43.623303,-2.660818,1.818545,-15.471990,3.522248,-0.987158,1.775174
2026-01-04T14:28:43.633303,4.977071,-0.626919,-5.991627,2.831970,-1.119104,1.499062
2026-01-04T14:28:43.643303,10.322636,6.393621,-7.144968,3.273015,-1.080009,1.798386
