Timestamp,Acceleration_X,Acceleration_Y,Acceleration_Z,Gyro_X,Gyro_Y,Gyro_Z
2025-12-31T16:18:41.593748,9.628718,-1.966900,0.885344,0.302989,-0.141720,-0.031764
2025-12-31T16:18:41.603748,9.609575,-1.986042,0.899701,0.270002,-0.140498,-0.028099
2025-12-31T16:18:41.612748,9.710074,-1.981257,0.909272,0.246789,-0.129503,-0.013439
2025-12-31T16:18:41.622748,9.705288,-2.024327,0.856630,0.215024,-0.124616,-0.013439
2025-12-31T16:18:41.631748,9.657432,-2.105683,0.827916,0.193033,-0.122173,-0.018325
2025-12-31T16:18:41.641748,9.690931,-2.210968,0.770488,0.206472,-0.112399,-0.018325
2025-12-31T16:18:41.651748,9.738787,-2.215753,0.799202,0.229685,-0.102625,-0.019547
2025-12-31T16:18:41.660748,9.791430,-2.263610,0.847059,0.250454,-0.096516,-0.024434
2025-12-31T16:18:41.670748,9.810572,-2.215753,0.827916,0.282219,-0.089186,-0.029321
2025-12-31T16:18:41.680748,9.839286,-2.115255,0.904486,0.311541,-0.068416,-0.021991
2025-12-31T16:18:41.689748,9.781858,-2.105683,0.894915,0.321315,-0.062308,-0.019547
2025-12-31T16:18:41.699748,9.695717,-2.029113,0.851844,0.334754,-0.061086,-0.013439
2025-12-31T16:18:41.708748,9.657432,-1.995614,0.918843,0.360410,-0.070860,-0.012217
2025-12-31T16:18:41.718748,9.652646,-1.938186,0.957129,0.371405,-0.074525,-0.002443
2025-12-31T16:18:41.728748,9.681360,-1.852044,0.875773,0.360410,-0.084299,-0.006108
2025-12-31T16:18:41.737748,9.710074,-1.804188,0.861416,0.338419,-0.092851,-0.003665
2025-12-31T16:18:41.747748,9.777073,-1.741974,0.966700,0.312762,-0.091629,0.001221
2025-12-31T16:18:41.756748,9.767501,-1.727617,0.914058,0.284663,-0.063529,0.003665
2025-12-31T16:18:41.766748,9.710074,-1.713260,0.928415,0.259006,-0.029321,0.012217
2025-12-31T16:18:41.776748,9.714859,-1.636690,0.851844,0.235793,-0.010995,0.025656
2025-12-31T16:18:41.785748,9.647860,-1.660618,0.875773,0.196698,-0.018325,0.028099
2025-12-31T16:18:41.795748,9.643075,-1.631905,0.952343,0.144164,-0.040317,0.021991
2025-12-31T16:18:41.805748,9.671788,-1.751546,1.004985,0.103847,-0.057421,0.018325
2025-12-31T16:18:41.814748,9.820143,-1.741974,1.004985,0.078190,-0.063529,0.018325
2025-12-31T16:18:41.824748,9.877571,-1.799402,0.976271,0.057421,-0.052534,0.014660
2025-12-31T16:18:41.833748,9.868000,-1.722832,0.894915,0.037873,-0.036651,0.002443
2025-12-31T16:18:41.843748,9.801001,-1.732403,0.981057,0.002443,-0.015882,0.008552
2025-12-31T16:18:41.853748,9.824929,-1.718046,1.028913,-0.045204,0.007330,0.021991
2025-12-31T16:18:41.862748,9.686145,-1.866401,0.952343,-0.084299,0.030543,0.024434
2025-12-31T16:18:41.872748,9.595218,-1.899901,1.000199,-0.096516,0.043982,0.030543
2025-12-31T16:18:41.881748,9.523433,-1.971685,1.000199,-0.084299,0.053756,0.035430
2025-12-31T16:18:41.891748,9.394221,-1.986042,0.976271,-0.068416,0.054977,0.040317
2025-12-31T16:18:41.901748,9.446863,-2.024327,1.000199,-0.050090,0.035430,0.046425
2025-12-31T16:18:41.910748,9.451649,-2.024327,1.000199,-0.032986,0.003665,0.040317
2025-12-31T16:18:41.920748,9.566504,-2.005185,0.952343,-0.025656,-0.025656,0.030543
2025-12-31T16:18:41.930748,9.609575,-1.957328,0.957129,-0.025656,-0.041538,0.028099
2025-12-31T16:18:41.939748,9.743573,-1.976471,0.981057,-0.040317,-0.047647,0.023212
2025-12-31T16:18:41.949748,9.729216,-1.928615,0.981057,-0.059864,-0.043982,0.023212
2025-12-31T16:18:41.958748,9.820143,-2.009970,0.923629,-0.076969,-0.026878,0.021991
2025-12-31T16:18:41.968748,9.786644,-1.981257,0.923629,-0.091629,-0.010995,0.019547
2025-12-31T16:18:41.978748,9.824929,-2.043470,0.952343,-0.105068,0.007330,0.026878
2025-12-31T16:18:41.987748,9.762716,-2.038684,1.004985,-0.123394,0.012217,0.030543
2025-12-31T16:18:41.997748,9.657432,-2.115255,1.009771,-0.133168,0.014660,0.035430
2025-12-31T16:18:42.006748,9.600004,-2.254038,0.966700,-0.116064,0.012217,0.034208
2025-12-31T16:18:42.016748,9.638289,-2.201396,0.894915,-0.087964,0.006108,0.030543
2025-12-31T16:18:42.026748,9.566504,-2.139183,0.890130,-0.062308,0.002443,0.034208
2025-12-31T16:18:42.035748,9.614361,-2.091326,0.923629,-0.051312,-0.003665,0.037873
2025-12-31T16:18:42.045748,9.590432,-2.038684,0.947557,-0.054977,-0.013439,0.043982
2025-12-31T16:18:42.055748,9.681360,-2.129612,0.957129,-0.056199,-0.019547,0.043982
2025-12-31T16:18:42.064748,9.643075,-2.038684,0.942772,-0.051312,-0.015882,0.045204
2025-12-31T16:18:42.074748,9.590432,-2.086541,0.923629,-0.056199,-0.008552,0.053756
2025-12-31T16:18:42.083748,9.619146,-2.129612,0.990628,-0.062308,-0.008552,0.058643
2025-12-31T16:18:42.093748,9.576076,-2.110469,0.937986,-0.068416,-0.017104,0.054977
2025-12-31T16:18:42.103748,9.604789,-2.153540,0.957129,-0.063529,-0.024434,0.052534
2025-12-31T16:18:42.112748,9.580861,-2.124826,0.952343,-0.051312,-0.034208,0.046425
2025-12-31T16:18:42.122748,9.571290,-2.115255,0.947557,-0.040317,-0.045204,0.046425
2025-12-31T16:18:42.131748,9.595218,-2.072184,0.961914,-0.041538,-0.054977,0.037873
2025-12-31T16:18:42.141748,9.686145,-2.091326,1.004985,-0.051312,-0.062308,0.031764
2025-12-31T16:18:42.151748,9.695717,-2.081755,0.942772,-0.056199,-0.062308,0.030543
2025-12-31T16:18:42.160748,9.729216,-2.163111,0.937986,-0.052534,-0.056199,0.032986
2025-12-31T16:18:42.170748,9.757930,-2.129612,0.914058,-0.043982,-0.047647,0.035430
2025-12-31T16:18:42.180748,9.796215,-2.153540,0.957129,-0.026878,-0.047647,0.031764
2025-12-31T16:18:42.189748,9.781858,-2.072184,0.981057,-0.015882,-0.040317,0.029321
2025-12-31T16:18:42.199748,9.815358,-2.134397,1.038485,-0.009773,-0.035430,0.025656
2025-12-31T16:18:42.208748,9.805787,-2.124826,1.067198,-0.007330,-0.025656,0.023212
2025-12-31T16:18:42.218748,9.820143,-2.110469,1.067198,-0.003665,0.000000,0.031764
2025-12-31T16:18:42.228748,9.719645,-2.182254,1.000199,0.014660,0.021991,0.041538
2025-12-31T16:18:42.237748,9.566504,-2.163111,0.976271,0.041538,0.020769,0.046425
2025-12-31T16:18:42.247748,9.609575,-1.990828,0.885344,0.057421,-0.006108,0.036651
2025-12-31T16:18:42.256748,9.619146,-1.933400,0.971485,0.051312,-0.032986,0.029321
2025-12-31T16:18:42.266748,9.671788,-1.914258,1.004985,0.026878,-0.046425,0.028099
2025-12-31T16:18:42.276748,9.801001,-1.966900,1.024128,-0.002443,-0.048869,0.029321
2025-12-31T16:18:42.285748,9.848857,-2.024327,0.976271,-0.026878,-0.032986,0.031764
2025-12-31T16:18:42.295748,9.791430,-2.105683,0.957129,-0.024434,-0.002443,0.031764
2025-12-31T16:18:42.305748,9.767501,-2.110469,0.909272,0.001221,0.023212,0.028099
2025-12-31T16:18:42.314748,9.638289,-2.062613,0.961914,0.023212,0.041538,0.025656
2025-12-31T16:18:42.324748,9.513862,-1.986042,0.933200,0.024434,0.037873,0.026878
2025-12-31T16:18:42.333748,9.485148,-1.933400,1.052841,0.010995,0.023212,0.025656
2025-12-31T16:18:42.343748,9.442077,-1.947757,1.091127,-0.007330,0.006108,0.029321
2025-12-31T16:18:42.353748,9.461220,-1.904686,1.043270,-0.023212,-0.015882,0.031764
2025-12-31T16:18:42.362748,9.489934,-1.885544,0.995414,-0.035430,-0.035430,0.036651
2025-12-31T16:18:42.372748,9.604789,-1.986042,1.014556,-0.053756,-0.047647,0.035430
2025-12-31T16:18:42.381748,9.724431,-1.981257,0.914058,-0.079412,-0.046425,0.036651
2025-12-31T16:18:42.391748,9.796215,-2.048256,0.976271,-0.108733,-0.035430,0.043982
2025-12-31T16:18:42.401748,9.781858,-2.163111,0.952343,-0.122173,-0.012217,0.050090
2025-12-31T16:18:42.410748,9.791430,-2.234896,1.024128,-0.117286,0.009773,0.052534
2025-12-31T16:18:42.420748,9.748359,-2.191825,1.009771,-0.102625,0.025656,0.056199
2025-12-31T16:18:42.430748,9.623932,-2.177468,0.870987,-0.086742,0.028099,0.052534
2025-12-31T16:18:42.439748,9.633503,-2.196611,0.995414,-0.078190,0.015882,0.045204
2025-12-31T16:18:42.449748,9.647860,-2.134397,0.947557,-0.085521,0.000000,0.043982
2025-12-31T16:18:42.458748,9.719645,-2.153540,1.043270,-0.101403,-0.012217,0.045204
2025-12-31T16:18:42.468748,9.767501,-2.210968,0.981057,-0.102625,-0.017104,0.046425
2025-12-31T16:18:42.478748,9.757930,-2.254038,1.024128,-0.087964,-0.006108,0.047647
2025-12-31T16:18:42.487748,9.805787,-2.163111,0.961914,-0.062308,0.009773,0.050090
2025-12-31T16:18:42.497748,9.690931,-2.196611,0.966700,-0.045204,0.026878,0.056199
2025-12-31T16:18:42.506748,9.690931,-2.129612,0.995414,-0.037873,0.040317,0.063529
2025-12-31T16:18:42.516748,9.714859,-2.057827,1.019342,-0.045204,0.043982,0.064751
2025-12-31T16:18:42.526748,9.614361,-2.081755,0.957129,-0.062308,0.043982,0.065973
2025-12-31T16:18:42.535748,9.595218,-2.110469,0.961914,-0.074525,0.040317,0.072082
2025-12-31T16:18:42.545748,9.552147,-2.167897,0.961914,-0.073303,0.031764,0.069638
2025-12-31T16:18:42.555748,9.604789,-2.120040,0.957129,-0.065973,0.017104,0.064751
2025-12-31T16:18:42.564748,9.580861,-2.143969,0.890130,-0.059864,0.000000,0.063529
2025-12-31T16:18:42.574748,9.552147,-2.076970,0.971485,-0.063529,-0.014660,0.056199
2025-12-31T16:18:42.583748,9.547362,-2.143969,0.976271,-0.068416,-0.028099,0.051312
2025-12-31T16:18:42.593748,9.600004,-2.210968,1.000199,-0.061086,-0.043982,0.041538
2025-12-31T16:18:42.603748,9.580861,-2.220539,1.009771,-0.037873,-0.059864,0.028099
2025-12-31T16:18:42.612748,9.619146,-2.220539,0.990628,-0.002443,-0.072082,0.015882
2025-12-31T16:18:42.622748,9.633503,-2.254038,1.000199,0.029321,-0.078190,0.006108
2025-12-31T16:18:42.631748,9.710074,-2.220539,0.904486,0.048869,-0.080634,-0.003665
2025-12-31T16:18:42.641748,9.839286,-2.172682,0.904486,0.067195,-0.079412,-0.010995
2025-12-31T16:18:42.651748,9.796215,-2.172682,0.952343,0.080634,-0.070860,-0.009773
2025-12-31T16:18:42.660748,9.801001,-2.115255,1.000199,0.087964,-0.056199,-0.010995
2025-12-31T16:18:42.670748,9.834500,-2.029113,1.028913,0.094073,-0.032986,-0.007330
2025-12-31T16:18:42.680748,9.757930,-1.966900,1.014556,0.081855,-0.008552,0.000000
2025-12-31T16:18:42.689748,9.705288,-1.899901,0.957129,0.052534,0.009773,0.014660
2025-12-31T16:18:42.699748,9.604789,-1.904686,0.918843,0.019547,0.007330,0.018325
2025-12-31T16:18:42.708748,9.619146,-1.890329,1.024128,-0.018325,-0.007330,0.014660
2025-12-31T16:18:42.718748,9.628718,-1.995614,0.995414,-0.054977,-0.030543,0.008552
2025-12-31T16:18:42.728748,9.743573,-2.072184,0.995414,-0.072082,-0.039095,0.002443
2025-12-31T16:18:42.737748,9.810572,-2.120040,1.048056,-0.069638,-0.029321,0.004886
2025-12-31T16:18:42.747748,9.767501,-2.148754,1.009771,-0.058643,-0.010995,0.007330
2025-12-31T16:18:42.756748,9.714859,-2.120040,1.052841,-0.047647,0.012217,0.009773
2025-12-31T16:18:42.766748,9.619146,-2.062613,1.014556,-0.045204,0.025656,0.010995
2025-12-31T16:18:42.776748,9.533005,-2.115255,1.033699,-0.054977,0.034208,0.014660
2025-12-31T16:18:42.785748,9.427721,-2.096112,1.004985,-0.067195,0.019547,0.012217
2025-12-31T16:18:42.795748,9.394221,-2.096112,1.062413,-0.072082,-0.009773,0.014660
2025-12-31T16:18:42.805748,9.451649,-2.177468,1.043270,-0.075747,-0.037873,0.015882
2025-12-31T16:18:42.814748,9.504291,-2.148754,0.928415,-0.080634,-0.058643,0.020769
2025-12-31T16:18:42.824748,9.600004,-2.134397,0.981057,-0.079412,-0.073303,0.025656
2025-12-31T16:18:42.833748,9.657432,-2.153540,0.957129,-0.087964,-0.075747,0.028099
2025-12-31T16:18:42.843748,9.767501,-2.191825,1.019342,-0.100181,-0.072082,0.023212
2025-12-31T16:18:42.853748,9.810572,-2.258824,0.971485,-0.102625,-0.059864,0.017104
2025-12-31T16:18:42.862748,9.858429,-2.344966,1.038485,-0.083077,-0.041538,0.012217
2025-12-31T16:18:42.872748,9.815358,-2.359323,1.009771,-0.050090,-0.023212,0.010995
2025-12-31T16:18:42.881748,9.734002,-2.325823,1.033699,-0.021991,-0.013439,0.009773
2025-12-31T16:18:42.891748,9.743573,-2.234896,0.985842,-0.002443,-0.015882,0.007330
2025-12-31T16:18:42.901748,9.647860,-2.167897,0.981057,0.009773,-0.015882,0.007330
2025-12-31T16:18:42.910748,9.619146,-2.124826,1.014556,0.007330,-0.017104,0.010995
2025-12-31T16:18:42.920748,9.647860,-2.096112,1.014556,-0.002443,-0.017104,0.017104
2025-12-31T16:18:42.930748,9.623932,-2.081755,1.014556,-0.010995,-0.015882,0.024434
2025-12-31T16:18:42.939748,9.652646,-2.086541,0.995414,-0.025656,-0.010995,0.031764
2025-12-31T16:18:42.949748,9.686145,-2.124826,1.095912,-0.037873,-0.012217,0.029321
2025-12-31T16:18:42.958748,9.738787,-2.191825,1.033699,-0.036651,-0.021991,0.024434
2025-12-31T16:18:42.968748,9.700502,-2.325823,1.009771,-0.024434,-0.031764,0.017104
2025-12-31T16:18:42.978748,9.714859,-2.297109,1.038485,-0.006108,-0.029321,0.009773
2025-12-31T16:18:42.987748,9.743573,-2.234896,1.028913,0.019547,-0.018325,0.004886
2025-12-31T16:18:42.997748,9.705288,-2.167897,1.028913,0.042760,0.002443,0.006108
2025-12-31T16:18:43.006748,9.681360,-2.019542,0.923629,0.048869,0.023212,0.010995
2025-12-31T16:18:43.016748,9.662217,-2.038684,0.952343,0.041538,0.034208,0.018325
2025-12-31T16:18:43.026748,9.556933,-2.024327,0.981057,0.030543,0.036651,0.023212
2025-12-31T16:18:43.035748,9.489934,-2.019542,0.971485,0.020769,0.023212,0.029321
2025-12-31T16:18:43.045748,9.485148,-1.990828,1.009771,0.009773,-0.001221,0.030543
2025-12-31T16:18:43.055748,9.513862,-1.995614,0.937986,-0.006108,-0.028099,0.024434
2025-12-31T16:18:43.064748,9.600004,-2.057827,0.981057,-0.028099,-0.051312,0.020769
2025-12-31T16:18:43.074748,9.690931,-2.115255,0.985842,-0.036651,-0.057421,0.015882
2025-12-31T16:18:43.083748,9.801001,-2.187039,0.985842,-0.025656,-0.047647,0.008552
2025-12-31T16:18:43.093748,9.748359,-2.143969,0.976271,-0.013439,-0.025656,0.007330
2025-12-31T16:18:43.103748,9.686145,-2.120040,0.966700,-0.006108,-0.008552,0.009773
2025-12-31T16:18:43.112748,9.633503,-2.096112,0.928415,0.000000,-0.003665,0.010995
2025-12-31T16:18:43.122748,9.518648,-2.100898,0.961914,0.002443,-0.014660,0.003665
2025-12-31T16:18:43.131748,9.509077,-2.081755,0.976271,0.001221,-0.031764,0.002443
2025-12-31T16:18:43.141748,9.480363,-2.009970,1.076770,-0.003665,-0.046425,0.007330
2025-12-31T16:18:43.151748,9.504291,-2.076970,1.033699,-0.023212,-0.064751,0.010995
2025-12-31T16:18:43.160748,9.537790,-2.067398,0.914058,-0.052534,-0.087964,0.012217
2025-12-31T16:18:43.170748,9.590432,-2.038684,0.890130,-0.070860,-0.109955,0.007330
2025-12-31T16:18:43.180748,9.767501,-2.177468,0.894915,-0.083077,-0.123394,0.002443
2025-12-31T16:18:43.189748,9.925428,-2.210968,0.971485,-0.087964,-0.117286,0.000000
2025-12-31T16:18:43.199748,10.001998,-2.282752,0.957129,-0.075747,-0.091629,0.000000
2025-12-31T16:18:43.208748,9.958927,-2.254038,0.928415,-0.052534,-0.048869,0.004886
2025-12-31T16:18:43.218748,9.887142,-2.239681,0.976271,-0.037873,-0.002443,0.009773
2025-12-31T16:18:43.228748,9.767501,-2.139183,0.947557,-0.034208,0.029321,0.013439
2025-12-31T16:18:43.237748,9.714859,-2.249253,0.961914,-0.035430,0.041538,0.013439
2025-12-31T16:18:43.247748,9.547362,-2.182254,0.942772,-0.028099,0.035430,0.015882
2025-12-31T16:18:43.256748,9.480363,-2.268395,0.985842,-0.008552,0.012217,0.013439
2025-12-31T16:18:43.266748,9.466006,-2.139183,1.091127,0.004886,-0.009773,0.012217
2025-12-31T16:18:43.276748,9.489934,-2.072184,1.071984,0.012217,-0.035430,0.015882
2025-12-31T16:18:43.285748,9.528219,-2.081755,1.067198,0.010995,-0.053756,0.013439
2025-12-31T16:18:43.295748,9.585647,-2.105683,1.071984,0.000000,-0.068416,0.015882
2025-12-31T16:18:43.305748,9.633503,-2.120040,1.009771,-0.008552,-0.076969,0.015882
2025-12-31T16:18:43.314748,9.686145,-2.225325,1.004985,0.002443,-0.079412,0.008552
2025-12-31T16:18:43.324748,9.671788,-2.177468,0.923629,0.021991,-0.070860,0.001221
2025-12-31T16:18:43.333748,9.777073,-2.234896,0.966700,0.040317,-0.064751,-0.003665
2025-12-31T16:18:43.343748,9.748359,-2.139183,0.971485,0.051312,-0.059864,-0.008552
2025-12-31T16:18:43.353748,9.738787,-2.139183,0.957129,0.056199,-0.054977,-0.013439
2025-12-31T16:18:43.362748,9.743573,-2.053041,1.009771,0.054977,-0.050090,-0.014660
2025-12-31T16:18:43.372748,9.690931,-2.062613,0.947557,0.041538,-0.042760,-0.007330
2025-12-31T16:18:43.381748,9.671788,-2.043470,0.947557,0.024434,-0.037873,0.001221
2025-12-31T16:18:43.391748,9.667003,-2.115255,0.990628,0.014660,-0.034208,0.003665
2025-12-31T16:18:43.401748,9.667003,-2.129612,0.928415,0.015882,-0.030543,0.008552
2025-12-31T16:18:43.410748,9.628718,-2.153540,0.976271,0.026878,-0.034208,0.010995
2025-12-31T16:18:43.420748,9.537790,-2.105683,0.904486,0.034208,-0.035430,0.014660
2025-12-31T16:18:43.430748,9.552147,-2.120040,0.918843,0.041538,-0.042760,0.013439
2025-12-31T16:18:43.439748,9.537790,-2.139183,0.918843,0.052534,-0.050090,0.007330
2025-12-31T16:18:43.449748,9.590432,-2.120040,0.923629,0.063529,-0.059864,0.004886
2025-12-31T16:18:43.458748,9.571290,-2.057827,0.961914,0.064751,-0.069638,0.003665
2025-12-31T16:18:43.468748,9.657432,-2.024327,0.947557,0.053756,-0.081855,0.007330
2025-12-31T16:18:43.478748,9.719645,-2.048256,0.933200,0.039095,-0.084299,0.006108
2025-12-31T16:18:43.487748,9.772287,-1.995614,0.909272,0.026878,-0.083077,0.002443
2025-12-31T16:18:43.497748,9.791430,-1.928615,0.890130,0.013439,-0.070860,0.003665
2025-12-31T16:18:43.506748,9.786644,-1.976471,0.914058,-0.006108,-0.052534,0.009773
2025-12-31T16:18:43.516748,9.801001,-1.995614,0.928415,-0.032986,-0.036651,0.009773
2025-12-31T16:18:43.526748,9.743573,-2.115255,0.971485,-0.050090,-0.026878,0.010995
2025-12-31T16:18:43.535748,9.748359,-2.158325,0.851844,-0.051312,-0.020769,0.006108
2025-12-31T16:18:43.545748,9.710074,-2.158325,0.952343,-0.034208,-0.014660,0.003665
2025-12-31T16:18:43.555748,9.729216,-2.172682,0.981057,-0.013439,-0.013439,0.008552
2025-12-31T16:18:43.564748,9.676574,-2.153540,0.894915,0.000000,-0.018325,0.007330
2025-12-31T16:18:43.574748,9.647860,-2.115255,0.952343,0.003665,-0.031764,0.003665
2025-12-31T16:18:43.583748,9.671788,-2.129612,0.947557,0.006108,-0.045204,0.000000
2025-12-31T16:18:43.593748,9.724431,-2.110469,0.947557,0.010995,-0.046425,-0.006108
2025-12-31T16:18:43.603748,9.781858,-2.182254,0.995414,0.015882,-0.035430,-0.002443
2025-12-31T16:18:43.612748,9.676574,-2.187039,0.976271,0.026878,-0.014660,0.002443
2025-12-31T16:18:43.622748,9.619146,-2.153540,0.909272,0.043982,0.000000,0.004886
2025-12-31T16:18:43.631748,9.509077,-2.120040,0.875773,0.052534,-0.008552,0.001221
2025-12-31T16:18:43.641748,9.537790,-2.153540,0.870987,0.058643,-0.036651,-0.007330
2025-12-31T16:18:43.651748,9.528219,-2.230110,0.971485,0.061086,-0.068416,-0.017104
2025-12-31T16:18:43.660748,9.571290,-2.263610,1.033699,0.067195,-0.091629,-0.026878
2025-12-31T16:18:43.670748,9.652646,-2.277967,0.933200,0.081855,-0.100181,-0.028099
2025-12-31T16:18:43.680748,9.729216,-2.177468,0.880558,0.101403,-0.098960,-0.029321
2025-12-31T16:18:43.689748,9.734002,-2.215753,0.914058,0.117286,-0.085521,-0.028099
2025-12-31T16:18:43.699748,9.734002,-2.177468,0.952343,0.123394,-0.075747,-0.032986
2025-12-31T16:18:43.708748,9.743573,-2.143969,0.937986,0.124616,-0.065973,-0.032986
2025-12-31T16:18:43.718748,9.657432,-2.163111,0.976271,0.136833,-0.056199,-0.032986
2025-12-31T16:18:43.728748,9.690931,-2.172682,0.995414,0.156381,-0.047647,-0.028099
2025-12-31T16:18:43.737748,9.595218,-2.139183,0.894915,0.168598,-0.043982,-0.019547
2025-12-31T16:18:43.747748,9.533005,-2.014756,0.909272,0.168598,-0.048869,-0.006108
2025-12-31T16:18:43.756748,9.489934,-2.057827,0.770488,0.162490,-0.063529,0.001221
2025-12-31T16:18:43.766748,9.547362,-2.000399,0.851844,0.153938,-0.090408,0.004886
2025-12-31T16:18:43.776748,9.604789,-2.062613,0.899701,0.146607,-0.108733,0.006108
2025-12-31T16:18:43.785748,9.676574,-2.005185,0.909272,0.147829,-0.119729,0.004886
2025-12-31T16:18:43.795748,9.801001,-2.067398,0.847059,0.146607,-0.119729,-0.002443
2025-12-31T16:18:43.805748,9.868000,-2.062613,0.842273,0.151494,-0.109955,-0.007330
2025-12-31T16:18:43.814748,9.863214,-2.081755,0.827916,0.152716,-0.100181,-0.015882
2025-12-31T16:18:43.824748,9.877571,-2.009970,0.803988,0.155159,-0.086742,-0.021991
2025-12-31T16:18:43.833748,9.848857,-2.048256,0.808774,0.156381,-0.080634,-0.026878
2025-12-31T16:18:43.843748,9.868000,-1.990828,0.818345,0.161268,-0.075747,-0.025656
2025-12-31T16:18:43.853748,9.882357,-1.986042,0.808774,0.167377,-0.073303,-0.024434
2025-12-31T16:18:43.862748,9.805787,-1.914258,0.770488,0.162490,-0.062308,-0.025656
2025-12-31T16:18:43.872748,9.714859,-1.933400,0.799202,0.158824,-0.054977,-0.020769
2025-12-31T16:18:43.881748,9.695717,-1.914258,0.713061,0.158824,-0.053756,-0.017104
2025-12-31T16:18:43.891748,9.690931,-1.909472,0.794417,0.158824,-0.058643,-0.013439
2025-12-31T16:18:43.901748,9.671788,-1.847259,0.803988,0.150272,-0.068416,-0.013439
2025-12-31T16:18:43.910748,9.695717,-1.761117,0.794417,0.124616,-0.079412,-0.015882
2025-12-31T16:18:43.920748,9.714859,-1.799402,0.789631,0.092851,-0.085521,-0.015882
2025-12-31T16:18:43.930748,9.772287,-1.804188,0.789631,0.065973,-0.085521,-0.014660
2025-12-31T16:18:43.939748,9.743573,-1.808973,0.808774,0.041538,-0.078190,-0.013439
2025-12-31T16:18:43.949748,9.738787,-1.914258,0.665204,0.025656,-0.072082,-0.012217
2025-12-31T16:18:43.958748,9.667003,-1.899901,0.746560,0.024434,-0.073303,-0.020769
2025-12-31T16:18:43.968748,9.657432,-1.995614,0.689132,0.034208,-0.068416,-0.024434
2025-12-31T16:18:43.978748,9.533005,-1.962114,0.751346,0.039095,-0.069638,-0.034208
2025-12-31T16:18:43.987748,9.489934,-2.048256,0.765703,0.064751,-0.094073,-0.054977
2025-12-31T16:18:43.997748,9.446863,-1.942971,0.861416,0.112399,-0.118507,-0.062308
2025-12-31T16:18:44.006748,9.556933,-1.852044,0.918843,0.139277,-0.142942,-0.063529
2025-12-31T16:18:44.016748,9.523433,-1.837687,0.947557,0.140498,-0.163711,-0.072082
2025-12-31T16:18:44.026748,9.638289,-1.751546,1.143769,0.145385,-0.177150,-0.084299
2025-12-31T16:18:44.035748,9.801001,-1.584048,1.272981,0.142942,-0.163711,-0.081855
2025-12-31T16:18:44.045748,9.853643,-1.349551,1.205982,0.094073,-0.136833,-0.075747
2025-12-31T16:18:44.055748,9.868000,-1.205982,1.071984,-0.007330,-0.108733,-0.076969
2025-12-31T16:18:44.064748,9.963713,-1.229910,1.019342,-0.136833,-0.079412,-0.078190
2025-12-31T16:18:44.074748,10.030712,-1.335195,1.009771,-0.287106,-0.015882,-0.072082
2025-12-31T16:18:44.083748,9.901499,-1.670190,0.990628,-0.406836,0.059864,-0.059864
2025-12-31T16:18:44.093748,9.729216,-1.995614,0.918843,-0.417831,0.102625,-0.067195
2025-12-31T16:18:44.103748,9.523433,-2.009970,0.923629,-0.342084,0.139277,-0.048869
2025-12-31T16:18:44.112748,9.298508,-2.000399,1.210768,-0.318871,0.156381,0.010995
2025-12-31T16:18:44.122748,9.097511,-2.277967,1.287338,-0.382401,0.134390,0.031764
2025-12-31T16:18:44.131748,8.891728,-2.876172,1.134197,-0.376292,0.064751,-0.006108
2025-12-31T16:18:44.141748,8.810372,-3.268595,1.024128,-0.153938,-0.003665,-0.057421
2025-12-31T16:18:44.151748,8.671589,-3.134597,1.143769,0.153938,-0.061086,-0.119729
2025-12-31T16:18:44.160748,8.662017,-2.847458,1.478764,0.443488,-0.091629,-0.184481
2025-12-31T16:18:44.170748,8.729016,-2.325823,1.775474,0.687834,-0.105068,-0.261450
2025-12-31T16:18:44.180748,8.595018,-1.598405,1.627119,0.831998,-0.113620,-0.328645
2025-12-31T16:18:44.189748,8.327022,-0.952343,1.229910,0.866206,-0.096516,-0.456927
2025-12-31T16:18:44.199748,8.159525,-0.334995,1.253839,0.889419,-0.056199,-0.592539
2025-12-31T16:18:44.208748,8.135596,0.124426,2.024327,0.698829,0.007330,-0.602312
2025-12-31T16:18:44.218748,8.116454,-0.052642,2.344966,0.353080,0.084299,-0.530230
2025-12-31T16:18:44.228748,7.953742,-0.248853,2.297109,0.103847,0.221133,-0.493579
2025-12-31T16:18:44.237748,7.566105,-0.181854,2.096112,-0.103847,0.397062,-0.456927
2025-12-31T16:18:44.247748,6.943971,-0.210568,1.732403,-0.343306,0.570548,-0.383623
2025-12-31T16:18:44.256748,6.082555,-0.368494,1.622333,-0.498465,0.742811,-0.272445
2025-12-31T16:18:44.266748,5.379065,-0.488135,1.938186,-0.580321,0.918741,-0.136833
2025-12-31T16:18:44.276748,4.498506,-0.665204,2.579462,-0.679282,1.084896,0.024434
2025-12-31T16:18:44.285748,3.617947,-1.167697,3.053241,-0.780685,1.235169,0.208915
2025-12-31T16:18:44.295748,2.713460,-1.521835,3.139383,-0.769690,1.363450,0.411723
2025-12-31T16:18:44.305748,1.885544,-1.617548,2.943171,-0.642630,1.455080,0.631634
2025-12-31T16:18:44.314748,1.119840,-1.430907,2.708675,-0.560774,1.469741,0.833220
2025-12-31T16:18:44.324748,0.540777,-1.493121,2.383251,-0.549778,1.401324,1.012814
2025-12-31T16:18:44.333748,0.315852,-1.612762,2.364108,-0.537561,1.275486,1.200960
2025-12-31T16:18:44.343748,0.392422,-1.885544,2.431107,-0.529009,1.116661,1.409876
2025-12-31T16:18:44.353748,0.827916,-2.431107,2.182254,-0.531452,0.911410,1.624901
2025-12-31T16:18:44.362748,1.636690,-3.019742,1.986042,-0.493579,0.681725,1.833817
2025-12-31T16:18:44.372748,2.684746,-3.713660,1.909472,-0.387288,0.434935,2.026850
2025-12-31T16:18:44.381748,4.115654,-4.436293,1.971685,-0.232128,0.223576,2.223549
2025-12-31T16:18:44.391748,5.627918,-5.072783,2.072184,-0.034208,0.091629,2.445903
2025-12-31T16:18:44.401748,7.073183,-5.316851,2.210968,0.207694,0.061086,2.685363
2025-12-31T16:18:44.410748,8.346165,-5.158925,1.919043,0.482583,0.147829,2.883283
2025-12-31T16:18:44.420748,9.317651,-4.488935,1.785045,0.777020,0.354301,2.987130
2025-12-31T16:18:44.430748,9.853643,-3.436093,1.722832,1.025031,0.653625,3.023782
2025-12-31T16:18:44.439748,10.092925,-2.378465,1.655833,1.076344,1.054353,3.101973
2025-12-31T16:18:44.449748,9.958927,-1.770688,1.808973,0.847880,1.521054,3.276680
2025-12-31T16:18:44.458748,9.403792,-1.722832,2.086541,0.438601,2.047619,3.467270
2025-12-31T16:18:44.468748,8.590233,-2.234896,2.450250,-0.058643,2.596176,3.580891
2025-12-31T16:18:44.478748,7.680960,-3.148954,2.928814,-0.519235,3.057990,3.589443
2025-12-31T16:18:44.487748,6.790830,-4.173082,3.723231,-0.819780,3.345097,3.556456
2025-12-31T16:18:44.497748,6.101697,-4.962714,4.417150,-0.967610,3.437948,3.558900
2025-12-31T16:18:44.506748,5.369493,-5.345565,3.991228,-0.994488,3.316997,3.619986
2025-12-31T16:18:44.516748,4.847858,-5.503491,3.129811,-0.999375,2.974913,3.693290
2025-12-31T16:18:44.526748,4.761716,-6.058626,2.780459,-1.109331,2.503325,3.753155
2025-12-31T16:18:44.535748,5.235495,-7.116254,2.876172,-1.340238,2.041511,3.811798
2025-12-31T16:18:44.545748,5.991627,-8.456235,2.991028,-1.510058,1.714087,3.860667
2025-12-31T16:18:44.555748,6.824330,-9.753144,3.072384,-1.593136,1.547932,3.919310
2025-12-31T16:18:44.564748,7.700103,-11.274980,3.397808,-1.661553,1.554040,3.962071
2025-12-31T16:18:44.574748,8.073383,-12.437891,2.943171,-1.390328,1.727526,3.962071
2025-12-31T16:18:44.583748,8.030312,-12.820743,2.493321,-0.875980,1.930333,3.984062
2025-12-31T16:18:44.593748,7.915457,-12.882956,2.790031,-0.346971,2.095267,4.006053
2025-12-31T16:18:44.603748,7.460820,-12.437891,3.230310,0.152716,2.299296,4.043927
2025-12-31T16:18:44.612748,6.283552,-11.270194,3.388236,0.452040,2.502103,4.152661
2025-12-31T16:18:44.622748,4.857429,-10.006784,3.373879,0.530230,2.665815,4.229630
2025-12-31T16:18:44.631748,3.436093,-8.724231,3.560520,0.428827,2.774549,4.177095
2025-12-31T16:18:44.641748,2.134397,-8.293523,3.780659,0.107512,2.770884,4.061031
2025-12-31T16:18:44.651748,0.971485,-8.312665,3.335594,-0.076969,2.624276,3.931527
2025-12-31T16:18:44.660748,0.148355,-8.618947,3.383451,-0.122173,2.328617,3.793472
2025-12-31T16:18:44.670748,-0.200997,-9.442077,3.991228,-0.180816,1.936442,3.655416
2025-12-31T16:18:44.680748,-0.210568,-10.576275,4.637290,-0.085521,1.543045,3.481931
2025-12-31T16:18:44.689748,0.114855,-11.164910,5.254638,0.205250,1.123991,3.279123
2025-12-31T16:18:44.699748,0.808774,-11.050054,6.149554,0.439822,0.700051,3.090977
2025-12-31T16:18:44.708748,1.694118,-10.767701,7.322037,0.477696,0.373849,2.913826
2025-12-31T16:18:44.718748,2.440679,-10.427920,8.030312,0.387288,0.271224,2.789210
2025-12-31T16:18:44.728748,2.656033,-10.274780,8.255237,0.036651,0.384845,2.769662
2025-12-31T16:18:44.737748,2.459821,-11.021340,7.958527,-0.493579,0.656069,2.783101
2025-12-31T16:18:44.747748,1.813759,-12.519247,8.035098,-0.917519,1.033583,2.726901
2025-12-31T16:18:44.756748,0.698704,-14.194223,8.695517,-1.183856,1.418428,2.621833
2025-12-31T16:18:44.766748,-0.799202,-15.897913,9.006584,-1.323133,1.710422,2.516764
2025-12-31T16:18:44.776748,-2.584248,-17.314465,8.719445,-1.334129,1.811825,2.403143
2025-12-31T16:18:44.785748,-3.976871,-18.405590,8.729016,-1.352455,1.699426,2.222327
2025-12-31T16:18:44.795748,-5.154139,-19.290936,8.748159,-1.372003,1.439198,1.929112
2025-12-31T16:18:44.805748,-6.015556,-20.075781,8.437092,-1.397659,1.115439,1.524719
2025-12-31T16:18:44.814748,-6.570690,-20.673986,7.881957,-1.435533,0.839328,1.029918
2025-12-31T16:18:44.824748,-6.987041,-20.764914,6.800401,-1.328020,0.653625,0.489913
2025-12-31T16:18:44.833748,-7.274180,-20.032709,6.039484,-1.225395,0.560774,-0.058643
2025-12-31T16:18:44.843748,-7.374679,-19.386648,5.618347,-1.324355,0.487470,-0.630412
2025-12-31T16:18:44.853748,-7.226324,-18.874584,5.436492,-1.470963,0.328645,-1.194852
2025-12-31T16:18:44.862748,-6.795616,-18.209379,5.498706,-1.555262,0.001221,-1.700648
2025-12-31T16:18:44.872748,-5.781059,-17.639889,5.441278,-1.660331,-0.469144,-2.114815
2025-12-31T16:18:44.881748,-4.527220,-17.175680,5.182853,-1.562592,-0.978605,-2.464229
2025-12-31T16:18:44.891748,-3.024527,-16.280764,5.364708,-1.225395,-1.402546,-2.730567
2025-12-31T16:18:44.901748,-1.445264,-15.026925,5.594419,-0.884532,-1.637118,-2.913826
2025-12-31T16:18:44.910748,-0.291924,-13.667802,5.101497,-0.614530,-1.645670,-3.029890
2025-12-31T16:18:44.920748,0.416351,-12.303893,3.981656,-0.504574,-1.479515,-3.105638
2025-12-31T16:18:44.930748,0.794417,-11.260623,3.244667,-0.536339,-1.279151,-3.192381
2025-12-31T16:18:44.939748,0.899701,-10.423135,2.842673,-0.689055,-1.137430,-3.369531
2025-12-31T16:18:44.949748,1.062413,-10.432706,2.589034,-1.132543,-1.200960,-3.590665
2025-12-31T16:18:44.958748,1.895115,-11.332407,2.770888,-1.451415,-1.491732,-3.772702
2025-12-31T16:18:44.968748,3.201596,-11.954541,3.795016,-1.397659,-1.841147,-3.949853
2025-12-31T16:18:44.978748,4.857429,-12.270394,4.182653,-1.172861,-2.144136,-4.158769
2025-12-31T16:18:44.987748,6.446264,-12.217752,3.000599,-0.757472,-2.230879,-4.312707
2025-12-31T16:18:44.997748,7.403393,-11.428120,1.268195,-0.043982,-2.001194,-4.381124
2025-12-31T16:18:45.006748,7.633104,-9.829715,-0.162711,0.625525,-1.490510,-4.422663
2025-12-31T16:18:45.016748,7.168896,-8.451449,-1.244267,0.923628,-0.853989,-4.456871
2025-12-31T16:18:45.026748,6.250052,-7.302894,-1.526620,0.850324,-0.270002,-4.445876
2025-12-31T16:18:45.035748,5.187639,-6.029912,-0.875773,0.511904,0.056199,-4.344472
2025-12-31T16:18:45.045748,4.354937,-4.398007,0.330209,0.083077,-0.009773,-4.266281
2025-12-31T16:18:45.055748,3.996013,-2.593819,2.120040,-0.454483,-0.438601,-4.360355
2025-12-31T16:18:45.064748,4.656432,-1.665404,3.756731,-1.362229,-1.121548,-4.539949
2025-12-31T16:18:45.074748,6.149554,-2.612962,4.417150,-2.410473,-1.770287,-4.634022
2025-12-31T16:18:45.083748,7.862815,-4.637290,3.574876,-2.987130,-2.108706,-4.696330
2025-12-31T16:18:45.093748,9.422935,-6.671189,1.497906,-3.031112,-2.003637,-4.835608
2025-12-31T16:18:45.103748,10.648060,-8.791230,-0.971485,-2.762332,-1.543045,-5.027419
2025-12-31T16:18:45.112748,11.600403,-10.911271,-2.904886,-2.412917,-0.879645,-5.120271
2025-12-31T16:18:45.122748,11.973684,-12.543176,-4.125226,-1.984089,-0.248011,-4.927238
2025-12-31T16:18:45.131748,11.696116,-12.997812,-4.278366,-1.301142,0.106290,-4.477641
2025-12-31T16:18:45.141748,11.265408,-11.270194,-2.833101,-0.453261,0.098960,-4.131891
2025-12-31T16:18:45.151748,10.767701,-8.327022,-0.741775,-0.028099,-0.161268,-4.031709
2025-12-31T16:18:45.160748,10.619346,-6.206981,1.048056,-0.221133,-0.458148,-3.969401
2025-12-31T16:18:45.170748,10.614561,-4.957928,2.230110,-0.533896,-0.601091,-3.809354
2025-12-31T16:18:45.180748,10.676774,-4.000799,2.608176,-0.869871,-0.566882,-3.626095
2025-12-31T16:18:45.189748,10.638489,-3.900300,1.201196,-1.361007,-0.417831,-3.540574
2025-12-31T16:18:45.199748,10.470991,-4.910071,-0.799202,-1.777617,-0.266337,-3.556456
2025-12-31T16:18:45.208748,10.528419,-6.388836,-1.751546,-1.814269,-0.098960,-3.578447
2025-12-31T16:18:45.218748,10.289137,-7.618747,-1.751546,-1.441641,0.127059,-3.571117
2025-12-31T16:18:45.228748,9.700502,-8.240881,-1.694118,-0.836885,0.410501,-3.543017
2025-12-31T16:18:45.237748,8.618947,-8.322237,-1.761117,-0.108733,0.706160,-3.457496
2025-12-31T16:18:45.247748,7.159325,-7.700103,-1.660618,0.679282,0.904080,-3.337766
2025-12-31T16:18:45.256748,5.833701,-6.585047,-0.679561,1.411098,0.955393,-3.232698
2025-12-31T16:18:45.266748,4.680361,-5.249852,0.497707,1.924225,0.891863,-3.145955
2025-12-31T16:18:45.276748,3.775874,-3.981656,1.215553,2.184453,0.761137,-3.035999
2025-12-31T16:18:45.285748,3.014956,-2.804388,1.325623,2.269974,0.575434,-2.895500
2025-12-31T16:18:45.295748,2.498106,-1.603191,1.129412,2.193005,0.350636,-2.742784
2025-12-31T16:18:45.305748,2.167897,-0.784845,0.832702,1.872912,0.092851,-2.604728
2025-12-31T16:18:45.314748,2.024327,-0.454636,0.679561,1.374446,-0.162490,-2.466673
2025-12-31T16:18:45.324748,2.048256,-0.435493,0.703489,0.894306,-0.392175,-2.312735
2025-12-31T16:18:45.333748,2.038684,-0.526420,0.832702,0.531452,-0.564439,-2.168571
2025-12-31T16:18:45.343748,2.129612,-0.803988,0.842273,0.156381,-0.679282,-2.050063
2025-12-31T16:18:45.353748,2.254038,-1.335195,0.784845,-0.135612,-0.741590,-1.948659
2025-12-31T16:18:45.362748,2.297109,-1.828116,1.067198,-0.216246,-0.769690,-1.865582
2025-12-31T16:18:45.372748,2.584248,-2.153540,1.775474,-0.259006,-0.785572,-1.795943
2025-12-31T16:18:45.381748,3.038884,-2.675175,2.536391,-0.273667,-0.803898,-1.745852
2025-12-31T16:18:45.391748,3.661018,-3.053241,3.053241,-0.177150,-0.786794,-1.707978
2025-12-31T16:18:45.401748,4.240081,-3.144168,2.885744,-0.028099,-0.700051,-1.645670
2025-12-31T16:18:45.410748,4.613361,-2.871387,2.124826,0.135612,-0.521678,-1.556484
2025-12-31T16:18:45.420748,4.622933,-2.526820,1.296909,0.256563,-0.254119,-1.448972
2025-12-31T16:18:45.430748,4.455435,-2.029113,0.717846,0.279776,0.058643,-1.347568
2025-12-31T16:18:45.439748,4.019941,-1.856830,0.588634,0.223576,0.354301,-1.255938
2025-12-31T16:18:45.449748,3.627519,-1.871187,0.832702,0.106290,0.541226,-1.170417
2025-12-31T16:18:45.458748,3.378665,-2.115255,1.186840,-0.070860,0.526565,-1.093448
2025-12-31T16:18:45.468748,3.536591,-2.565105,1.732403,-0.240680,0.280997,-1.050687
2025-12-31T16:18:45.478748,4.153940,-3.182454,2.196611,-0.356745,-0.131946,-1.033583
2025-12-31T16:18:45.487748,5.312066,-3.862015,2.617747,-0.354301,-0.574213,-1.014036
2025-12-31T16:18:45.497748,6.872186,-4.206582,2.794816,-0.246789,-0.905302,-0.974940
2025-12-31T16:18:45.506748,8.528019,-4.254438,2.254038,-0.079412,-1.053131,-0.910189
2025-12-31T16:18:45.516748,10.001998,-3.924229,1.244267,0.091629,-1.007927,-0.803898
2025-12-31T16:18:45.526748,11.059626,-3.292523,0.081355,0.205250,-0.805120,-0.651182
2025-12-31T16:18:45.535748,11.849257,-2.593819,-0.751346,0.202807,-0.532674,-0.475253
2025-12-31T16:18:45.545748,12.270394,-2.000399,-0.674775,0.094073,-0.193033,-0.274889
2025-12-31T16:18:45.555748,12.040683,-1.703689,-0.129212,-0.128281,0.200363,-0.056199
2025-12-31T16:18:45.564748,11.150553,-1.842473,0.339780,-0.368962,0.625525,0.180816
2025-12-31T16:18:45.574748,9.690931,-2.120040,0.722632,-0.509461,1.006705,0.409279
2025-12-31T16:18:45.583748,8.059026,-2.459821,1.239482,-0.537561,1.280373,0.590095
2025-12-31T16:18:45.593748,6.513263,-2.833101,1.636690,-0.431270,1.430646,0.713490
2025-12-31T16:18:45.603748,4.886143,-3.101098,1.789831,-0.199142,1.455080,0.792902
2025-12-31T16:18:45.612748,3.421736,-3.034099,1.507478,0.106290,1.396437,0.863763
2025-12-31T16:18:45.622748,2.187039,-2.737389,1.062413,0.459370,1.291368,0.935845
2025-12-31T16:18:45.631748,1.043270,-2.191825,0.454636,0.801455,1.149648,1.003040
2025-12-31T16:18:45.641748,0.186640,-1.636690,0.081355,1.049466,0.982271,1.053131
2025-12-31T16:18:45.651748,-0.440279,-1.229910,0.033499,1.200960,0.800233,1.105665
2025-12-31T16:18:45.660748,-0.870987,-0.875773,0.325423,1.259603,0.612086,1.177747
2025-12-31T16:18:45.670748,-1.048056,-0.732203,0.717846,1.253495,0.406836,1.275486
2025-12-31T16:18:45.680748,-0.880558,-0.612562,1.105484,1.220508,0.191811,1.389107
2025-12-31T16:18:45.689748,-0.397208,-0.665204,1.220339,1.109331,-0.003665,1.506393
2025-12-31T16:18:45.699748,0.349352,-0.832702,0.674775,0.967610,-0.160046,1.633453
2025-12-31T16:18:45.708748,1.019342,-0.971485,-0.153140,0.895528,-0.251676,1.784947
2025-12-31T16:18:45.718748,1.713260,-0.995414,-0.698704,0.847880,-0.274889,1.931555
2025-12-31T16:18:45.728748,2.364108,-1.000199,-0.933200,0.763581,-0.240680,2.058615
2025-12-31T16:18:45.737748,2.957528,-1.177268,-0.870987,0.667064,-0.162490,2.182010
2025-12-31T16:18:45.747748,3.354737,-1.162911,-0.430708,0.581543,-0.069638,2.333504
2025-12-31T16:18:45.756748,3.732803,-1.153340,0.291924,0.471587,0.025656,2.498438
2025-12-31T16:18:45.766748,4.197010,-1.205982,0.914058,0.273667,0.094073,2.654819
2025-12-31T16:18:45.776748,4.785645,-1.536192,1.249053,0.037873,0.141720,2.794097
2025-12-31T16:18:45.785748,5.326423,-1.952543,1.426122,-0.179594,0.174707,2.941926
2025-12-31T16:18:45.795748,6.087340,-2.464607,1.196411,-0.433714,0.197920,3.097086
2025-12-31T16:18:45.805748,6.771687,-3.244667,0.516849,-0.663399,0.221133,3.265684
2025-12-31T16:18:45.814748,7.408178,-4.134797,-0.220139,-0.703716,0.224798,3.462383
2025-12-31T16:18:45.824748,8.288737,-4.996213,-0.244067,-0.631634,0.211359,3.665190
2025-12-31T16:18:45.833748,9.375078,-6.173482,0.334995,-0.669508,0.178372,3.864332
2025-12-31T16:18:45.843748,10.657631,-8.049455,1.186840,-0.777020,0.160046,4.087909
2025-12-31T16:18:45.853748,11.873185,-9.714859,1.880758,-0.709825,0.239459,4.311485
2025-12-31T16:18:45.862748,12.734601,-10.494919,2.076970,-0.378736,0.401949,4.491080
2025-12-31T16:18:45.872748,12.978669,-10.322636,1.670190,-0.002443,0.549778,4.605922
2025-12-31T16:18:45.881748,12.978669,-9.853643,0.813559,0.282219,0.659734,4.671896
2025-12-31T16:18:45.891748,12.887742,-9.341579,0.421136,0.504574,0.750142,4.707326
2025-12-31T16:18:45.901748,13.040883,-8.819944,0.880558,0.590095,0.795346,4.761083
2025-12-31T16:18:45.910748,13.600803,-8.949156,2.139183,0.445931,0.802676,4.862486
2025-12-31T16:18:45.920748,14.132010,-9.767501,3.005385,0.157603,0.880867,4.978550
2025-12-31T16:18:45.930748,14.141581,-10.973484,3.101098,-0.056199,1.065348,5.072623
2025-12-31T16:18:45.939748,13.763515,-11.849257,3.024527,-0.064751,1.347568,5.111719
2025-12-31T16:18:45.949748,12.911670,-12.337393,2.723032,0.142942,1.643227,5.142262
2025-12-31T16:18:45.958748,11.552547,-12.423534,2.287538,0.417831,1.820378,5.193574
2025-12-31T16:18:45.968748,10.351350,-12.461820,2.163111,0.548556,1.830151,5.266878
2025-12-31T16:18:45.978748,9.202795,-12.557533,1.875972,0.577878,1.715309,5.353621
2025-12-31T16:18:45.987748,8.216952,-12.552747,0.837487,0.659734,1.485623,5.429369
2025-12-31T16:18:45.997748,7.551748,-12.418749,-0.267996,0.824667,1.160643,5.398825
2025-12-31T16:18:46.006748,7.398607,-12.873385,-0.062213,0.836885,0.755029,5.271765
2025-12-31T16:18:46.016748,8.011170,-14.366506,1.837687,0.599869,0.425162,5.174027
2025-12-31T16:18:46.026748,8.556733,-15.486347,3.354737,0.676838,0.423940,5.111719
2025-12-31T16:18:46.035748,8.087740,-15.232708,3.517449,0.856432,0.616973,5.121493
2025-12-31T16:18:46.045748,7.432106,-14.725430,3.474378,0.711046,0.724486,5.114162
2025-12-31T16:18:46.055748,6.996613,-14.529218,4.302295,0.486248,0.750142,4.956559
2025-12-31T16:18:46.064748,6.719045,-14.390435,5.618347,0.232128,0.728151,4.723209
2025-12-31T16:18:46.074748,5.996413,-14.490933,4.627718,0.030543,0.779463,4.519180
2025-12-31T16:18:46.083748,4.862215,-15.184852,2.498106,-0.263893,0.822224,4.333477
2025-12-31T16:18:46.093748,4.153940,-16.893328,1.737189,-0.681725,0.842993,4.067139
2025-12-31T16:18:46.103748,3.699303,-18.898512,2.813959,-0.912632,0.963945,3.599217
2025-12-31T16:18:46.112748,3.019742,-19.941784,4.335794,-0.769690,1.183856,2.955365
2025-12-31T16:18:46.122748,1.636690,-19.444077,5.034498,-0.477696,1.390328,2.243096
2025-12-31T16:18:46.131748,-0.100498,-18.238092,4.694717,-0.531452,1.392772,1.456302
2025-12-31T16:18:46.141748,-1.607976,-17.812172,4.216153,-0.939510,1.182634,0.510683
2025-12-31T16:18:46.151748,-2.364108,-18.022739,4.589433,-1.444085,0.786794,-0.477696
2025-12-31T16:18:46.160748,-2.249253,-18.807585,5.278566,-2.017076,0.128281,-1.352455
2025-12-31T16:18:46.170748,-1.091127,-19.956141,4.919643,-2.337169,-0.800233,-2.103819
2025-12-31T16:18:46.180748,1.004985,-19.994425,2.895315,-1.850921,-1.758069,-2.767218
2025-12-31T16:18:46.189748,3.192025,-18.630516,1.339980,-1.087339,-2.474003,-3.200933
2025-12-31T16:18:46.199748,5.331208,-17.577675,0.741775,-0.555887,-2.809979,-3.370753
2025-12-31T16:18:46.208748,6.862615,-16.649260,0.890130,0.034208,-2.682919,-3.425731
2025-12-31T16:18:46.218748,7.326822,-14.715858,1.373480,0.818559,-2.139249,-3.489261
2025-12-31T16:18:46.228748,6.642475,-11.983255,1.818545,1.382998,-1.424537,-3.568673
2025-12-31T16:18:46.237748,5.469992,-9.786644,1.971685,1.491732,-0.822224,-3.711616
2025-12-31T16:18:46.247748,4.570291,-9.030512,2.287538,1.128878,-0.536339,-3.937636
2025-12-31T16:18:46.256748,4.350151,-9.604789,3.292523,0.453261,-0.722042,-4.214969
2025-12-31T16:18:46.266748,4.886143,-10.341779,4.019941,-0.008552,-1.286481,-4.531397
2025-12-31T16:18:46.276748,5.929414,-10.159924,3.909872,-0.153938,-2.078163,-4.830721
2025-12-31T16:18:46.285748,7.235895,-8.829515,3.263810,-0.029321,-2.819753,-5.049411
2025-12-31T16:18:46.295748,8.274380,-6.159125,2.459821,0.161268,-3.271793,-5.123936
2025-12-31T16:18:46.305748,9.131011,-3.397808,1.000199,0.052534,-3.440392,-5.022532
2025-12-31T16:18:46.314748,9.925428,-1.761117,-1.076770,-0.535117,-3.345097,-4.896694
2025-12-31T16:18:46.324748,11.265408,-1.866401,-2.813959,-1.481958,-3.075094,-4.995655
2025-12-31T16:18:46.333748,13.701302,-4.560719,-3.249453,-2.911383,-2.747671,-5.258326
2025-12-31T16:18:46.343748,16.893328,-10.121639,-3.058027,-4.232073,-2.360382,-5.483125
2025-12-31T16:18:46.353748,20.118853,-16.998611,-3.192025,-4.526510,-1.843590,-5.517333
2025-12-31T16:18:46.362748,21.645473,-21.784256,-3.617947,-3.231476,-1.048244,-5.294978
2025-12-31T16:18:46.372748,19.951353,-21.152552,-4.689932,-0.453261,0.068416,-4.857599
2025-12-31T16:18:46.381748,16.395620,-16.074982,-4.091726,2.021963,1.012814,-4.451984
2025-12-31T16:18:46.391748,13.002598,-11.059626,-2.215753,2.999347,1.617570,-4.129448
2025-12-31T16:18:46.401748,9.920642,-7.240681,-1.033699,2.961474,1.806938,-3.887545
2025-12-31T16:18:46.410748,7.422535,-4.125226,-0.406779,2.575407,1.610240,-3.805689
2025-12-31T16:18:46.420748,5.785845,-1.665404,0.320638,1.854586,1.114217,-3.931527
2025-12-31T16:18:46.430748,5.087140,-0.354137,0.703489,0.704938,0.354301,-4.151439
2025-12-31T16:18:46.439748,5.249852,-0.339780,0.760917,-0.433714,-0.535117,-4.334698
2025-12-31T16:18:46.449748,6.092126,-0.789631,0.717846,-1.225395,-1.434311,-4.444654
2025-12-31T16:18:46.458748,7.575676,-1.445264,0.564706,-1.654222,-2.214996,-4.547279
2025-12-31T16:18:46.468748,9.403792,-2.210968,0.167497,-1.886351,-2.713462,-4.643796
2025-12-31T16:18:46.478748,11.442477,-3.297309,-0.722632,-2.072054,-2.882061,-4.660900
2025-12-31T16:18:46.487748,13.246665,-4.211367,-1.832902,-2.036624,-2.657263,-4.601036
2025-12-31T16:18:46.497748,14.490933,-4.254438,-2.287538,-1.728748,-2.034180,-4.477641
2025-12-31T16:18:46.506748,14.668002,-3.579662,-1.895115,-1.483180,-1.242499,-4.173430
2025-12-31T16:18:46.516748,13.763515,-3.062812,-1.564905,-1.428202,-0.455705,-3.782476
2025-12-31T16:18:46.526748,12.189038,-2.737389,-0.971485,-1.424537,0.177150,-3.470935
2025-12-31T16:18:46.535748,10.533205,-2.627319,-0.358923,-1.518610,0.541226,-3.258354
2025-12-31T16:18:46.545748,9.011369,-2.995813,-0.038285,-1.567479,0.659734,-3.120298
2025-12-31T16:18:46.555748,7.714460,-3.282952,0.358923,-1.418428,0.632856,-2.988352
2025-12-31T16:18:46.564748,6.513263,-3.493520,0.823130,-1.172861,0.510683,-2.779436
2025-12-31T16:18:46.574748,5.498706,-3.737588,1.019342,-0.893084,0.394618,-2.519207
2025-12-31T16:18:46.583748,4.460221,-3.799802,0.995414,-0.521678,0.371405,-2.258979
2025-12-31T16:18:46.593748,3.436093,-3.579662,0.803988,-0.191811,0.452040,-2.002415
2025-12-31T16:18:46.603748,2.402393,-3.407379,0.655633,0.076969,0.614530,-1.744630
2025-12-31T16:18:46.612748,1.263410,-3.014956,0.655633,0.378736,0.790459,-1.528384
2025-12-31T16:18:46.622748,0.076570,-2.708675,0.775274,0.647517,0.926071,-1.401324
2025-12-31T16:18:46.631748,-0.995414,-2.502892,1.000199,0.869871,0.955393,-1.352455
2025-12-31T16:18:46.641748,-1.794616,-2.273181,1.177268,1.071457,0.840550,-1.334129
2025-12-31T16:18:46.651748,-2.354537,-2.072184,1.493121,1.236390,0.580321,-1.325577
2025-12-31T16:18:46.660748,-2.684746,-1.852044,1.875972,1.347568,0.212581,-1.356120
2025-12-31T16:18:46.670748,-2.368894,-1.756331,2.373680,1.387885,-0.177150,-1.419650
2025-12-31T16:18:46.680748,-1.694118,-1.928615,2.536391,1.389107,-0.520457,-1.491732
2025-12-31T16:18:46.689748,-0.684347,-1.947757,2.344966,1.368337,-0.735481,-1.532049
2025-12-31T16:18:46.699748,0.378065,-1.856830,1.895115,1.301142,-0.796568,-1.523497
2025-12-31T16:18:46.708748,1.272981,-1.584048,1.473978,1.181413,-0.723264,-1.477071
2025-12-31T16:18:46.718748,1.909472,-1.167697,1.272981,0.959058,-0.570548,-1.397659
2025-12-31T16:18:46.728748,2.493321,-0.885344,1.421336,0.634077,-0.417831,-1.293812
2025-12-31T16:18:46.737748,2.909672,-0.660419,1.813759,0.257785,-0.306654,-1.178969
2025-12-31T16:18:46.747748,3.378665,-0.583848,1.914258,-0.122173,-0.240680,-1.071457
2025-12-31T16:18:46.756748,3.862015,-0.789631,1.727617,-0.482583,-0.194255,-0.985936
2025-12-31T16:18:46.766748,4.508077,-1.186840,1.478764,-0.802676,-0.182037,-0.935845
2025-12-31T16:18:46.776748,5.331208,-1.765903,1.205982,-1.073900,-0.250454,-0.900415
2025-12-31T16:18:46.785748,6.465406,-2.368894,0.985842,-1.285260,-0.419053,-0.852767
2025-12-31T16:18:46.795748,7.848458,-2.981456,0.708275,-1.382998,-0.660956,-0.813672
2025-12-31T16:18:46.805748,9.389435,-3.340380,0.110069,-1.359785,-0.921184,-0.768468
2025-12-31T16:18:46.814748,10.935199,-3.297309,-0.780060,-1.236390,-1.122770,-0.679282
2025-12-31T16:18:46.824748,12.294322,-3.043670,-2.033899,-1.081231,-1.166752,-0.499687
2025-12-31T16:18:46.833748,13.217952,-2.493321,-2.799602,-0.913854,-0.922406,-0.261450
2025-12-31T16:18:46.843748,13.093525,-1.741974,-2.368894,-0.839328,-0.304210,0.070860
2025-12-31T16:18:46.853748,11.772687,-1.316052,-1.339980,-0.952949,0.543669,0.454483
2025-12-31T16:18:46.862748,9.604789,-1.162911,-0.162711,-1.060461,1.400102,0.841772
2025-12-31T16:18:46.872748,6.953542,-1.115055,0.440279,-1.109331,2.035402,1.147204
2025-12-31T16:18:46.881748,4.407579,-1.196411,0.741775,-1.166752,2.395812,1.336572
2025-12-31T16:18:46.891748,2.210968,-1.531406,1.153340,-1.148426,2.514320,1.463632
2025-12-31T16:18:46.901748,0.172283,-1.603191,1.545763,-0.996931,2.419025,1.571145
2025-12-31T16:18:46.910748,-1.531406,-1.540977,1.397408,-0.781907,2.103819,1.668883
2025-12-31T16:18:46.920748,-2.560320,-1.110269,1.028913,-0.605978,1.590692,1.722639
2025-12-31T16:18:46.930748,-2.904886,-0.760917,0.717846,-0.580321,0.918741,1.742187
2025-12-31T16:18:46.939748,-2.541177,-0.689132,0.569491,-0.659734,0.124616,1.751961
2025-12-31T16:18:46.949748,-1.488335,-0.636490,0.832702,-0.736703,-0.680503,1.789834
2025-12-31T16:18:46.958748,0.157926,-0.899701,1.325623,-0.861319,-1.350011,1.861916
2025-12-31T16:18:46.968748,2.067398,-1.349551,1.627119,-0.968832,-1.744630,1.968207
2025-12-31T16:18:46.978748,3.924229,-1.823330,1.588834,-0.998153,-1.799608,2.117258
2025-12-31T16:18:46.987748,5.546562,-2.038684,0.909272,-0.993266,-1.525941,2.302961
2025-12-31T16:18:46.997748,6.642475,-2.249253,0.205782,-0.985936,-1.009149,2.547307
2025-12-31T16:18:47.006748,7.302894,-2.397608,0.167497,-0.996931,-0.375071,2.827083
2025-12-31T16:18:47.016748,7.484749,-2.469392,0.669990,-1.023809,0.270002,3.127629
2025-12-31T16:18:47.026748,7.154539,-2.541177,1.239482,-1.070235,0.801455,3.429396
2025-12-31T16:18:47.035748,6.431907,-2.598605,1.210768,-1.170417,1.164308,3.707951
2025-12-31T16:18:47.045748,5.618347,-2.857030,0.904486,-1.282816,1.335351,3.933971
2025-12-31T16:18:47.055748,5.020141,-3.326023,0.947557,-1.351233,1.320690,4.107457
2025-12-31T16:18:47.064748,4.843072,-4.110869,1.526620,-1.356120,1.183856,4.225964
2025-12-31T16:18:47.074748,4.843072,-4.938785,2.120040,-1.237612,1.022588,4.305377
2025-12-31T16:18:47.083748,4.981856,-5.589633,2.464607,-0.967610,0.906523,4.349359
2025-12-31T16:18:47.093748,5.168496,-5.771488,2.531606,-0.678060,0.869871,4.384789
2025-12-31T16:18:47.103748,5.149354,-5.704489,1.899901,-0.460592,0.911410,4.427550
2025-12-31T16:18:47.112748,5.082355,-5.431707,1.009771,-0.302989,0.950506,4.462980
2025-12-31T16:18:47.122748,5.063212,-5.125426,0.512064,-0.283441,0.912632,4.455650
2025-12-31T16:18:47.131748,5.350351,-5.264209,0.559920,-0.488692,0.740368,4.434880
2025-12-31T16:18:47.141748,5.953342,-6.216553,0.636490,-0.844215,0.442266,4.456871
2025-12-31T16:18:47.151748,6.680760,-7.786244,0.540777,-1.192408,0.061086,4.538727
2025-12-31T16:18:47.160748,7.757530,-9.700502,0.780060,-1.373224,-0.386066,4.616918
2025-12-31T16:18:47.170748,9.250652,-11.413763,1.804188,-1.354898,-0.833220,4.704882
2025-12-31T16:18:47.180748,10.901699,-12.792029,2.388036,-1.276708,-1.211956,4.863708
2025-12-31T16:18:47.189748,12.198609,-13.835300,1.397408,-1.077566,-1.492954,5.054298
2025-12-31T16:18:47.199748,13.246665,-14.462219,-0.186640,-0.795346,-1.695761,5.213122
2025-12-31T16:18:47.208748,14.333007,-15.366706,-1.588834,-0.624304,-1.898568,5.274209
2025-12-31T16:18:47.218748,15.586846,-16.692329,-2.359323,-0.383623,-2.029293,5.238779
2025-12-31T16:18:47.228748,16.491333,-17.510675,-2.991028,0.323758,-2.001194,5.127602
2025-12-31T16:18:47.237748,16.936398,-16.840685,-2.919243,1.295034,-1.820378,5.010315
2025-12-31T16:18:47.247748,16.668402,-14.912070,-2.153540,2.133140,-1.540601,4.880811
2025-12-31T16:18:47.256748,15.897913,-12.595818,-1.253839,2.686584,-1.182634,4.756196
2025-12-31T16:18:47.266748,14.725430,-10.145567,-0.636490,2.907717,-0.802676,4.689000
2025-12-31T16:18:47.276748,13.395020,-8.111668,-0.535992,2.765997,-0.459370,4.641353
2025-12-31T16:18:47.285748,12.055040,-6.876972,-0.765703,2.371378,-0.230907,4.544836
2025-12-31T16:18:47.295748,11.006983,-6.580262,-0.411565,1.772730,-0.085521,4.434880
2025-12-31T16:18:47.305748,10.097711,-7.106683,0.215354,1.017701,0.043982,4.312707
2025-12-31T16:18:47.314748,9.044869,-8.087740,0.669990,0.315206,0.224798,4.138000
2025-12-31T16:18:47.324748,7.896314,-9.221938,0.449850,-0.381179,0.392175,3.919310
2025-12-31T16:18:47.333748,6.881757,-11.298908,-0.019142,-1.159421,0.442266,3.656638
2025-12-31T16:18:47.343748,6.489334,-14.242080,0.023928,-1.733635,0.345749,3.319441
2025-12-31T16:18:47.353748,6.723831,-17.883957,0.641276,-2.073276,0.136833,2.960252
2025-12-31T16:18:47.362748,7.465606,-22.133610,1.497906,-2.098932,-0.122173,2.657263
2025-12-31T16:18:47.372748,8.063812,-25.655844,1.076770,-1.650557,-0.348193,2.401921
2025-12-31T16:18:47.381748,8.465806,-27.287748,-0.315852,-0.835663,-0.491135,2.180788
2025-12-31T16:18:47.391748,8.618947,-26.842684,-1.359123,0.145385,-0.561995,1.941329
2025-12-31T16:18:47.401748,8.561519,-24.746571,-1.722832,0.808785,-0.542448,1.665218
2025-12-31T16:18:47.410748,8.437092,-22.578674,-1.143769,0.795346,-0.466700,1.363450
2025-12-31T16:18:47.420748,8.446663,-21.243479,-0.406779,0.327423,-0.350636,0.988379
2025-12-31T16:18:47.430748,8.614161,-21.157337,0.244067,-0.426383,-0.212581,0.497244
2025-12-31T16:18:47.439748,8.867800,-22.100109,-0.071784,-1.177747,-0.138055,-0.072082
2025-12-31T16:18:47.449748,9.432506,-23.631516,-1.019342,-1.631009,-0.160046,-0.631634
2025-12-31T16:18:47.458748,10.131210,-24.995424,-1.832902,-1.595579,-0.228463,-1.133765
2025-12-31T16:18:47.468748,10.595418,-25.373489,-2.622533,-0.948062,-0.190589,-1.524719
2025-12-31T16:18:47.478748,10.504491,-24.512074,-2.742174,0.219911,0.064751,-1.772730
2025-12-31T16:18:47.487748,9.489934,-22.234106,-2.182254,1.606575,0.535117,-1.918116
2025-12-31T16:18:47.497748,7.810172,-18.922441,-1.387837,2.764775,1.023809,-1.997528
2025-12-31T16:18:47.506748,5.915057,-15.538989,-0.722632,3.397631,1.339016,-2.081828
2025-12-31T16:18:47.516748,3.967299,-12.562318,-0.119641,3.426953,1.343903,-2.246761
2025-12-31T16:18:47.526748,2.569891,-10.284351,0.272781,3.112968,1.094670,-2.527759
2025-12-31T16:18:47.535748,1.579262,-8.269594,1.062413,2.669480,0.635299,-2.867400
2025-12-31T16:18:47.545748,1.292124,-6.374479,1.732403,2.013411,-0.008552,-3.197267
2025-12-31T16:18:47.555748,1.521835,-4.800002,2.277967,1.172861,-0.773355,-3.481931
2025-12-31T16:18:47.564748,2.416750,-3.369094,2.201396,0.345749,-1.571145,-3.727498
2025-12-31T16:18:47.574748,3.795016,-2.531606,1.540977,-0.594982,-2.283413,-3.869219
2025-12-31T16:18:47.583748,5.565705,-2.794816,0.196211,-1.694539,-2.773327,-3.930306
2025-12-31T16:18:47.593748,7.743173,-4.828716,-1.349551,-2.891835,-2.955365,-4.010940
2025-12-31T16:18:47.603748,10.346564,-8.585447,-2.871387,-3.914423,-2.846631,-4.172208
2025-12-31T16:18:47.612748,13.452448,-13.012169,-3.909872,-4.271168,-2.453234,-4.370129
2025-12-31T16:18:47.622748,16.031912,-16.850256,-4.594219,-3.627317,-1.690874,-4.414111
2025-12-31T16:18:47.631748,16.409977,-18.128023,-5.240281,-2.074497,-0.577878,-4.129448
2025-12-31T16:18:47.641748,14.543575,-16.041483,-5.082355,-0.240680,0.625525,-3.629760
2025-12-31T16:18:47.651748,11.528619,-11.810972,-3.383451,0.985936,1.624901,-3.231476
2025-12-31T16:18:47.660748,8.647660,-8.001598,-1.225125,1.133765,2.151466,-3.073873
2025-12-31T16:18:47.670748,6.331408,-5.714060,-0.229710,0.525343,2.188118,-3.121520
2025-12-31T16:18:47.680748,4.503292,-4.522434,0.239282,-0.103847,1.966985,-3.323106
2025-12-31T16:18:47.689748,3.172882,-3.598805,0.488135,-0.610865,1.492954,-3.579669
2025-12-31T16:18:47.699748,2.612962,-3.359522,0.459421,-1.219286,0.846659,-3.800802
2025-12-31T16:18:47.708748,2.818745,-4.316651,0.033499,-1.772730,0.114842,-4.015827
2025-12-31T16:18:47.718748,3.742374,-5.690132,-0.339780,-1.899790,-0.543669,-4.255286
2025-12-31T16:18:47.728748,5.087140,-6.714260,-0.579063,-1.569923,-1.011592,-4.513071
2025-12-31T16:18:47.737748,6.628118,-7.264609,-0.971485,-1.067792,-1.258382,-4.734204
2025-12-31T16:18:47.747748,8.082954,-7.369893,-1.282552,-0.434935,-1.244943,-4.885698
2025-12-31T16:18:47.756748,9.274580,-6.843472,-1.244267,0.276111,-1.000597,-4.939454
2025-12-31T16:18:47.766748,9.982855,-5.656632,-0.713061,0.833220,-0.597426,-4.897916
2025-12-31T16:18:47.776748,9.954142,-4.369294,-0.339780,1.125213,-0.100181,-4.791625
2025-12-31T16:18:47.785748,9.360722,-3.397808,-0.220139,1.192408,0.395840,-4.649905
2025-12-31T16:18:47.795748,8.417949,-2.612962,-0.023928,1.095892,0.781907,-4.499632
2025-12-31T16:18:47.805748,7.298108,-2.120040,0.167497,0.889419,1.010370,-4.372572
2025-12-31T16:18:47.814748,6.269195,-2.062613,0.392422,0.653625,1.069013,-4.255286
2025-12-31T16:18:47.824748,5.364708,-2.057827,0.579063,0.442266,0.981049,-4.127004
2025-12-31T16:18:47.833748,4.661218,-2.163111,0.684347,0.301767,0.789237,-3.999944
2025-12-31T16:18:47.843748,4.115654,-2.258824,0.751346,0.168598,0.526565,-3.876549
2025-12-31T16:18:47.853748,3.857230,-2.445464,0.803988,0.053756,0.230907,-3.738494
2025-12-31T16:18:47.862748,3.890729,-2.727817,1.143769,-0.015882,-0.063529,-3.578447
2025-12-31T16:18:47.872748,4.268795,-3.129811,1.584048,-0.062308,-0.307876,-3.408627
2025-12-31T16:18:47.881748,4.752145,-3.436093,1.737189,-0.067195,-0.466700,-3.227811
2025-12-31T16:18:47.891748,5.201996,-3.661018,1.593619,0.018325,-0.505796,-3.017673
2025-12-31T16:18:47.901748,5.484349,-3.651447,1.383051,0.163711,-0.415388,-2.784323
2025-12-31T16:18:47.910748,5.465206,-3.445664,1.234696,0.339641,-0.211359,-2.557081
2025-12-31T16:18:47.920748,5.173282,-3.201596,1.215553,0.481361,0.079412,-2.329839
2025-12-31T16:18:47.930748,4.570291,-3.062812,1.057627,0.575434,0.384845,-2.086715
2025-12-31T16:18:47.939748,3.732803,-2.924029,1.196411,0.645073,0.648738,-1.830151
2025-12-31T16:18:47.949748,2.828316,-2.785245,1.320838,0.680503,0.827111,-1.585805
2025-12-31T16:18:47.958748,1.866401,-2.694318,1.488335,0.686612,0.895528,-1.373224
2025-12-31T16:18:47.968748,1.038485,-2.545963,1.651047,0.715933,0.849102,-1.189965
2025-12-31T16:18:47.978748,0.397208,-2.268395,1.861615,0.744033,0.684168,-1.036027
2025-12-31T16:18:47.987748,0.124426,-2.067398,1.971685,0.747698,0.416610,-0.924849
2025-12-31T16:18:47.997748,0.181854,-1.909472,2.096112,0.758694,0.084299,-0.855211
2025-12-31T16:18:48.006748,0.569491,-1.646261,2.029113,0.725707,-0.250454,-0.807563
2025-12-31T16:18:48.016748,1.383051,-1.373480,2.100898,0.662177,-0.540004,-0.761137
2025-12-31T16:18:48.026748,2.316252,-1.167697,2.005185,0.598647,-0.741590,-0.720820
2025-12-31T16:18:48.035748,3.292523,-0.995414,1.808973,0.494800,-0.813672,-0.671951
2025-12-31T16:18:48.045748,4.173082,-0.827916,1.363908,0.324980,-0.757472,-0.610865
2025-12-31T16:18:48.055748,5.082355,-0.866201,1.129412,0.133168,-0.632856,-0.551000
2025-12-31T16:18:48.064748,5.958128,-0.914058,1.138983,-0.047647,-0.502131,-0.502131
2025-12-31T16:18:48.074748,6.695117,-1.215553,1.138983,-0.255341,-0.397062,-0.449596
2025-12-31T16:18:48.083748,7.460820,-1.593619,0.995414,-0.464257,-0.340862,-0.398284
2025-12-31T16:18:48.093748,8.130811,-1.952543,0.875773,-0.582765,-0.317649,-0.345749
2025-12-31T16:18:48.103748,8.872586,-2.167897,1.004985,-0.657290,-0.318871,-0.288328
2025-12-31T16:18:48.112748,9.700502,-2.565105,1.076770,-0.734259,-0.321315,-0.216246
2025-12-31T16:18:48.122748,10.193424,-2.679961,0.703489,-0.767246,-0.266337,-0.085521
2025-12-31T16:18:48.131748,10.269994,-2.512463,-0.004785,-0.730594,-0.085521,0.109955
2025-12-31T16:18:48.141748,9.504291,-2.230110,-0.421136,-0.682947,0.272445,0.372627
2025-12-31T16:18:48.151748,8.059026,-1.746760,-0.272781,-0.709825,0.781907,0.687834
2025-12-31T16:18:48.160748,6.250052,-1.588834,0.076570,-0.829554,1.299920,1.043357
2025-12-31T16:18:48.170748,4.039084,-1.770688,0.301495,-0.940732,1.727526,1.397659
2025-12-31T16:18:48.180748,1.832902,-1.990828,0.588634,-0.974940,2.004859,1.700648
2025-12-31T16:18:48.189748,-0.177068,-2.469392,1.134197,-0.940732,2.075719,1.946216
2025-12-31T16:18:48.199748,-1.732403,-3.072384,1.416550,-0.828333,1.888794,2.107484
2025-12-31T16:18:48.208748,-2.756531,-3.598805,1.038485,-0.564439,1.415985,2.183231
2025-12-31T16:18:48.218748,-2.943171,-3.661018,0.325423,-0.161268,0.703716,2.223549
2025-12-31T16:18:48.228748,-2.426322,-3.364308,-0.114855,0.226020,-0.097738,2.233322
2025-12-31T16:18:48.237748,-1.239482,-3.129811,-0.406779,0.514348,-0.831998,2.190562
2025-12-31T16:18:48.247748,0.421136,-2.857030,-0.454636,0.753807,-1.372003,2.139249
2025-12-31T16:18:48.256748,2.148754,-2.455035,-0.354137,0.932180,-1.689652,2.134362
2025-12-31T16:18:48.266748,3.766302,-2.100898,-0.320638,0.993266,-1.795943,2.174679
2025-12-31T16:18:48.276748,5.335994,-1.847259,-0.191425,0.951727,-1.694539,2.222327
2025-12-31T16:18:48.285748,6.518048,-1.670190,-0.244067,0.860098,-1.391550,2.291965
2025-12-31T16:18:48.295748,7.441678,-1.569691,-0.057427,0.796568,-0.923628,2.387260
2025-12-31T16:18:48.305748,7.881957,-1.488335,0.282353,0.708603,-0.350636,2.519207
2025-12-31T16:18:48.314748,7.867600,-1.727617,0.492921,0.565661,0.221133,2.673145
2025-12-31T16:18:48.324748,7.412964,-2.005185,0.320638,0.481361,0.708603,2.825862
2025-12-31T16:18:48.333748,6.666403,-2.009970,-0.028713,0.459370,1.036027,2.990795
2025-12-31T16:18:48.343748,5.857629,-1.938186,-0.378065,0.360410,1.171639,3.148398
2025-12-31T16:18:48.353748,5.178068,-2.014756,-0.349352,0.196698,1.125213,3.279123
2025-12-31T16:18:48.362748,4.838287,-2.143969,-0.019142,0.031764,0.927293,3.382970
2025-12-31T16:18:48.372748,4.685146,-2.311466,0.646062,-0.204028,0.579100,3.473379
2025-12-31T16:18:48.381748,5.000999,-2.766102,1.158126,-0.583987,0.146607,3.572339
2025-12-31T16:18:48.391748,5.474778,-3.421736,1.339980,-0.955393,-0.315206,3.678629
2025-12-31T16:18:48.401748,6.302694,-4.153940,1.430907,-1.243721,-0.742811,3.795915
2025-12-31T16:18:48.410748,7.412964,-5.168496,1.852044,-1.576031,-1.093448,3.899762
2025-12-31T16:18:48.420748,8.566304,-6.719045,1.871187,-1.857029,-1.345124,3.980397
2025-12-31T16:18:48.430748,9.700502,-8.432306,1.359123,-1.875355,-1.488067,4.063474
2025-12-31T16:18:48.439748,10.671988,-10.054640,0.928415,-1.671326,-1.545488,4.147774
2025-12-31T16:18:48.449748,11.653046,-11.830114,0.861416,-1.342681,-1.556484,4.181982
2025-12-31T16:18:48.458748,12.672388,-13.696516,0.660419,-0.801455,-1.524719,4.175873
2025-12-31T16:18:48.468748,13.457234,-14.955141,0.114855,-0.010995,-1.486845,4.163656
2025-12-31T16:18:48.478748,13.945370,-15.414563,-0.918843,0.912632,-1.450193,4.157547
2025-12-31T16:18:48.487748,14.227723,-15.012568,-2.450250,1.806938,-1.444085,4.156326
2025-12-31T16:18:48.497748,14.567503,-14.232508,-3.876372,2.519207,-1.523497,4.166100
2025-12-31T16:18:48.506748,15.103496,-13.146167,-4.431507,2.987130,-1.655444,4.181982
2025-12-31T16:18:48.516748,15.806986,-11.925827,-4.240081,3.219259,-1.725083,4.173430
2025-12-31T16:18:48.526748,16.319050,-10.528419,-4.130011,3.270571,-1.659109,4.144108
2025-12-31T16:18:48.535748,16.682758,-9.284151,-4.058227,3.125185,-1.458745,4.152661
2025-12-31T16:18:48.545748,16.878969,-8.623732,-3.507877,2.652376,-1.167974,4.201530
2025-12-31T16:18:48.555748,17.089539,-8.719445,-2.641676,2.106262,-0.777020,4.196643
2025-12-31T16:18:48.564748,16.668402,-8.944370,-1.861615,1.725083,-0.259006,4.195421
2025-12-31T16:18:48.574748,15.467205,-9.178867,-1.641476,1.382998,0.288328,4.293160
2025-12-31T16:18:48.583748,13.825728,-9.509077,-1.612762,1.158200,0.784350,4.388454
2025-12-31T16:18:48.593748,12.031112,-9.748359,-1.526620,1.027475,1.204625,4.417776
2025-12-31T16:18:48.603748,10.179067,-10.001998,-1.560120,0.830776,1.408654,4.386011
2025-12-31T16:18:48.612748,8.575876,-10.260423,-1.488335,0.656069,1.400102,4.267503
2025-12-31T16:18:48.622748,7.518248,-10.762916,-0.612562,0.507018,1.238834,4.042705
2025-12-31T16:18:48.631748,7.010970,-11.633903,1.081555,0.322536,1.011592,3.725055
2025-12-31T16:18:48.641748,6.733402,-13.198809,2.703889,0.131946,0.812450,3.390301
2025-12-31T16:18:48.651748,6.656832,-15.117853,3.527020,0.078190,0.642630,3.112968
2025-12-31T16:18:48.660748,6.675975,-16.969896,3.637090,0.206472,0.508239,2.894278
2025-12-31T16:18:48.670748,6.541976,-18.448662,3.268595,0.409279,0.381179,2.670702
2025-12-31T16:18:48.680748,6.513263,-19.243078,2.292324,0.648738,0.255341,2.375043
2025-12-31T16:18:48.689748,6.484549,-19.147366,1.311266,0.869871,0.101403,1.973094
2025-12-31T16:18:48.699748,6.714260,-18.266808,0.856630,0.897971,-0.086742,1.469741
2025-12-31T16:18:48.708748,7.226324,-17.467604,0.870987,0.510683,-0.270002,0.913854
2025-12-31T16:18:48.718748,8.011170,-17.132608,0.598205,-0.160046,-0.405614,0.321315
2025-12-31T16:18:48.728748,8.834301,-17.285749,-0.464207,-0.842993,-0.410501,-0.278554
2025-12-31T16:18:48.737748,9.743573,-18.372091,-1.531406,-1.591914,-0.309097,-0.838106
2025-12-31T16:18:48.747748,10.901699,-20.831913,-1.502692,-2.164905,-0.109955,-1.350011
2025-12-31T16:18:48.756748,11.863614,-23.837297,-1.043270,-2.117258,0.256563,-1.784947
2025-12-31T16:18:48.766748,11.801401,-26.048265,-0.866201,-1.356120,0.761137,-2.068389
2025-12-31T16:18:48.776748,10.834700,-25.866411,-0.392422,-0.106290,1.203404,-2.125810
2025-12-31T16:18:48.785748,9.470791,-23.492731,0.961914,1.067792,1.411098,-2.076941
2025-12-31T16:18:48.795748,7.886743,-19.544575,2.244467,1.716530,1.339016,-2.054950
2025-12-31T16:18:48.805748,6.379265,-15.323635,2.445464,1.602910,0.939510,-2.037846
2025-12-31T16:18:48.814748,5.254638,-12.782458,1.234696,0.954171,0.331088,-2.020741
2025-12-31T16:18:48.824748,4.852644,-11.495119,0.004785,0.207694,-0.266337,-2.090380
2025-12-31T16:18:48.833748,5.111069,-11.212766,-0.722632,-0.527787,-0.720820,-2.267531
2025-12-31T16:18:48.843748,5.943771,-12.160324,-0.952343,-1.021366,-0.955393,-2.499660
2025-12-31T16:18:48.853748,6.886543,-13.471591,-0.971485,-1.048244,-0.951727,-2.703688
2025-12-31T16:18:48.862748,7.503891,-14.361721,-1.100698,-0.631634,-0.797789,-2.852740
2025-12-31T16:18:48.872748,7.671389,-14.356935,-1.225125,0.083077,-0.519235,-2.981021
2025-12-31T16:18:48.881748,7.221538,-13.552947,-1.153340,0.833220,-0.196698,-3.092199
2025-12-31T16:18:48.891748,6.556333,-12.471391,-0.780060,1.361007,0.063529,-3.142290
2025-12-31T16:18:48.901748,5.843272,-11.428120,-0.277567,1.655444,0.229685,-3.145955
2025-12-31T16:18:48.910748,5.106283,-10.174281,0.378065,1.893681,0.300545,-3.156950
2025-12-31T16:18:48.920748,4.393222,-8.633303,0.851844,2.024406,0.234572,-3.191159
2025-12-31T16:18:48.930748,3.790230,-7.192824,0.842273,2.010967,0.031764,-3.231476
2025-12-31T16:18:48.939748,3.316452,-5.910271,0.545563,1.907120,-0.259006,-3.293784
2025-12-31T16:18:48.949748,3.091526,-4.704289,0.105284,1.756848,-0.581543,-3.375640
2025-12-31T16:18:48.958748,2.895315,-3.455235,-0.239282,1.545488,-0.890641,-3.469713
2025-12-31T16:18:48.968748,3.048455,-2.402393,-0.387637,1.227838,-1.178969,-3.577226
2025-12-31T16:18:48.978748,3.369094,-1.598405,-0.421136,0.810007,-1.478293,-3.720168
2025-12-31T16:18:48.987748,3.972085,-0.942772,-0.148355,0.345749,-1.810604,-3.900984
2025-12-31T16:18:48.997748,4.991427,-0.440279,0.382851,-0.127059,-2.167349,-4.107457
2025-12-31T16:18:49.006748,6.293123,-0.296710,0.784845,-0.641408,-2.515542,-4.295603
2025-12-31T16:18:49.016748,7.838886,-0.411565,0.794417,-1.064127,-2.795318,-4.456871
2025-12-31T16:18:49.026748,9.269794,-0.650847,0.406779,-1.342681,-2.922378,-4.587596
2025-12-31T16:18:49.035748,10.609775,-0.794417,-0.382851,-1.578475,-2.869844,-4.685335
2025-12-31T16:18:49.045748,11.715259,-1.119840,-1.129412,-1.745852,-2.591289,-4.776965
2025-12-31T16:18:49.055748,12.437891,-1.229910,-1.713260,-1.813047,-2.122145,-4.841716
2025-12-31T16:18:49.064748,12.811172,-1.268195,-2.029113,-1.875355,-1.584584,-4.842938
2025-12-31T16:18:49.074748,12.825529,-1.354337,-2.215753,-1.959655,-1.091005,-4.816060
2025-12-31T16:18:49.083748,12.452248,-1.521835,-2.129612,-2.042732,-0.740368,-4.794069
2025-12-31T16:18:49.093748,12.069397,-1.804188,-1.737189,-2.112371,-0.553443,-4.776965
2025-12-31T16:18:49.103748,11.753544,-2.254038,-0.990628,-2.109928,-0.519235,-4.790404
2025-12-31T16:18:49.112748,11.763115,-2.766102,-0.181854,-2.015854,-0.557108,-4.812394
2025-12-31T16:18:49.122748,11.782258,-3.158525,0.100498,-1.865582,-0.605978,-4.773299
2025-12-31T16:18:49.131748,11.839686,-3.479164,-0.133998,-1.622457,-0.585208,-4.651126
2025-12-31T16:18:49.141748,11.691331,-3.416950,-0.406779,-1.295034,-0.442266,-4.486193
2025-12-31T16:18:49.151748,11.231909,-3.129811,-0.540777,-1.020144,-0.160046,-4.285829
2025-12-31T16:18:49.160748,10.384850,-2.761317,-0.736989,-0.862541,0.218689,-4.030488
2025-12-31T16:18:49.170748,9.169296,-2.402393,-0.990628,-0.762359,0.629191,-3.718946
2025-12-31T16:18:49.180748,7.489534,-1.957328,-1.215553,-0.711046,0.977384,-3.397631
2025-12-31T16:18:49.189748,5.948556,-1.770688,-1.191625,-0.786794,1.204625,-3.128851
2025-12-31T16:18:49.199748,4.541577,-1.890329,-0.780060,-0.919962,1.287703,-2.940704
2025-12-31T16:18:49.208748,3.268595,-2.072184,-0.076570,-0.983492,1.248608,-2.817309
2025-12-31T16:18:49.218748,2.301895,-2.306680,0.842273,-1.020144,1.106887,-2.690249
2025-12-31T16:18:49.228748,1.584048,-2.708675,1.689332,-1.032362,0.868650,-2.532646
2025-12-31T16:18:49.237748,1.091127,-3.105883,2.421536,-0.981049,0.571769,-2.373821
2025-12-31T16:18:49.247748,0.842273,-3.373879,2.790031,-0.864984,0.279776,-2.236988
2025-12-31T16:18:49.256748,0.923629,-3.412165,2.627319,-0.740368,0.037873,-2.109928
2025-12-31T16:18:49.266748,1.162911,-3.354737,2.038684,-0.651182,-0.131946,-1.952324
2025-12-31T16:18:49.276748,1.488335,-3.321237,1.502692,-0.569326,-0.224798,-1.777617
2025-12-31T16:18:49.285748,1.727617,-3.235096,1.229910,-0.518013,-0.234572,-1.601688
2025-12-31T16:18:49.295748,2.000399,-3.364308,1.502692,-0.497244,-0.174707,-1.436754
2025-12-31T16:18:49.305748,2.182254,-3.608376,1.914258,-0.466700,-0.072082,-1.282816
2025-12-31T16:18:49.314748,2.277967,-3.838087,2.263610,-0.378736,0.018325,-1.133765
2025-12-31T16:18:49.324748,2.431107,-4.005585,2.474178,-0.285884,0.014660,-0.999375
2025-12-31T16:18:49.333748,2.689532,-4.086941,2.455035,-0.152716,-0.090408,-0.874758
2025-12-31T16:18:49.343748,3.168097,-3.938585,2.512463,0.019547,-0.250454,-0.777020
2025-12-31T16:18:49.353748,3.823730,-3.742374,2.493321,0.147829,-0.436157,-0.700051
2025-12-31T16:18:49.362748,4.809573,-3.483949,2.287538,0.215024,-0.630412,-0.653625
2025-12-31T16:18:49.372748,5.795416,-3.158525,2.005185,0.257785,-0.830776,-0.609643
2025-12-31T16:18:49.381748,6.967899,-2.833101,1.612762,0.276111,-0.990823,-0.548556
2025-12-31T16:18:49.391748,8.025527,-2.493321,1.129412,0.254119,-1.047022,-0.471587
2025-12-31T16:18:49.401748,8.800801,-2.321037,0.579063,0.229685,-0.934623,-0.360410
2025-12-31T16:18:49.410748,9.236295,-2.081755,0.277567,0.202807,-0.618195,-0.190589
2025-12-31T16:18:49.420748,9.020941,-1.885544,0.296710,0.156381,-0.125838,0.087964
2025-12-31T16:18:49.430748,8.092526,-1.808973,0.770488,0.075747,0.464257,0.442266
2025-12-31T16:18:49.439748,6.604190,-1.804188,1.205982,-0.031764,1.039692,0.792902
2025-12-31T16:18:49.449748,4.785645,-1.899901,1.502692,-0.138055,1.506393,1.123991
2025-12-31T16:18:49.458748,2.775674,-2.210968,1.325623,-0.208915,1.863138,1.447750
2025-12-31T16:18:49.468748,0.784845,-2.407179,0.961914,-0.230907,2.081828,1.760513
2025-12-31T16:18:49.478748,-0.966700,-2.541177,0.497707,-0.183259,2.111149,2.037846
2025-12-31T16:18:49.487748,-2.215753,-2.541177,-0.181854,-0.119729,1.868025,2.229657
2025-12-31T16:18:49.497748,-2.895315,-2.560320,-0.650847,-0.065973,1.358564,2.356717
2025-12-31T16:18:49.506748,-2.770888,-2.512463,-0.713061,-0.041538,0.679282,2.450790
2025-12-31T16:18:49.516748,-1.856830,-2.569891,-0.397208,-0.105068,-0.069638,2.505768
2025-12-31T16:18:49.526748,-0.306281,-2.818745,-0.258424,-0.208915,-0.750142,2.568076
2025-12-31T16:18:49.535748,1.502692,-3.043670,-0.215354,-0.282219,-1.255938,2.654819
2025-12-31T16:18:49.545748,3.550948,-3.321237,-0.181854,-0.379958,-1.558927,2.769662
2025-12-31T16:18:49.555748,5.618347,-3.728017,0.057427,-0.487470,-1.650557,2.893057
2025-12-31T16:18:49.564748,7.561319,-4.316651,-0.114855,-0.541226,-1.538158,3.021338
2025-12-31T16:18:49.574748,9.164510,-4.771288,-0.531206,-0.481361,-1.244943,3.167946
2025-12-31T16:18:49.583748,10.255637,-4.867001,-0.770488,-0.250454,-0.825889,3.347540
2025-12-31T16:18:49.593748,10.829915,-4.618147,-0.430708,0.001221,-0.379958,3.576004
2025-12-31T16:18:49.603748,10.901699,-4.421936,-0.076570,0.195476,0.023212,3.815463
2025-12-31T16:18:49.612748,10.494919,-4.029513,0.411565,0.454483,0.382401,4.041483
2025-12-31T16:18:49.622748,9.839286,-3.201596,1.129412,0.653625,0.690277,4.235738
2025-12-31T16:18:49.631748,9.035298,-2.828316,1.378265,0.640186,0.915075,4.415333
2025-12-31T16:18:49.641748,8.260023,-2.866601,1.239482,0.537561,1.022588,4.588818
2025-12-31T16:18:49.651748,7.867600,-3.125026,1.124626,0.401949,0.972497,4.745200
2025-12-31T16:18:49.660748,7.762316,-3.814159,0.813559,0.193033,0.766024,4.863708
2025-12-31T16:18:49.670748,7.987241,-4.981856,0.559920,0.028099,0.460592,4.924794
2025-12-31T16:18:49.680748,8.834301,-6.269195,0.799202,0.123394,0.150272,4.896694
2025-12-31T16:18:49.689748,9.767501,-7.101897,1.277767,0.432492,-0.084299,4.813617
2025-12-31T16:18:49.699748,10.834700,-7.403393,1.679761,0.823446,-0.234572,4.728095
2025-12-31T16:18:49.708748,11.619546,-7.006184,1.741974,1.264490,-0.278554,4.659679
2025-12-31T16:18:49.718748,12.160324,-5.714060,1.526620,1.644448,-0.230907,4.620583
2025-12-31T16:18:49.728748,12.442677,-4.292723,1.512263,1.733635,-0.120951,4.619361
2025-12-31T16:18:49.737748,12.667602,-3.192025,1.794616,1.523497,0.040317,4.630357
2025-12-31T16:18:49.747748,12.715459,-2.483749,2.187039,1.144761,0.279776,4.632801
2025-12-31T16:18:49.756748,12.404392,-2.569891,2.196611,0.531452,0.558330,4.641353
2025-12-31T16:18:49.766748,12.059825,-3.986442,1.536192,-0.146607,0.868650,4.615696
2025-12-31T16:18:49.776748,11.270194,-6.029912,0.679561,-0.464257,1.229060,4.547279
2025-12-31T16:18:49.785748,10.413563,-7.881957,0.311066,-0.422718,1.522275,4.451984
2025-12-31T16:18:49.795748,9.537790,-9.580861,0.244067,-0.157603,1.678657,4.309042
2025-12-31T16:18:49.805748,8.743373,-10.887342,0.167497,0.295658,1.626122,4.095239
2025-12-31T16:18:49.814748,8.039883,-11.270194,0.028713,0.940732,1.329242,3.837454
2025-12-31T16:18:49.824748,7.700103,-10.729416,-0.200997,1.540601,0.818559,3.543017
2025-12-31T16:18:49.833748,7.939385,-9.925428,-0.435493,1.883908,0.169820,3.205820
2025-12-31T16:18:49.843748,8.944370,-9.107082,-0.416351,2.031737,-0.414166,2.873509
2025-12-31T16:18:49.853748,10.423135,-8.705088,0.435493,1.836260,-0.810007,2.660928
2025-12-31T16:18:49.862748,12.418749,-9.422935,1.612762,1.150869,-0.983492,2.575407
2025-12-31T16:18:49.872748,14.433505,-10.916056,2.507678,0.333532,-0.902858,2.528981
2025-12-31T16:18:49.881748,15.897913,-12.547961,2.455035,-0.344527,-0.626747,2.506990
2025-12-31T16:18:49.891748,16.558332,-14.352149,2.110469,-0.800233,-0.274889,2.515542
2025-12-31T16:18:49.901748,16.582260,-16.060625,2.455035,-0.978605,0.177150,2.541198
2025-12-31T16:18:49.910748,15.936198,-17.663816,3.393022,-1.010370,0.755029,2.629163
2025-12-31T16:18:49.920748,14.701502,-19.147366,3.321237,-1.104444,1.285260,2.780657
2025-12-31T16:18:49.930748,12.926027,-20.654844,1.928615,-1.134987,1.623679,2.894278
2025-12-31T16:18:49.939748,11.452048,-22.425533,0.842273,-1.088561,1.681100,2.882061
2025-12-31T16:18:49.949748,10.494919,-24.684357,1.115055,-1.095892,1.507615,2.697580
2025-12-31T16:18:49.958748,9.925428,-26.933611,1.770688,-0.943175,1.277929,2.342056
2025-12-31T16:18:49.968748,9.312865,-28.374090,2.632104,-0.459370,1.054353,1.864360
2025-12-31T16:18:49.978748,8.757730,-27.996023,3.326023,0.200363,0.737925,1.254716
2025-12-31T16:18:49.987748,8.384450,-26.062622,3.617947,0.569326,0.337197,0.586430
2025-12-31T16:18:49.997748,8.499305,-23.444876,3.550948,0.581543,-0.105068,-0.070860
2025-12-31T16:18:50.006748,9.035298,-20.927626,3.871586,0.392175,-0.452040,-0.656069
2025-12-31T16:18:50.016748,9.729216,-18.740585,4.015156,0.095294,-0.681725,-1.106887
2025-12-31T16:18:50.026748,10.145567,-16.759329,3.383451,-0.212581,-0.792902,-1.395215
2025-12-31T16:18:50.035748,10.226923,-14.888142,2.627319,-0.355523,-0.802676,-1.576031
2025-12-31T16:18:50.045748,9.810572,-13.012169,2.402393,-0.324980,-0.700051,-1.707978
2025-12-31T16:18:50.055748,9.236295,-11.806186,2.589034,-0.360410,-0.500909,-1.791056
2025-12-31T16:18:50.064748,8.441878,-11.179267,2.656033,-0.423940,-0.259006,-1.832595
2025-12-31T16:18:50.074748,7.341179,-10.815558,2.139183,-0.375071,-0.034208,-1.891238
2025-12-31T16:18:50.083748,6.278766,-10.715059,1.387837,-0.249232,0.047647,-2.034180
2025-12-31T16:18:50.093748,5.522634,-10.777272,0.990628,-0.046425,-0.045204,-2.289522
2025-12-31T16:18:50.103748,5.221138,-10.729416,1.071984,0.284663,-0.278554,-2.607172
2025-12-31T16:18:50.112748,5.283352,-10.179067,0.957129,0.722042,-0.583987,-2.921156
2025-12-31T16:18:50.122748,5.450849,-8.977870,0.555134,1.154535,-0.907745,-3.202154
2025-12-31T16:18:50.131748,5.828915,-7.446463,0.066999,1.429424,-1.205847,-3.440392
2025-12-31T16:18:50.141748,6.163911,-6.039484,-0.349352,1.385442,-1.453858,-3.624873
2025-12-31T16:18:50.151748,6.805187,-4.981856,-0.588634,1.087339,-1.626122,-3.747046
2025-12-31T16:18:50.160748,7.594818,-4.278366,-0.497707,0.619417,-1.693318,-3.804467
2025-12-31T16:18:50.170748,8.504091,-4.053441,-0.449850,-0.020769,-1.690874,-3.820350
2025-12-31T16:18:50.180748,9.293722,-4.096512,-0.617348,-0.544891,-1.598023,-3.842341
2025-12-31T16:18:50.189748,9.681360,-4.077369,-0.990628,-0.858876,-1.414763,-3.858224
2025-12-31T16:18:50.199748,9.690931,-4.015156,-1.440479,-1.081231,-1.222951,-3.858224
2025-12-31T16:18:50.208748,9.619146,-4.067798,-1.512263,-1.169195,-1.036027,-3.894875
2025-12-31T16:18:50.218748,9.585647,-4.153940,-0.990628,-1.177747,-0.872315,-3.973066
2025-12-31T16:18:50.228748,9.662217,-4.374079,-0.387637,-1.188743,-0.752585,-4.076913
2025-12-31T16:18:50.237748,9.623932,-4.594219,-0.311066,-1.161865,-0.691499,-4.207638
2025-12-31T16:18:50.247748,9.719645,-4.790430,-0.454636,-1.048244,-0.697607,-4.351803
2025-12-31T16:18:50.256748,9.829715,-4.675575,-0.813559,-0.841772,-0.753807,-4.511849
2025-12-31T16:18:50.266748,10.045069,-4.197010,-0.890130,-0.598647,-0.830776,-4.690221
2025-12-31T16:18:50.276748,10.375278,-3.608376,-1.091127,-0.387288,-0.912632,-4.856377
2025-12-31T16:18:50.285748,10.772487,-3.019742,-1.387837,-0.213802,-0.993266,-4.993211
2025-12-31T16:18:50.295748,11.054840,-2.239681,-1.670190,-0.097738,-1.071457,-5.090949
2025-12-31T16:18:50.305748,11.495119,-1.555334,-1.880758,-0.090408,-1.163087,-5.164253
2025-12-31T16:18:50.314748,11.992826,-1.019342,-1.828116,-0.174707,-1.264490,-5.219231
2025-12-31T16:18:50.324748,12.734601,-0.780060,-1.416550,-0.345749,-1.350011,-5.233892
2025-12-31T16:18:50.333748,13.519447,-0.689132,-1.162911,-0.582765,-1.398881,-5.191132
2025-12-31T16:18:50.343748,14.084153,-0.870987,-1.205982,-0.801455,-1.382998,-5.097058
2025-12-31T16:18:50.353748,14.514861,-1.172483,-1.507478,-0.924849,-1.282816,-4.956559
2025-12-31T16:18:50.362748,14.749358,-1.426122,-1.507478,-0.985936,-1.094670,-4.757417
2025-12-31T16:18:50.372748,14.672788,-1.818545,-1.158126,-1.028696,-0.818559,-4.497188
2025-12-31T16:18:50.381748,14.088939,-2.455035,-0.741775,-1.005483,-0.475253,-4.199086
2025-12-31T16:18:50.391748,13.117453,-2.952743,-0.564706,-0.884532,-0.094073,-3.867997
2025-12-31T16:18:50.401748,11.734402,-3.244667,-0.373280,-0.717155,0.262671,-3.517361
2025-12-31T16:18:50.410748,10.198209,-3.541377,-0.229710,-0.505796,0.553443,-3.183828
2025-12-31T16:18:50.420748,8.537591,-3.737588,0.114855,-0.227241,0.762359,-2.871066
2025-12-31T16:18:50.430748,6.948756,-3.775874,0.224925,0.081855,0.867428,-2.564411
2025-12-31T16:18:50.439748,5.340780,-3.637090,0.172283,0.410501,0.871093,-2.276083
2025-12-31T16:18:50.449748,3.967299,-3.187239,0.311066,0.748920,0.790459,-2.024406
2025-12-31T16:18:50.458748,2.684746,-2.790031,0.445065,1.033583,0.669508,-1.811825
2025-12-31T16:18:50.468748,1.794616,-2.330609,0.780060,1.220508,0.503352,-1.637118
2025-12-31T16:18:50.478748,1.081555,-1.703689,1.215553,1.353677,0.301767,-1.478293
2025-12-31T16:18:50.487748,0.641276,-1.009771,1.584048,1.462411,0.080634,-1.357342
2025-12-31T16:18:50.497748,0.277567,-0.148355,1.852044,1.408654,-0.140498,-1.273042
2025-12-31T16:18:50.506748,0.311066,0.349352,1.871187,1.185078,-0.329867,-1.189965
2025-12-31T16:18:50.516748,0.454636,0.641276,1.799402,0.906523,-0.478918,-1.105665
2025-12-31T16:18:50.526748,0.722632,0.933200,1.722832,0.553443,-0.583987,-1.018923
2025-12-31T16:18:50.535748,1.076770,0.856630,1.689332,0.133168,-0.640186,-0.946840
2025-12-31T16:18:50.545748,1.464407,0.468993,1.665404,-0.268780,-0.627969,-0.894306
2025-12-31T16:18:50.555748,1.823330,-0.014356,1.780260,-0.620638,-0.566882,-0.850324
2025-12-31T16:18:50.564748,2.330609,-0.765703,2.019542,-0.866206,-0.472809,-0.803898
2025-12-31T16:18:50.574748,2.742174,-1.306481,2.029113,-1.026253,-0.353080,-0.756251
2025-12-31T16:18:50.583748,2.962314,-1.856830,1.703689,-1.110552,-0.213802,-0.670729
2025-12-31T16:18:50.593748,3.014956,-2.076970,1.225125,-1.112996,-0.048869,-0.540004
2025-12-31T16:18:50.603748,2.857030,-2.100898,1.100698,-1.098335,0.140498,-0.397062
2025-12-31T16:18:50.612748,2.617747,-2.158325,1.076770,-1.127656,0.323758,-0.265115
2025-12-31T16:18:50.622748,2.292324,-2.282752,1.095912,-1.191186,0.428827,-0.144164
2025-12-31T16:18:50.631748,2.081755,-2.411965,1.129412,-1.260825,0.405614,-0.029321
2025-12-31T16:18:50.641748,2.105683,-2.579462,1.172483,-1.342681,0.229685,0.054977
2025-12-31T16:18:50.651748,2.512463,-2.995813,1.320838,-1.417207,-0.062308,0.091629
2025-12-31T16:18:50.660748,3.460021,-3.488735,1.703689,-1.429424,-0.383623,0.103847
2025-12-31T16:18:50.670748,4.532006,-3.751945,1.636690,-1.373224,-0.660956,0.102625
2025-12-31T16:18:50.680748,5.699703,-3.842873,1.004985,-1.237612,-0.850324,0.133168
2025-12-31T16:18:50.689748,6.757331,-3.656232,0.425922,-1.054353,-0.923628,0.197920
2025-12-31T16:18:50.699748,7.633104,-3.292523,0.076570,-0.918741,-0.850324,0.306654
2025-12-31T16:18:50.708748,8.097311,-3.038884,-0.033499,-0.863763,-0.618195,0.460592
2025-12-31T16:18:50.718748,8.020741,-2.713460,0.000000,-0.800233,-0.217467,0.711046
2025-12-31T16:18:50.728748,7.178467,-2.321037,0.114855,-0.799011,0.313984,1.059240
2025-12-31T16:18:50.737748,5.862415,-2.201396,0.110069,-0.879645,0.844215,1.422093
2025-12-31T16:18:50.747748,4.383651,-2.421536,0.191425,-0.934623,1.268155,1.755626
2025-12-31T16:18:50.756748,2.775674,-2.909672,0.114855,-0.955393,1.549153,2.056171
2025-12-31T16:18:50.766748,1.186840,-3.531806,-0.215354,-0.873537,1.654222,2.346943
2025-12-31T16:18:50.776748,-0.114855,-3.943371,-0.387637,-0.646295,1.517388,2.596176
2025-12-31T16:18:50.785748,-0.856630,-4.024727,-0.253639,-0.344527,1.143539,2.740340
2025-12-31T16:18:50.795748,-1.086341,-3.957728,-0.095712,-0.058643,0.577878,2.786766
2025-12-31T16:18:50.805748,-0.483350,-3.780659,0.162711,0.227241,-0.118507,2.798983
2025-12-31T16:18:50.814748,0.693918,-3.330809,0.722632,0.482583,-0.775798,2.819753
2025-12-31T16:18:50.824748,2.383251,-2.909672,1.517049,0.597426,-1.248608,2.862513
2025-12-31T16:18:50.833748,4.173082,-2.550748,1.880758,0.596204,-1.457524,2.950478
2025-12-31T16:18:50.843748,5.862415,-2.134397,1.713260,0.518013,-1.390328,3.110525
2025-12-31T16:18:50.853748,7.159325,-1.655833,1.071984,0.332310,-1.105665,3.325549
2025-12-31T16:18:50.862748,8.078169,-1.320838,0.464207,0.041538,-0.670729,3.536908
2025-12-31T16:18:50.872748,8.618947,-1.316052,-0.105284,-0.322536,-0.179594,3.731164
2025-12-31T16:18:50.881748,8.776873,-1.708475,-0.205782,-0.673173,0.278554,3.937636
2025-12-31T16:18:50.891748,8.571090,-2.234896,-0.014356,-0.928514,0.632856,4.152661
2025-12-31T16:18:50.901748,8.116454,-2.435893,0.473778,-1.088561,0.830776,4.335920
2025-12-31T16:18:50.910748,7.513462,-2.402393,0.866201,-1.203404,0.851545,4.465423
2025-12-31T16:18:50.920748,6.953542,-2.009970,1.268195,-1.277929,0.702494,4.549723
2025-12-31T16:18:50.930748,6.671189,-1.435693,1.732403,-1.429424,0.378736,4.631579
2025-12-31T16:18:50.939748,6.891329,-1.138983,2.115255,-1.800830,-0.090408,4.720765
2025-12-31T16:18:50.949748,7.633104,-1.507478,2.009970,-2.296852,-0.620638,4.807508
2025-12-31T16:18:50.958748,8.561519,-2.478964,0.861416,-2.702467,-1.109331,4.869816
2025-12-31T16:18:50.968748,9.858429,-4.321437,-0.842273,-2.906496,-1.499062,4.846603
2025-12-31T16:18:50.978748,11.562118,-6.958328,-2.067398,-2.911383,-1.765400,4.717100
2025-12-31T16:18:50.987748,13.404592,-10.064211,-2.402393,-2.428799,-1.838703,4.502075
2025-12-31T16:18:50.997748,15.050854,-12.519247,-2.129612,-1.287703,-1.657887,4.289494
2025-12-31T16:18:51.006748,15.792629,-13.481162,-2.483749,0.271224,-1.197295,4.146552
2025-12-31T16:18:51.016748,15.208780,-12.729816,-3.474378,1.881464,-0.642630,4.109900
2025-12-31T16:18:51.026748,13.950155,-10.346564,-3.929014,3.222924,-0.218689,4.100126
2025-12-31T16:18:51.035748,12.854243,-7.527819,-3.340380,3.943745,-0.086742,4.081800
2025-12-31T16:18:51.045748,12.370892,-5.230710,-1.751546,3.769037,-0.313984,4.085465
2025-12-31T16:18:51.055748,12.667602,-4.220939,-0.148355,2.967582,-0.698829,4.102570
2025-12-31T16:18:51.064748,13.251451,-4.158725,1.024128,1.935220,-1.018923,4.155104
2025-12-31T16:18:51.074748,13.581661,-4.756931,0.847059,0.764803,-1.132543,4.261395
2025-12-31T16:18:51.083748,13.457234,-6.585047,-0.808774,-0.344527,-0.956614,4.348137
2025-12-31T16:18:51.093748,12.825529,-8.891728,-2.206182,-1.025031,-0.541226,4.362798
2025-12-31T16:18:51.103748,11.743973,-10.987841,-2.871387,-1.147204,-0.040317,4.322481
2025-12-31T16:18:51.112748,10.365707,-12.543176,-3.091526,-0.862541,0.420275,4.269947
2025-12-31T16:18:51.122748,8.446663,-13.332807,-3.474378,-0.353080,0.671951,4.199086
2025-12-31T16:18:51.131748,6.604190,-13.136596,-4.216153,0.362853,0.654847,4.034153
2025-12-31T16:18:51.141748,5.235495,-12.466605,-3.866801,0.858876,0.289550,3.782476
2025-12-31T16:18:51.151748,4.823930,-12.418749,-2.584248,0.858876,-0.346971,3.489261
2025-12-31T16:18:51.160748,5.302494,-12.739387,-1.086341,0.889419,-0.985936,3.139846
2025-12-31T16:18:51.170748,6.264409,-12.892528,0.186640,0.929736,-1.512502,2.841744
2025-12-31T16:18:51.180748,7.518248,-13.706087,-0.105284,0.542448,-1.881464,2.654819
2025-12-31T16:18:51.189748,8.915657,-15.687344,-1.756331,0.086742,-2.019520,2.463008
2025-12-31T16:18:51.199748,10.231709,-17.860027,-3.550948,-0.184481,-1.948659,2.238209
2025-12-31T16:18:51.208748,11.581261,-20.224136,-5.230710,-0.283441,-1.674992,2.020741
2025-12-31T16:18:51.218748,12.538390,-22.253250,-6.527620,-0.008552,-1.240056,1.814269
2025-12-31T16:18:51.228748,12.835100,-23.334805,-7.556533,0.533896,-0.680503,1.576031
2025-12-31T16:18:51.237748,12.662817,-23.243877,-7.503891,1.050687,-0.116064,1.249830
2025-12-31T16:18:51.247748,12.222537,-21.923040,-5.077569,1.258382,0.384845,0.824667
2025-12-31T16:18:51.256748,11.519047,-19.984854,-2.258824,0.926071,0.764803,0.368962
2025-12-31T16:18:51.266748,10.542776,-17.950954,-0.952343,0.065973,0.916297,-0.031764
2025-12-31T16:18:51.276748,9.815358,-16.610973,-0.923629,-1.032362,0.812450,-0.454483
2025-12-31T16:18:51.285748,9.839286,-16.548761,-1.148554,-2.168571,0.538783,-0.937067
2025-12-31T16:18:51.295748,10.643274,-18.606588,-1.517049,-3.181385,0.246789,-1.328020
2025-12-31T16:18:51.305748,11.686545,-21.640688,-2.043470,-3.435505,0.127059,-1.600466
2025-12-31T16:18:51.314748,12.232109,-23.626730,-2.435893,-2.591289,0.312762,-1.843590
2025-12-31T16:18:51.324748,11.854043,-24.067009,-2.890529,-1.317025,0.698829,-1.969429
2025-12-31T16:18:51.333748,10.676774,-23.420946,-3.574876,-0.050090,1.091005,-1.969429
2025-12-31T16:18:51.343748,8.848657,-21.320049,-3.637090,1.367116,1.419650,-1.982868
2025-12-31T16:18:51.353748,6.896114,-17.860027,-2.909672,2.587624,1.532049,-2.086715
2025-12-31T16:18:51.362748,5.197210,-14.112867,-1.703689,3.165503,1.301142,-2.234544
2025-12-31T16:18:51.372748,4.163511,-11.088339,-1.110269,3.112968,0.778242,-2.430021
2025-12-31T16:18:51.381748,3.718446,-8.853443,-0.660419,2.689028,0.124616,-2.626719
2025-12-31T16:18:51.391748,3.862015,-7.288537,-0.507278,1.981646,-0.602312,-2.759888
2025-12-31T16:18:51.401748,4.881358,-6.637689,-0.282353,0.819780,-1.357342,-2.774549
2025-12-31T16:18:51.410748,6.565905,-7.154539,-0.507278,-0.379958,-2.015854,-2.756223
2025-12-31T16:18:51.420748,8.614161,-7.972884,-1.038485,-1.078787,-2.354274,-2.825862
2025-12-31T16:18:51.430748,10.514062,-8.480163,-1.344766,-1.187521,-2.266309,-2.939482
2025-12-31T16:18:51.439748,11.710473,-8.638089,-1.507478,-1.078787,-1.750739,-2.899165
2025-12-31T16:18:51.449748,11.973684,-8.547162,-1.966900,-0.977384,-0.939510,-2.665815
2025-12-31T16:18:51.458748,11.327622,-8.030312,-2.603390,-0.757472,0.017104,-2.422691
2025-12-31T16:18:51.468748,9.734002,-6.786044,-2.665604,-0.503352,0.891863,-2.323730
2025-12-31T16:18:51.478748,7.934599,-5.441278,-2.445464,-0.505796,1.441641,-2.360382
2025-12-31T16:18:51.487748,6.312266,-4.694717,-2.273181,-0.642630,1.643227,-2.514320
2025-12-31T16:18:51.497748,4.986642,-4.072584,-2.076970,-0.678060,1.568701,-2.756223
2025-12-31T16:18:51.506748,4.010370,-3.373879,-1.751546,-0.712268,1.274264,-3.037221
2025-12-31T16:18:51.516748,3.661018,-2.861815,-1.440479,-0.829554,0.825889,-3.324327
2025-12-31T16:18:51.526748,3.914657,-2.770888,-1.115055,-0.972497,0.326201,-3.595552
2025-12-31T16:18:51.535748,4.704289,-2.809173,-0.880558,-1.022588,-0.150272,-3.848450
2025-12-31T16:18:51.545748,5.833701,-2.785245,-0.971485,-0.995710,-0.521678,-4.081800
2025-12-31T16:18:51.555748,7.168896,-2.799602,-1.406979,-0.974940,-0.742811,-4.280942
2025-12-31T16:18:51.564748,8.475377,-2.866601,-1.923829,-0.916297,-0.792902,-4.433658
2025-12-31T16:18:51.574748,9.686145,-2.670390,-2.263610,-0.813672,-0.673173,-4.536284
2025-12-31T16:18:51.583748,10.557133,-2.402393,-2.263610,-0.737925,-0.404392,-4.582710
2025-12-31T16:18:51.593748,11.030912,-2.086541,-2.120040,-0.733038,-0.046425,-4.575379
2025-12-31T16:18:51.603748,11.021340,-1.837687,-2.019542,-0.759916,0.339641,-4.535062
2025-12-31T16:18:51.612748,10.514062,-1.579262,-2.038684,-0.844215,0.679282,-4.486193
2025-12-31T16:18:51.622748,9.872786,-1.435693,-1.966900,-1.005483,0.882089,-4.459315
2025-12-31T16:18:51.631748,9.317651,-1.627119,-1.804188,-1.156978,0.929736,-4.455650
2025-12-31T16:18:51.641748,8.982656,-1.971685,-1.655833,-1.241277,0.821002,-4.465423
2025-12-31T16:18:51.651748,8.810372,-2.201396,-1.555334,-1.257160,0.596204,-4.475197
2025-12-31T16:18:51.660748,8.767302,-2.478964,-1.507478,-1.177747,0.320093,-4.459315
2025-12-31T16:18:51.670748,9.087940,-2.794816,-1.469193,-0.999375,0.063529,-4.412889
2025-12-31T16:18:51.680748,9.360722,-2.847458,-1.210768,-0.777020,-0.124616,-4.331033
2025-12-31T16:18:51.689748,9.695717,-2.957528,-1.033699,-0.583987,-0.217467,-4.196643
2025-12-31T16:18:51.699748,9.944570,-3.134597,-0.660419,-0.392175,-0.188146,-4.025601
2025-12-31T16:18:51.708748,10.083354,-3.316452,-0.306281,-0.201585,-0.032986,-3.822793
2025-12-31T16:18:51.718748,9.815358,-3.579662,-0.239282,-0.006108,0.221133,-3.588221
2025-12-31T16:18:51.728748,9.111868,-3.847658,-0.291924,0.244346,0.524122,-3.329214
2025-12-31T16:18:51.737748,8.202595,-3.924229,-0.186640,0.540004,0.844215,-3.048216
2025-12-31T16:18:51.747748,6.910471,-3.938585,-0.133998,0.817337,1.147204,-2.767218
2025-12-31T16:18:51.756748,5.474778,-3.914657,-0.244067,1.091005,1.402546,-2.509433
2025-12-31T16:18:51.766748,4.010370,-3.570091,-0.277567,1.369559,1.560149,-2.261422
2025-12-31T16:18:51.776748,2.560320,-3.081955,-0.334995,1.587027,1.602910,-2.040289
2025-12-31T16:18:51.785748,1.330409,-2.483749,-0.263210,1.744630,1.517388,-1.899790
2025-12-31T16:18:51.795748,0.244067,-1.828116,-0.167497,1.815491,1.292590,-1.828930
2025-12-31T16:18:51.805748,-0.569491,-1.335195,0.148355,1.734856,0.966388,-1.760513
2025-12-31T16:18:51.814748,-1.038485,-1.038485,0.564706,1.558927,0.558330,-1.689652
2025-12-31T16:18:51.824748,-1.292124,-0.861416,1.091127,1.351233,0.091629,-1.638340
2025-12-31T16:18:51.833748,-1.024128,-0.856630,1.502692,1.119104,-0.422718,-1.611462
2025-12-31T16:18:51.843748,-0.306281,-1.048056,1.947757,0.889419,-0.929736,-1.605353
2025-12-31T16:18:51.853748,0.875773,-1.598405,2.325823,0.719599,-1.350011,-1.606575
2025-12-31T16:18:51.862748,2.316252,-2.292324,2.388036,0.632856,-1.591914,-1.590692
2025-12-31T16:18:51.872748,3.838087,-2.947957,2.115255,0.638964,-1.610240,-1.547932
2025-12-31T16:18:51.881748,5.144568,-3.349951,1.411765,0.740368,-1.402546,-1.448972
2025-12-31T16:18:51.891748,6.116054,-3.469592,0.646062,0.885754,-1.029918,-1.298699
2025-12-31T16:18:51.901748,6.431907,-3.268595,0.076570,1.003040,-0.572991,-1.108109
2025-12-31T16:18:51.910748,6.384050,-2.756531,-0.224925,1.056796,-0.125838,-0.897971
2025-12-31T16:18:51.920748,5.891129,-2.254038,-0.325423,1.011592,0.229685,-0.695164
2025-12-31T16:18:51.930748,5.211567,-1.780260,-0.382851,0.857654,0.433714,-0.498465
2025-12-31T16:18:51.939748,4.622933,-1.421336,-0.339780,0.652403,0.481361,-0.320093
2025-12-31T16:18:51.949748,4.125226,-1.162911,-0.100498,0.395840,0.383623,-0.156381
2025-12-31T16:18:51.958748,3.952942,-1.191625,0.244067,0.073303,0.167377,0.003665
2025-12-31T16:18:51.968748,4.048655,-1.416550,0.583848,-0.233350,-0.095294,0.178372
2025-12-31T16:18:51.978748,4.441078,-1.631905,1.086341,-0.498465,-0.315206,0.389731
2025-12-31T16:18:51.987748,4.986642,-1.694118,1.469193,-0.736703,-0.415388,0.634077
2025-12-31T16:18:51.997748,5.240281,-1.746760,1.339980,-0.937067,-0.324980,0.927293
2025-12-31T16:18:52.006748,5.168496,-1.622333,0.957129,-1.093448,-0.048869,1.276708
2025-12-31T16:18:52.016748,4.737788,-1.277767,0.727418,-1.271821,0.351858,1.667661
2025-12-31T16:18:52.026748,3.967299,-1.225125,0.368494,-1.519832,0.770911,2.051285
2025-12-31T16:18:52.035748,3.019742,-1.225125,-0.052642,-1.775174,1.103222,2.405586
2025-12-31T16:18:52.045748,2.191825,-1.698904,-0.114855,-2.054950,1.243721,2.719571
2025-12-31T16:18:52.055748,1.765903,-2.632104,0.253639,-2.339613,1.130100,2.992017
2025-12-31T16:18:52.064748,1.842473,-3.929014,0.751346,-2.466673,0.781907,3.205820
2025-12-31T16:18:52.074748,2.325823,-5.307280,1.000199,-2.382373,0.268780,3.367088
2025-12-31T16:18:52.083748,3.378665,-6.556333,0.861416,-2.068389,-0.305432,3.505144
2025-12-31T16:18:52.093748,5.015356,-7.398607,0.713061,-1.538158,-0.790459,3.634647
2025-12-31T16:18:52.103748,6.738188,-7.719245,0.425922,-0.851545,-1.092226,3.731164
2025-12-31T16:18:52.112748,8.336593,-7.408178,-0.052642,-0.061086,-1.158200,3.828902
2025-12-31T16:18:52.122748,9.671788,-6.556333,-0.291924,0.668286,-1.028696,3.985283
2025-12-31T16:18:52.131748,10.676774,-5.465206,-0.421136,1.163087,-0.741590,4.214969
2025-12-31T16:18:52.141748,11.188838,-4.350151,-0.363709,1.455080,-0.343306,4.475197
2025-12-31T16:18:52.151748,11.212766,-3.096312,-0.239282,1.602910,0.100181,4.742756
2025-12-31T16:18:52.160748,10.796415,-2.081755,0.014356,1.527162,0.518013,4.989546
2025-12-31T16:18:52.170748,10.155139,-1.722832,0.301495,1.232725,0.851545,5.187466
2025-12-31T16:18:52.180748,9.513862,-2.000399,0.674775,0.905302,1.064127,5.334074
2025-12-31T16:18:52.189748,8.910871,-2.392822,1.115055,0.730594,1.161865,5.437920
2025-12-31T16:18:52.199748,8.336593,-2.713460,1.272981,0.607199,1.144761,5.485568
2025-12-31T16:18:52.208748,7.838886,-3.326023,0.736989,0.521678,0.996931,5.496563
2025-12-31T16:18:52.218748,7.661817,-3.790230,0.282353,0.649960,0.764803,5.455025
2025-12-31T16:18:52.228748,7.709674,-3.962514,0.320638,0.808785,0.505796,5.376835
2025-12-31T16:18:52.237748,8.106882,-4.412364,0.421136,0.858876,0.254119,5.288870
2025-12-31T16:18:52.247748,8.772087,-4.833501,0.636490,0.988379,0.069638,5.177692
2025-12-31T16:18:52.256748,9.652646,-5.010570,1.191625,1.132543,-0.040317,5.046967
2025-12-31T16:18:52.266748,10.456634,-5.091926,1.406979,1.208291,-0.086742,4.902803
2025-12-31T16:18:52.276748,11.083554,-5.115854,1.225125,1.418428,-0.035430,4.721987
2025-12-31T16:18:52.285748,11.432906,-4.709074,1.024128,1.648114,0.101403,4.524067
2025-12-31T16:18:52.295748,11.605189,-4.436293,0.866201,1.676213,0.295658,4.366463
2025-12-31T16:18:52.305748,11.428120,-4.488935,0.248853,1.588249,0.565661,4.299268
2025-12-31T16:18:52.314748,10.916056,-4.622933,-0.545563,1.382998,0.827111,4.329811
2025-12-31T16:18:52.324748,10.341779,-4.589433,-1.373480,1.145982,0.992044,4.357911
2025-12-31T16:18:52.333748,9.657432,-4.493720,-1.287338,0.757472,0.978605,4.365242
2025-12-31T16:18:52.343748,9.442077,-5.326423,-0.205782,-0.018325,0.807563,4.371350
2025-12-31T16:18:52.353748,9.585647,-7.159325,1.201196,-0.911410,0.641408,4.345694
2025-12-31T16:18:52.362748,9.107082,-8.595018,3.067598,-1.258382,0.149051,4.274834
2025-12-31T16:18:52.372748,9.891928,-9.944570,2.421536,-2.013411,0.080634,4.155104
2025-12-31T16:18:52.381748,10.150353,-13.261022,-0.023928,-2.492329,-0.064751,3.970623
2025-12-31T16:18:52.391748,10.901699,-16.175480,-0.794417,-2.445903,-0.037873,4.091574
2025-12-31T16:18:52.401748,11.303693,-18.707087,-1.545763,-1.898568,0.283441,4.021935
2025-12-31T16:18:52.410748,10.571490,-19.750357,-3.115455,-0.910189,0.436157,3.910758
2025-12-31T16:18:52.420748,9.542576,-19.951353,-4.914857,0.003665,0.453261,3.867997
2025-12-31T16:18:52.430748,8.800801,-20.573488,-5.106283,0.731816,0.378736,3.738494
2025-12-31T16:18:52.439748,8.264809,-20.420347,-3.852444,1.616349,0.371405,3.474600
2025-12-31T16:18:52.449748,7.628318,-18.735800,-1.622333,2.405586,0.400727,3.219259
2025-12-31T16:18:52.458748,7.082754,-16.582260,0.861416,2.464229,0.311541,3.017673
2025-12-31T16:18:52.468748,6.853043,-15.261422,3.072384,1.890016,0.178372,2.744006
2025-12-31T16:18:52.478748,6.829115,-14.912070,4.622933,0.984714,0.064751,2.405586
2025-12-31T16:18:52.487748,7.164110,-15.945769,4.972285,-0.228463,-0.042760,2.086715
2025-12-31T16:18:52.497748,7.666603,-18.175880,3.067598,-1.362229,-0.010995,1.739743
2025-12-31T16:18:52.506748,7.604390,-20.702702,-0.086141,-2.042732,0.183259,1.293812
2025-12-31T16:18:52.516748,7.398607,-23.009382,-3.550948,-2.331061,0.449596,0.762359
2025-12-31T16:18:52.526748,6.929614,-24.971497,-6.144768,-2.020741,0.812450,0.092851
2025-12-31T16:18:52.535748,6.211767,-25.588844,-5.967699,-1.130100,1.243721,-0.746477
2025-12-31T16:18:52.545748,5.225924,-24.392433,-3.737588,-0.193033,1.585805,-1.623679
2025-12-31T16:18:52.555748,4.331008,-21.985254,-1.301695,0.223576,1.527162,-2.337169
2025-12-31T16:18:52.564748,3.914657,-19.357935,0.741775,0.056199,0.908967,-2.864957
2025-12-31T16:18:52.574748,4.847858,-17.769100,3.354737,-0.477696,-0.036651,-3.284010
2025-12-31T16:18:52.583748,6.786044,-17.242680,5.402993,-1.036027,-0.888197,-3.523469
2025-12-31T16:18:52.593748,9.006584,-17.773886,5.020141,-1.466076,-1.334129,-3.475822
2025-12-31T16:18:52.603748,10.648060,-19.616360,2.522035,-1.766621,-1.249830,-3.167946
2025-12-31T16:18:52.612748,11.858828,-22.593031,-0.157926,-1.777617,-0.777020,-2.842966
2025-12-31T16:18:52.622748,12.385249,-25.335205,-1.603191,-0.657290,0.076969,-2.722014
2025-12-31T16:18:52.631748,11.413763,-25.129421,-1.770688,1.600466,1.169195,-2.674367
2025-12-31T16:18:52.641748,8.685946,-21.956539,-2.560320,3.698177,2.086715,-2.487442
2025-12-31T16:18:52.651748,5.527420,-18.094524,-3.981656,5.086062,2.530203,-2.348165
2025-12-31T16:18:52.660748,2.679961,-13.782658,-4.359722,6.196615,2.547307,-2.526538
2025-12-31T16:18:52.670748,0.507278,-8.834301,-3.622733,6.952866,2.156353,-2.989573
2025-12-31T16:18:52.680748,-0.689132,-4.632504,-2.230110,6.982188,1.458745,-3.532022
2025-12-31T16:18:52.689748,-1.201196,-1.909472,-0.593420,6.367657,0.508239,-3.996279
2025-12-31T16:18:52.699748,-0.579063,-0.406779,1.780260,5.275431,-0.658512,-4.269947
2025-12-31T16:18:52.708748,1.220339,-0.114855,4.742574,3.859445,-1.910786,-4.378681
2025-12-31T16:18:52.718748,4.058227,-0.914058,6.704688,2.546085,-3.021338,-4.388454
2025-12-31T16:18:52.728748,6.920042,-1.976471,6.431907,1.650557,-3.700620,-4.315151
2025-12-31T16:18:52.737748,8.920442,-2.976671,4.331008,1.001818,-3.877771,-4.136778
2025-12-31T16:18:52.747748,9.944570,-3.967299,1.808973,0.529009,-3.688403,-3.968179
2025-12-31T16:18:52.756748,10.604989,-4.541577,0.153140,0.354301,-3.196046,-3.957184
2025-12-31T16:18:52.766748,10.877771,-4.474578,-0.334995,0.390953,-2.495994,-4.002388
2025-12-31T16:18:52.776748,10.614561,-3.503092,-0.100498,0.458148,-1.814269,-3.975510
2025-12-31T16:18:52.785748,9.762716,-2.234896,0.559920,0.465479,-1.313359,-3.892432
2025-12-31T16:18:52.795748,8.882157,-0.909272,1.316052,0.342084,-1.084896,-3.881436
2025-12-31T16:18:52.805748,8.102097,0.129212,1.923829,-0.003665,-1.105665,-3.984062
2025-12-31T16:18:52.814748,7.594818,0.622133,2.435893,-0.522900,-1.331685,-4.123339
2025-12-31T16:18:52.824748,7.422535,0.708275,2.703889,-1.060461,-1.701870,-4.233295
2025-12-31T16:18:52.833748,7.747959,0.430708,2.560320,-1.616349,-2.130697,-4.309042
2025-12-31T16:18:52.843748,8.312665,-0.277567,1.799402,-2.160019,-2.565633,-4.401893
2025-12-31T16:18:52.853748,9.150153,-1.205982,0.507278,-2.500881,-2.911383,-4.535062
2025-12-31T16:18:52.862748,10.131210,-1.919043,-0.545563,-2.594954,-3.095864,-4.684113
2025-12-31T16:18:52.872748,11.346764,-2.440679,-1.330409,-2.510655,-3.103194,-4.827055
2025-12-31T16:18:52.881748,12.423534,-2.689532,-1.746760,-2.269974,-2.949256,-4.926016
2025-12-31T16:18:52.891748,13.380663,-2.598605,-1.942971,-1.944994,-2.657263,-4.932125
2025-12-31T16:18:52.901748,13.921441,-2.321037,-1.995614,-1.656666,-2.234544,-4.809952
2025-12-31T16:18:52.910748,13.998012,-1.962114,-1.727617,-1.458745,-1.745852,-4.572936
2025-12-31T16:18:52.920748,13.500305,-1.785045,-1.167697,-1.357342,-1.252273,-4.294381
2025-12-31T16:18:52.930748,12.777672,-1.866401,-0.334995,-1.340238,-0.812450,-4.013383
2025-12-31T16:18:52.939748,11.820543,-2.325823,0.440279,-1.372003,-0.453261,-3.727498
2025-12-31T16:18:52.949748,10.710273,-2.847458,0.847059,-1.393994,-0.153938,-3.429396
2025-12-31T16:18:52.958748,9.403792,-3.369094,0.751346,-1.317025,0.114842,-3.121520
2025-12-31T16:18:52.968748,7.905885,-3.665804,0.401994,-1.120326,0.362853,-2.811201
2025-12-31T16:18:52.978748,6.431907,-3.574876,0.133998,-0.838106,0.569326,-2.527759
2025-12-31T16:18:52.987748,4.881358,-3.316452,-0.038285,-0.518013,0.717155,-2.284635
2025-12-31T16:18:52.997748,3.359522,-2.746960,-0.038285,-0.226020,0.779463,-2.076941
2025-12-31T16:18:53.006748,2.043470,-2.364108,0.215354,0.007330,0.729372,-1.914451
2025-12-31T16:18:53.016748,1.038485,-2.000399,0.937986,0.174707,0.598647,-1.802052
2025-12-31T16:18:53.026748,0.320638,-1.751546,1.933400,0.194255,0.403170,-1.709200
2025-12-31T16:18:53.035748,-0.191425,-1.665404,2.297109,0.101403,0.112399,-1.626122
2025-12-31T16:18:53.045748,-0.339780,-1.521835,2.115255,0.061086,-0.251676,-1.549153
2025-12-31T16:18:53.055748,-0.081355,-1.349551,1.703689,0.018325,-0.618195,-1.485623
2025-12-31T16:18:53.064748,0.540777,-1.469193,1.339980,-0.091629,-0.916297,-1.439198
2025-12-31T16:18:53.074748,1.325623,-1.880758,1.301695,-0.155159,-1.070235,-1.402546
2025-12-31T16:18:53.083748,2.067398,-2.349751,1.402194,-0.122173,-1.065348,-1.337794
2025-12-31T16:18:53.093748,2.794816,-2.612962,1.430907,-0.073303,-0.928514,-1.242499
2025-12-31T16:18:53.103748,3.211167,-2.732603,1.536192,-0.012217,-0.709825,-1.133765
2025-12-31T16:18:53.112748,3.393022,-2.627319,1.842473,0.030543,-0.452040,-1.021366
2025-12-31T16:18:53.122748,3.498306,-2.464607,1.976471,0.003665,-0.202807,-0.908967
2025-12-31T16:18:53.131748,3.383451,-2.148754,1.871187,-0.067195,-0.006108,-0.800233
2025-12-31T16:18:53.141748,3.129811,-1.698904,1.569691,-0.172263,0.103847,-0.701273
2025-12-31T16:18:53.151748,3.014956,-1.368694,1.282552,-0.379958,0.091629,-0.623082
2025-12-31T16:18:53.160748,3.201596,-1.416550,1.277767,-0.687834,-0.040317,-0.555887
2025-12-31T16:18:53.170748,3.665804,-1.799402,1.296909,-1.033583,-0.252898,-0.493579
2025-12-31T16:18:53.180748,4.469792,-2.344966,1.440479,-1.303586,-0.508239,-0.431270
2025-12-31T16:18:53.189748,5.312066,-2.976671,1.339980,-1.480737,-0.747698,-0.324980
2025-12-31T16:18:53.199748,6.226124,-3.541377,1.071984,-1.563814,-0.924849,-0.150272
2025-12-31T16:18:53.208748,7.073183,-4.048655,0.703489,-1.529606,-0.966388,0.074525
2025-12-31T16:18:53.218748,7.762316,-4.431507,0.282353,-1.423315,-0.808785,0.357966
2025-12-31T16:18:53.228748,7.910671,-4.651647,0.052642,-1.251051,-0.470366,0.700051
2025-12-31T16:18:53.237748,7.647461,-4.675575,0.148355,-1.032362,0.013439,1.088561
2025-12-31T16:18:53.247748,6.900900,-4.680361,0.435493,-0.830776,0.571769,1.507615
2025-12-31T16:18:53.256748,5.618347,-4.594219,0.832702,-0.621860,1.062905,1.931555
2025-12-31T16:18:53.266748,4.029513,-4.249652,1.220339,-0.405614,1.401324,2.311513
2025-12-31T16:18:53.276748,2.565105,-3.943371,1.277767,-0.229685,1.547932,2.625498
2025-12-31T16:18:53.285748,1.263410,-3.670589,1.033699,-0.068416,1.464854,2.885726
2025-12-31T16:18:53.295748,0.468993,-3.349951,0.985842,0.062308,1.161865,3.123964
2025-12-31T16:18:53.305748,0.291924,-3.172882,1.143769,0.086742,0.682947,3.320662
2025-12-31T16:18:53.314748,0.784845,-3.378665,1.009771,0.021991,0.094073,3.472157
2025-12-31T16:18:53.324748,1.890329,-3.823730,0.669990,-0.012217,-0.498465,3.601660
2025-12-31T16:18:53.333748,3.460021,-4.302295,0.392422,0.053756,-0.950506,3.742159
2025-12-31T16:18:53.343748,5.149354,-4.689932,0.306281,0.226020,-1.181413,3.867997
2025-12-31T16:18:53.353748,6.661618,-5.034498,0.526420,0.471587,-1.155756,3.974288
2025-12-31T16:18:53.362748,7.996813,-5.044070,0.703489,0.739146,-0.905302,4.090352
2025-12-31T16:18:53.372748,8.738588,-4.512863,0.411565,1.022588,-0.499687,4.247955
2025-12-31T16:18:53.381748,8.863014,-3.460021,-0.325423,1.248608,-0.046425,4.444654
2025-12-31T16:18:53.391748,8.609375,-2.378465,-0.894915,1.324355,0.343306,4.625470
2025-12-31T16:18:53.401748,8.240881,-1.627119,-0.794417,1.232725,0.625525,4.758638
2025-12-31T16:18:53.410748,7.853243,-1.239482,-0.311066,0.945619,0.801455,4.852712
2025-12-31T16:18:53.420748,7.570890,-1.464407,0.119641,0.536339,0.858876,4.933346
2025-12-31T16:18:53.430748,7.422535,-1.890329,0.373280,0.259006,0.831998,5.015202
2025-12-31T16:18:53.439748,7.240681,-2.115255,0.521635,0.087964,0.745255,5.082397
2025-12-31T16:18:53.449748,7.240681,-2.780459,0.545563,-0.135612,0.590095,5.116606
2025-12-31T16:18:53.458748,7.408178,-3.608376,0.684347,-0.141720,0.411723,5.078732
2025-12-31T16:18:53.468748,7.834101,-3.775874,0.942772,0.183259,0.257785,4.962668
2025-12-31T16:18:53.478748,7.968099,-3.326023,0.468993,0.532674,0.114842,4.786739
2025-12-31T16:18:53.487748,8.264809,-3.254238,-0.535992,0.728151,-0.079412,4.577823
2025-12-31T16:18:53.497748,8.930013,-3.570091,-0.717846,0.795346,-0.304210,4.371350
2025-12-31T16:18:53.506748,10.236495,-4.005585,0.205782,0.729372,-0.476474,4.225964
2025-12-31T16:18:53.516748,11.624332,-4.752145,1.713260,0.536339,-0.543669,4.138000
2025-12-31T16:18:53.526748,12.873385,-5.288137,2.426322,0.378736,-0.467922,4.085465
2025-12-31T16:18:53.535748,13.600803,-5.479563,2.048256,0.280997,-0.355523,4.155104
2025-12-31T16:18:53.545748,14.026726,-5.929414,1.550549,-0.083077,-0.320093,4.366463
2025-12-31T16:18:53.555748,14.634503,-7.460820,1.191625,-0.706160,-0.309097,4.548501
2025-12-31T16:18:53.564748,15.170495,-9.537790,1.052841,-1.170417,-0.185702,4.596149
2025-12-31T16:18:53.574748,15.165709,-11.499905,0.617348,-1.279151,0.067195,4.614475
2025-12-31T16:18:53.583748,14.361721,-12.859028,-0.315852,-1.078787,0.403170,4.665787
2025-12-31T16:18:53.593748,13.179666,-13.792229,-0.947557,-0.625525,0.766024,4.693887
2025-12-31T16:18:53.603748,11.772687,-13.993226,-0.937986,-0.040317,1.038470,4.674339
2025-12-31T16:18:53.612748,10.202995,-13.505090,-0.334995,0.367740,1.154535,4.619361
2025-12-31T16:18:53.622748,8.700302,-12.930813,-0.119641,0.544891,1.082452,4.482528
2025-12-31T16:18:53.631748,7.599604,-12.145967,0.076570,0.604756,0.805120,4.289494
2025-12-31T16:18:53.641748,6.934399,-11.351550,0.186640,0.560774,0.362853,4.086687
2025-12-31T16:18:53.651748,6.833901,-11.303693,0.325423,0.240680,-0.146607,3.860667
2025-12-31T16:18:53.660748,7.747959,-12.940384,0.890130,-0.324980,-0.581543,3.584556
2025-12-31T16:18:53.670748,9.260223,-16.046268,1.469193,-0.730594,-0.712268,3.275458
2025-12-31T16:18:53.680748,10.394421,-19.176081,1.421336,-0.659734,-0.499687,3.031112
2025-12-31T16:18:53.689748,11.083554,-21.745972,0.334995,-0.189368,-0.039095,2.922378
2025-12-31T16:18:53.699748,10.533205,-23.176880,-1.363908,0.597426,0.565661,2.897944
2025-12-31T16:18:53.708748,9.054440,-22.645674,-2.871387,1.670105,1.142317,2.828305
2025-12-31T16:18:53.718748,7.106683,-20.271994,-3.096312,2.599841,1.530827,2.601063
2025-12-31T16:18:53.728748,5.206781,-17.615959,-1.531406,2.640159,1.590692,2.223549
2025-12-31T16:18:53.737748,4.264009,-16.122837,1.115055,1.673770,1.320690,1.733635
2025-12-31T16:18:53.747748,3.933800,-16.065411,3.397808,0.125838,0.941954,1.182634
2025-12-31T16:18:53.756748,4.158725,-17.544174,3.373879,-1.607796,0.496022,0.599869
2025-12-31T16:18:53.766748,5.063212,-21.190836,0.736989,-3.285232,0.042760,-0.030543
2025-12-31T16:18:53.776748,6.848258,-26.431118,-2.177468,-4.544836,-0.421496,-0.663399
2025-12-31T16:18:53.785748,9.418149,-31.542187,-4.220939,-4.808730,-0.742811,-1.142317
2025-12-31T16:18:53.795748,11.418549,-34.260433,-6.101697,-3.687181,-0.824667,-1.610240
2025-12-31T16:18:53.805748,12.035897,-32.767311,-6.972685,-1.552819,-0.757472,-2.046398
2025-12-31T16:18:53.814748,11.341979,-27.330818,-5.608776,0.752585,-0.518013,-2.331061
2025-12-31T16:18:53.824748,9.786644,-20.458633,-2.445464,2.238209,-0.178372,-2.311513
2025-12-31T16:18:53.833748,8.216952,-14.821143,1.808973,2.427577,0.102625,-2.004859
2025-12-31T16:18:53.843748,6.934399,-11.810972,4.804787,1.519832,0.255341,-1.683544
2025-12-31T16:18:53.853748,5.398207,-13.064811,4.718646,0.111177,0.386066,-1.554040
2025-12-31T16:18:53.862748,4.713860,-12.332607,3.665804,0.561995,0.685390,-1.830151
2025-12-31T16:18:53.872748,3.632304,-7.647461,3.728017,1.297477,1.175304,-1.893681
2025-12-31T16:18:53.881748,0.468993,-2.785245,1.780260,0.720820,0.719599,-1.704313
2025-12-31T16:18:53.891748,1.344766,-3.670589,-0.167497,-1.654222,-0.386066,-2.131919
2025-12-31T16:18:53.901748,1.339980,-9.279366,-1.995614,-2.652376,-0.717155,-2.778214
2025-12-31T16:18:53.910748,2.488535,-10.212566,0.019142,-1.337794,-0.910189,-3.191159
2025-12-31T16:18:53.920748,3.460021,-9.231509,1.296909,-0.557108,-0.866206,-3.381749
2025-12-31T16:18:53.930748,4.426721,-10.025926,-0.722632,-0.313984,-0.930958,-3.646864
2025-12-31T16:18:53.939748,5.426921,-10.710273,-1.751546,0.632856,-0.871093,-3.991392
2025-12-31T16:18:53.949748,6.589833,-8.819944,-0.287138,1.937664,-0.823446,-4.295603
2025-12-31T16:18:53.958748,7.355536,-6.116054,0.851844,2.619389,-0.768468,-4.447098
2025-12-31T16:18:53.968748,7.499106,-3.972085,0.315852,2.697580,-0.755029,-4.423885
2025-12-31T16:18:53.978748,7.465606,-2.043470,-0.894915,2.593733,-0.753807,-4.343250
2025-12-31T16:18:53.987748,7.226324,-0.153140,-2.139183,2.263866,-0.713490,-4.346916
2025-12-31T16:18:53.997748,7.173682,0.971485,-2.885744,1.539380,-0.671951,-4.440989
2025-12-31T16:18:54.006748,7.384250,0.985842,-2.665604,0.605978,-0.598647,-4.524067
2025-12-31T16:18:54.016748,7.953742,0.224925,-1.488335,-0.302989,-0.487470,-4.560718
2025-12-31T16:18:54.026748,8.551947,-0.669990,-0.368494,-1.091005,-0.392175,-4.580266
2025-12-31T16:18:54.035748,9.016155,-1.478764,-0.033499,-1.694539,-0.321315,-4.603479
2025-12-31T16:18:54.045748,9.293722,-2.019542,-0.339780,-2.053728,-0.293215,-4.649905
2025-12-31T16:18:54.055748,9.681360,-2.210968,-0.320638,-2.271196,-0.280997,-4.708548
2025-12-31T16:18:54.064748,10.155139,-2.411965,-0.267996,-2.511877,-0.278554,-4.762304
2025-12-31T16:18:54.074748,10.557133,-2.589034,-0.837487,-2.725680,-0.280997,-4.824612
2025-12-31T16:18:54.083748,10.997412,-2.756531,-2.009970,-2.891835,-0.318871,-4.915020
2025-12-31T16:18:54.093748,11.605189,-3.096312,-3.058027,-3.005456,-0.377514,-5.054298
2025-12-31T16:18:54.103748,12.514462,-3.608376,-3.436093,-2.982243,-0.430049,-5.225340
2025-12-31T16:18:54.112748,13.481162,-4.187439,-3.565305,-2.765997,-0.427605,-5.354843
2025-12-31T16:18:54.122748,14.246865,-4.512863,-3.488735,-2.324952,-0.340862,-5.423260
2025-12-31T16:18:54.131748,14.668002,-4.488935,-3.215953,-1.777617,-0.153938,-5.414708
2025-12-31T16:18:54.141748,14.634503,-4.311866,-2.861815,-1.226617,0.098960,-5.313305
2025-12-31T16:18:54.151748,14.232508,-3.967299,-2.201396,-0.711046,0.392175,-5.127602
2025-12-31T16:18:54.160748,13.466805,-3.402593,-1.249053,-0.368962,0.659734,-4.884477
2025-12-31T16:18:54.170748,12.390035,-3.168097,-0.837487,-0.257785,0.856432,-4.604701
2025-12-31T16:18:54.180748,11.136196,-3.249453,-0.813559,-0.205250,0.988379,-4.321259
2025-12-31T16:18:54.189748,9.748359,-3.330809,-0.732203,-0.106290,1.067792,-4.068361
2025-12-31T16:18:54.199748,8.451449,-3.498306,-0.521635,-0.014660,1.098335,-3.826459
2025-12-31T16:18:54.208748,7.207181,-3.732803,-0.287138,0.112399,1.081231,-3.584556
2025-12-31T16:18:54.218748,5.819344,-3.809373,0.038285,0.304210,1.023809,-3.338988
2025-12-31T16:18:54.228748,4.699503,-3.852444,0.574277,0.500909,0.917519,-3.098307
2025-12-31T16:18:54.237748,3.608376,-3.814159,1.038485,0.679282,0.775798,-2.867400
2025-12-31T16:18:54.247748,2.746960,-3.909872,1.483550,0.834441,0.618195,-2.648711
2025-12-31T16:18:54.256748,2.038684,-4.153940,1.617548,0.999375,0.422718,-2.448347
2025-12-31T16:18:54.266748,1.550549,-4.398007,1.880758,1.213178,0.197920,-2.254092
2025-12-31T16:18:54.276748,1.344766,-4.378865,1.971685,1.434311,-0.051312,-2.069610
2025-12-31T16:18:54.285748,1.450050,-4.264009,2.086541,1.634675,-0.291993,-1.891238
2025-12-31T16:18:54.295748,1.660618,-3.852444,2.091326,1.800830,-0.470366,-1.704313
2025-12-31T16:18:54.305748,1.986042,-3.192025,1.923829,1.881464,-0.558330,-1.502728
2025-12-31T16:18:54.314748,2.124826,-2.507678,1.698904,1.864360,-0.542448,-1.285260
2025-12-31T16:18:54.324748,2.249253,-1.751546,1.727617,1.739743,-0.432492,-1.055574
2025-12-31T16:18:54.333748,2.268395,-1.186840,2.009970,1.453858,-0.270002,-0.818559
2025-12-31T16:18:54.343748,2.182254,-1.000199,2.249253,1.056796,-0.094073,-0.580321
2025-12-31T16:18:54.353748,1.976471,-0.880558,2.445464,0.638964,0.056199,-0.355523
2025-12-31T16:18:54.362748,1.785045,-1.182054,2.565105,0.216246,0.150272,-0.156381
2025-12-31T16:18:54.372748,1.684547,-1.641476,2.507678,-0.161268,0.166155,0.002443
2025-12-31T16:18:54.381748,1.732403,-2.167897,2.172682,-0.409279,0.107512,0.118507
2025-12-31T16:18:54.391748,2.024327,-2.612962,1.737189,-0.522900,-0.020769,0.191811
2025-12-31T16:18:54.401748,2.574677,-2.914457,1.287338,-0.563217,-0.197920,0.232128
2025-12-31T16:18:54.410748,3.168097,-3.206382,0.995414,-0.547335,-0.392175,0.244346
2025-12-31T16:18:54.420748,4.120440,-3.254238,1.014556,-0.483805,-0.564439,0.245567
2025-12-31T16:18:54.430748,5.053641,-3.225524,1.124626,-0.442266,-0.679282,0.260228
2025-12-31T16:18:54.439748,5.881557,-3.215953,1.033699,-0.417831,-0.702494,0.307876
2025-12-31T16:18:54.449748,6.637689,-3.091526,0.914058,-0.349414,-0.605978,0.399505
2025-12-31T16:18:54.458748,7.125825,-2.761317,1.196411,-0.290771,-0.390953,0.544891
2025-12-31T16:18:54.468748,7.240681,-2.330609,1.464407,-0.323758,-0.040317,0.742811
2025-12-31T16:18:54.478748,6.819544,-1.895115,1.234696,-0.439822,0.414166,0.994488
2025-12-31T16:18:54.487748,5.972485,-1.368694,0.813559,-0.561995,0.867428,1.275486
2025-12-31T16:18:54.497748,4.876572,-1.009771,0.760917,-0.745255,1.257160,1.550375
2025-12-31T16:18:54.506748,3.785445,-0.937986,1.186840,-1.020144,1.534493,1.813047
2025-12-31T16:18:54.516748,2.675175,-1.239482,1.517049,-1.303586,1.688431,2.078163
2025-12-31T16:18:54.526748,1.646261,-1.689332,1.167697,-1.521054,1.687209,2.345722
2025-12-31T16:18:54.535748,0.842273,-2.292324,0.751346,-1.665218,1.491732,2.596176
2025-12-31T16:18:54.545748,0.550349,-3.206382,0.497707,-1.728748,1.111774,2.813644
2025-12-31T16:18:54.555748,0.875773,-4.484149,0.823130,-1.613905,0.615752,2.987130
2025-12-31T16:18:54.564748,1.775474,-5.570491,1.368694,-1.259603,0.097738,3.119077
2025-12-31T16:18:54.574748,3.148954,-6.183053,1.837687,-0.718377,-0.331088,3.244915
2025-12-31T16:18:54.583748,4.713860,-6.173482,1.627119,-0.096516,-0.558330,3.385414
2025-12-31T16:18:54.593748,6.068198,-5.517848,0.655633,0.432492,-0.598647,3.560121
2025-12-31T16:18:54.603748,7.168896,-4.642075,-0.521635,0.823446,-0.559552,3.750711
2025-12-31T16:18:54.612748,8.116454,-3.517449,-1.028913,1.067792,-0.489913,3.924197
2025-12-31T16:18:54.622748,9.040083,-2.488535,-0.799202,1.082452,-0.381179,4.095239
2025-12-31T16:18:54.631748,9.786644,-2.043470,-0.373280,0.844215,-0.232128,4.279720
2025-12-31T16:18:54.641748,10.370493,-2.301895,0.038285,0.513126,-0.050090,4.471532
2025-12-31T16:18:54.651748,10.911271,-2.780459,0.497707,0.249232,0.152716,4.646240
2025-12-31T16:18:54.660748,11.284551,-3.622733,1.081555,0.080634,0.365297,4.762304
2025-12-31T16:18:54.670748,11.399406,-4.651647,1.392622,0.094073,0.602312,4.823390
2025-12-31T16:18:54.680748,11.035697,-5.077569,1.091127,0.384845,0.844215,4.863708
2025-12-31T16:18:54.689748,10.140782,-4.804787,-0.043070,0.802676,1.004262,4.893029
2025-12-31T16:18:54.699748,9.140582,-4.383651,-1.354337,1.180191,1.009149,4.879590
2025-12-31T16:18:54.708748,8.413164,-4.000799,-1.655833,1.463632,0.891863,4.814839
2025-12-31T16:18:54.718748,8.197810,-3.751945,-0.684347,1.650557,0.750142,4.732982
2025-12-31T16:18:54.728748,8.245666,-3.613162,0.789631,1.740965,0.662177,4.675561
2025-12-31T16:18:54.737748,8.427521,-3.345165,1.861615,1.676213,0.590095,4.662122
2025-12-31T16:18:54.747748,8.556733,-3.148954,2.091326,1.439198,0.465479,4.653570
2025-12-31T16:18:54.756748,8.920442,-3.330809,2.244467,1.093448,0.255341,4.608366
2025-12-31T16:18:54.766748,9.509077,-3.852444,2.402393,0.706160,0.017104,4.521623
2025-12-31T16:18:54.776748,10.231709,-4.651647,2.450250,0.370184,-0.171042,4.418998
2025-12-31T16:18:54.785748,10.777272,-5.536991,1.832902,0.076969,-0.263893,4.362798
2025-12-31T16:18:54.795748,11.073982,-6.594619,0.502492,-0.228463,-0.285884,4.372572
2025-12-31T16:18:54.805748,11.332407,-7.819744,-0.808774,-0.481361,-0.249232,4.370129
2025-12-31T16:18:54.814748,11.576475,-9.198010,-1.574477,-0.704938,-0.213802,4.337142
2025-12-31T16:18:54.824748,12.069397,-10.849057,-1.655833,-0.962723,-0.234572,4.323703
2025-12-31T16:18:54.833748,12.562318,-12.323036,-1.311266,-1.054353,-0.240680,4.328590
2025-12-31T16:18:54.843748,12.533604,-13.136596,-1.488335,-0.889419,-0.177150,4.332255
2025-12-31T16:18:54.853748,12.270394,-13.294522,-1.210768,-0.619417,-0.107512,4.304155
2025-12-31T16:18:54.862748,12.045468,-12.873385,0.248853,-0.332310,0.013439,4.208860
2025-12-31T16:18:54.872748,11.547761,-12.490533,1.521835,-0.189368,0.174707,4.090352
2025-12-31T16:18:54.881748,10.782058,-12.385249,1.421336,-0.289550,0.291993,4.018270
2025-12-31T16:18:54.891748,9.949356,-12.691531,-0.028713,-0.234572,0.372627,3.921754
2025-12-31T16:18:54.901748,9.111868,-12.806386,-1.445264,0.054977,0.411723,3.765372
2025-12-31T16:18:54.910748,8.638089,-13.557732,-2.091326,0.266337,0.399505,3.584556
2025-12-31T16:18:54.920748,8.604590,-14.878570,-1.564905,0.604756,0.445931,3.358536
2025-12-31T16:18:54.930748,8.590233,-15.620345,0.497707,1.180191,0.579100,3.109303
2025-12-31T16:18:54.939748,8.566304,-15.371492,3.498306,1.607796,0.722042,2.858848
2025-12-31T16:18:54.949748,8.159525,-14.739787,5.575276,1.701870,0.819780,2.583959
2025-12-31T16:18:54.958748,7.767102,-14.342578,6.742974,1.332907,0.774576,2.315178
2025-12-31T16:18:54.968748,7.637889,-14.825928,6.800401,0.591317,0.615752,2.031737
2025-12-31T16:18:54.978748,7.537391,-16.280764,5.292923,-0.329867,0.425162,1.711644
2025-12-31T16:18:54.987748,7.652246,-18.721443,2.598605,-1.222951,0.216246,1.350011
2025-12-31T16:18:54.997748,7.944171,-21.482761,0.435493,-1.871690,0.069638,0.880867
2025-12-31T16:18:55.006748,8.307880,-23.980867,-0.602991,-2.204001,0.076969,0.268780
2025-12-31T16:18:55.016748,8.374879,-25.923840,-0.823130,-2.254092,0.257785,-0.414166
2025-12-31T16:18:55.026748,8.355736,-27.110680,0.119641,-2.046398,0.421496,-1.088561
2025-12-31T16:18:55.035748,8.575876,-28.115665,2.148754,-2.037846,0.372627,-1.637118
2025-12-31T16:18:55.045748,9.446863,-29.288149,3.680161,-2.273639,0.017104,-2.021963
2025-12-31T16:18:55.055748,10.255637,-29.560930,3.029313,-2.020741,-0.384845,-2.302961
2025-12-31T16:18:55.064748,10.514062,-27.723242,1.368694,-1.133765,-0.575434,-2.450790
2025-12-31T16:18:55.074748,10.246066,-24.540789,0.535992,-0.218689,-0.460592,-2.400699
2025-12-31T16:18:55.083748,9.427721,-21.391834,0.607776,0.409279,-0.085521,-2.186897
2025-12-31T16:18:55.093748,8.044669,-18.195023,1.091127,0.917519,0.415388,-1.957211
