Timestamp,Acceleration_X,Acceleration_Y,Acceleration_Z,Gyro_X,Gyro_Y,Gyro_Z
2026-03-31T21:36:58.822135,2.488535,-10.576275,11.432906,-0.691499,1.144761,-0.100181
2026-03-31T21:36:58.832135,1.737189,-10.777272,12.892528,-0.580321,1.154535,0.020769
2026-03-31T21:36:58.841135,1.057627,-12.643674,13.246665,-0.564439,1.082452,0.268780
2026-03-31T21:36:58.851135,1.048056,-14.376078,14.773286,-0.590095,0.948062,0.640186
2026-03-31T21:36:58.860135,1.531406,-15.940984,15.065211,-0.592539,0.858876,1.070235
2026-03-31T21:36:58.870135,1.813759,-16.759329,14.878570,-0.547335,0.905302,1.529606
2026-03-31T21:36:58.880135,2.124826,-17.280964,14.586646,-0.519235,1.066570,2.021963
2026-03-31T21:36:58.889135,1.861615,-17.807384,14.021940,-0.520457,1.270599,2.608394
2026-03-31T21:36:58.899135,1.325623,-18.104095,12.552747,-0.476474,1.423315,3.246137
2026-03-31T21:36:58.909135,0.875773,-18.472589,11.289337,-0.378736,1.510058,3.935193
2026-03-31T21:36:58.918135,0.387637,-19.343576,10.284351,-0.185702,1.492954,4.623027
2026-03-31T21:36:58.928135,0.593420,-19.946569,9.585647,0.146607,1.365894,5.257104
2026-03-31T21:36:58.937135,1.378265,-20.190638,9.174081,0.601091,1.165530,5.809326
2026-03-31T21:36:58.947135,2.641676,-19.740786,8.973084,1.144761,0.917519,6.280915
2026-03-31T21:36:58.957135,4.388436,-18.740585,8.781658,1.645670,0.656069,6.644990
2026-03-31T21:36:58.966135,6.149554,-17.357534,7.814958,2.094045,0.411723,6.868567
2026-03-31T21:36:58.976135,7.944171,-15.854842,7.274180,2.528981,0.283441,6.928432
2026-03-31T21:36:58.985135,9.403792,-14.735001,6.264409,2.834414,0.283441,6.819698
2026-03-31T21:36:58.995135,10.585847,-14.050654,5.383850,3.060434,0.350636,6.559469
2026-03-31T21:36:59.005135,11.590832,-13.026526,5.091926,3.236363,0.425162,6.133085
2026-03-31T21:36:59.014135,12.538390,-11.638689,5.211567,3.259576,0.469144,5.584528
2026-03-31T21:36:59.024135,13.318450,-9.901499,4.599005,3.178942,0.449596,4.974885
2026-03-31T21:36:59.034135,13.797015,-8.145168,3.641875,2.951700,0.339641,4.340807
2026-03-31T21:36:59.043135,14.687145,-6.211767,2.019542,2.579072,0.235793,3.711616
2026-03-31T21:36:59.053135,15.558132,-4.895715,0.200997,2.039067,0.248011,3.103194
2026-03-31T21:36:59.062135,16.213764,-3.613162,-0.818345,1.434311,0.351858,2.516764
2026-03-31T21:36:59.072135,16.409977,-1.785045,-1.899901,0.819780,0.592539,1.982868
2026-03-31T21:36:59.082135,16.405191,0.090927,-2.244467,0.206472,0.949284,1.510058
2026-03-31T21:36:59.091135,15.060425,1.818545,-2.000399,-0.393397,1.343903,1.125213
2026-03-31T21:36:59.101135,13.122239,2.708675,-2.306680,-0.900415,1.662774,0.803898
2026-03-31T21:36:59.110135,11.284551,2.957528,-2.096112,-1.254716,1.836260,0.503352
2026-03-31T21:36:59.120135,9.073583,3.153740,-1.995614,-1.455080,1.876577,0.166155
2026-03-31T21:36:59.130135,7.173682,3.129811,-1.818545,-1.475850,1.791056,-0.219911
2026-03-31T21:36:59.139135,5.599204,3.737588,-2.397608,-1.384220,1.626122,-0.602312
2026-03-31T21:36:59.149135,4.402793,4.316651,-2.723032,-1.235169,1.391550,-1.010370
2026-03-31T21:36:59.159135,3.699303,5.096712,-3.101098,-1.091005,1.105665,-1.419650
2026-03-31T21:36:59.168135,3.421736,5.737988,-3.101098,-0.966388,0.791681,-1.809382
2026-03-31T21:36:59.178135,3.732803,6.412764,-2.732603,-0.830776,0.482583,-2.178344
2026-03-31T21:36:59.187135,4.369294,6.781259,-2.316252,-0.761137,0.195476,-2.504546
2026-03-31T21:36:59.197135,5.292923,6.594619,-1.885544,-0.723264,-0.059864,-2.801427
2026-03-31T21:36:59.207135,6.340979,6.235695,-1.411765,-0.711046,-0.252898,-3.112968
2026-03-31T21:36:59.216135,7.369893,5.613561,-1.349551,-0.703716,-0.359188,-3.446500
2026-03-31T21:36:59.226135,8.188238,5.240281,-1.287338,-0.715933,-0.376292,-3.780033
2026-03-31T21:36:59.235135,8.551947,4.776073,-1.354337,-0.759916,-0.335975,-4.120896
2026-03-31T21:36:59.245135,8.963513,4.039084,-0.937986,-0.824667,-0.273667,-4.444654
2026-03-31T21:36:59.255135,9.097511,2.928814,-0.200997,-0.927293,-0.221133,-4.702439
2026-03-31T21:36:59.264135,9.001798,1.416550,0.569491,-1.015257,-0.224798,-4.875924
2026-03-31T21:36:59.274135,9.145367,-0.598205,1.383051,-1.086118,-0.302989,-4.994433
2026-03-31T21:36:59.284135,9.513862,-3.172882,2.603390,-1.112996,-0.420275,-5.040858
2026-03-31T21:36:59.293135,10.485348,-6.192624,4.522434,-1.058018,-0.563217,-5.088506
2026-03-31T21:36:59.303135,12.021540,-9.269794,7.518248,-0.875980,-0.697607,-5.148371
2026-03-31T21:36:59.312135,14.012369,-12.241680,10.997412,-0.624304,-0.800233,-5.241222
2026-03-31T21:36:59.322135,15.577275,-15.835699,12.926027,-0.296880,-0.831998,-5.314526
2026-03-31T21:36:59.332135,16.189837,-19.817356,15.127424,0.135612,-0.810007,-5.417151
2026-03-31T21:36:59.341135,15.706487,-21.999611,16.366905,0.686612,-0.719599,-5.542990
2026-03-31T21:36:59.351135,15.012568,-22.377676,16.500904,1.347568,-0.621860,-5.685932
2026-03-31T21:36:59.360135,12.715459,-23.779869,17.175680,1.841147,-0.498465,-5.733580
2026-03-31T21:36:59.370135,10.920842,-22.679173,18.812370,2.186897,-0.410501,-5.694484
2026-03-31T21:36:59.380135,9.370293,-21.688543,20.659630,2.211331,-0.353080,-5.473351
2026-03-31T21:36:59.389135,7.322037,-19.802999,22.167109,1.859473,-0.346971,-5.076288
2026-03-31T21:36:59.399135,5.565705,-18.300306,23.176880,1.144761,-0.417831,-4.569271
2026-03-31T21:36:59.409135,4.101297,-17.003397,23.325233,0.197920,-0.481361,-3.976731
2026-03-31T21:36:59.418135,2.957528,-16.515261,22.449461,-0.799011,-0.494800,-3.345097
2026-03-31T21:36:59.428135,2.005185,-16.965113,21.032909,-1.627344,-0.433714,-2.724458
2026-03-31T21:36:59.437135,1.368694,-18.108881,18.879370,-2.129475,-0.290771,-2.117258
2026-03-31T21:36:59.447135,-0.100498,-19.080366,16.634901,-2.140471,-0.069638,-1.577253
2026-03-31T21:36:59.457135,-1.430907,-18.601803,14.438291,-1.799608,0.218689,-1.180191
2026-03-31T21:36:59.466135,-3.498306,-16.926826,12.466605,-1.304807,0.559552,-0.823446
2026-03-31T21:36:59.476135,-5.785845,-14.146367,10.724630,-0.841772,0.864984,-0.445931
2026-03-31T21:36:59.485135,-8.303094,-11.030912,9.169296,-0.542448,1.045801,-0.029321
2026-03-31T21:36:59.495135,-10.466206,-8.111668,8.154739,-0.445931,1.071457,0.448374
2026-03-31T21:36:59.505135,-12.189038,-5.862415,7.738388,-0.508239,0.879645,1.005483
2026-03-31T21:36:59.514135,-12.624532,-4.656432,7.302894,-0.615752,0.420275,1.606575
2026-03-31T21:36:59.524135,-10.992627,-4.603790,6.068198,-0.627969,-0.164933,2.222327
2026-03-31T21:36:59.534135,-8.504091,-4.656432,4.900500,-0.434935,-0.575434,2.759888
2026-03-31T21:36:59.543135,-5.982056,-4.259224,4.029513,-0.100181,-0.685390,3.187494
2026-03-31T21:36:59.553135,-4.335794,-3.948157,2.603390,0.293215,-0.592539,3.518583
2026-03-31T21:36:59.562135,-3.134597,-3.321237,1.952543,0.631634,-0.371405,3.715281
2026-03-31T21:36:59.572135,-1.995614,-2.995813,1.550549,0.880867,-0.109955,3.810576
2026-03-31T21:36:59.582135,-1.545763,-2.177468,1.914258,0.988379,0.169820,3.826459
2026-03-31T21:36:59.591135,-0.780060,-1.631905,2.756531,0.918741,0.441044,3.805689
2026-03-31T21:36:59.601135,0.019142,-1.253839,4.307080,0.706160,0.711046,3.802024
2026-03-31T21:36:59.610135,0.550349,-2.038684,5.623133,0.351858,0.955393,3.877771
2026-03-31T21:36:59.620135,0.909272,-4.106083,7.460820,-0.052534,1.128878,4.035374
2026-03-31T21:36:59.630135,1.301695,-6.345765,8.772087,-0.390953,1.200960,4.195421
2026-03-31T21:36:59.639135,1.483550,-8.671589,9.504291,-0.634077,1.180191,4.411667
2026-03-31T21:36:59.649135,2.163111,-10.581061,10.040283,-0.774576,1.102000,4.669452
2026-03-31T21:36:59.659135,3.043670,-12.820743,10.633703,-0.896749,1.010370,4.930903
2026-03-31T21:36:59.668135,4.474578,-16.376476,10.313065,-0.901636,0.956614,5.094615
2026-03-31T21:36:59.678135,6.350551,-19.094725,10.490134,-0.652403,1.037248,5.193574
2026-03-31T21:36:59.687135,8.154739,-21.798613,12.672388,-0.140498,1.233947,5.224118
2026-03-31T21:36:59.697135,9.408578,-22.210178,14.136795,0.486248,1.424537,5.163031
2026-03-31T21:36:59.707135,9.757930,-20.860626,14.002797,0.998153,1.551597,5.083619
2026-03-31T21:36:59.716135,9.729216,-17.831314,14.251651,1.220508,1.674992,4.987102
2026-03-31T21:36:59.726135,9.332008,-14.806786,13.840085,1.011592,1.865582,4.877147
2026-03-31T21:36:59.735135,8.221738,-13.064811,13.275379,0.548556,2.135584,4.759860
2026-03-31T21:36:59.745135,6.441478,-12.729816,12.480962,0.024434,2.421469,4.581488
2026-03-31T21:36:59.755135,3.981656,-13.739587,11.653046,-0.318871,2.635272,4.367685
2026-03-31T21:36:59.764135,1.167697,-15.065211,11.021340,-0.370184,2.685363,4.142887
2026-03-31T21:36:59.774135,-1.359123,-15.696916,10.293922,-0.129503,2.497216,3.819128
2026-03-31T21:36:59.784135,-3.019742,-14.682359,10.126425,0.284663,2.142914,3.426953
2026-03-31T21:36:59.793135,-3.828516,-12.595818,10.370493,0.631634,1.709200,3.016451
2026-03-31T21:36:59.803135,-3.814159,-10.135996,10.375278,0.766024,1.273042,2.647489
2026-03-31T21:36:59.812135,-3.550948,-8.039883,10.159924,0.627969,0.900415,2.360382
2026-03-31T21:36:59.822135,-3.263810,-6.742974,9.466006,0.305432,0.613308,2.117258
2026-03-31T21:36:59.832135,-3.000599,-6.068198,8.604590,-0.061086,0.375071,1.894903
2026-03-31T21:36:59.841135,-2.656033,-6.034698,7.499106,-0.375071,0.102625,1.668883
2026-03-31T21:36:59.851135,-2.024327,-6.508477,6.197410,-0.518013,-0.256563,1.444085
2026-03-31T21:36:59.860135,-0.990628,-6.762116,4.661218,-0.447153,-0.700051,1.204625
2026-03-31T21:36:59.870135,0.435493,-6.245266,3.038884,-0.200363,-1.123991,0.959058
2026-03-31T21:36:59.880135,2.038684,-5.087140,1.603191,0.100181,-1.439198,0.740368
2026-03-31T21:36:59.889135,3.416950,-3.517449,0.325423,0.365297,-1.649335,0.571769
2026-03-31T21:36:59.899135,4.694717,-1.670190,-0.780060,0.532674,-1.784947,0.434935
2026-03-31T21:36:59.909135,6.072983,0.148355,-1.574477,0.557108,-1.854586,0.337197
2026-03-31T21:36:59.918135,7.451249,1.344766,-2.589034,0.466700,-1.861916,0.246789
2026-03-31T21:36:59.928135,8.800801,2.086541,-3.474378,0.373849,-1.778839,0.078190
2026-03-31T21:36:59.937135,10.006784,2.258824,-4.517649,0.305432,-1.596801,-0.140498
2026-03-31T21:36:59.947135,10.901699,2.388036,-4.728217,0.354301,-1.336572,-0.416610
2026-03-31T21:36:59.957135,10.724630,3.029313,-5.158925,0.466700,-1.061683,-0.780685
2026-03-31T21:36:59.966135,10.317851,3.627519,-5.283352,0.593760,-0.899193,-1.215621
2026-03-31T21:36:59.976135,9.609575,5.158925,-4.445864,0.596204,-0.773355,-1.684765
2026-03-31T21:36:59.985135,8.977870,6.628118,-4.517649,0.326201,-0.774576,-2.102597
2026-03-31T21:36:59.995135,8.030312,6.953542,-4.843072,-0.094073,-0.871093,-2.460564
2026-03-31T21:37:00.005135,8.082954,7.360322,-3.708875,-0.660956,-1.015257,-2.753779
2026-03-31T21:37:00.014135,8.236095,6.178267,-3.383451,-1.254716,-1.159421,-3.017673
2026-03-31T21:37:00.024135,8.427521,4.608576,-3.201596,-1.707978,-1.302364,-3.310888
2026-03-31T21:37:00.034135,8.963513,2.440679,-2.885744,-1.885129,-1.423315,-3.660303
2026-03-31T21:37:00.043135,9.480363,0.315852,-2.254038,-1.773952,-1.489289,-4.015827
2026-03-31T21:37:00.053135,10.006784,-1.588834,-1.033699,-1.428202,-1.516167,-4.384789
2026-03-31T21:37:00.062135,10.418349,-2.665604,0.794417,-0.927293,-1.549153,-4.747643
2026-03-31T21:37:00.072135,10.691131,-3.096312,2.182254,-0.507018,-1.635896,-5.024976
2026-03-31T21:37:00.082135,11.097911,-3.144168,3.579662,-0.301767,-1.784947,-5.198461
2026-03-31T21:37:00.091135,11.911470,-3.172882,4.957928,-0.469144,-1.946216,-5.299865
2026-03-31T21:37:00.101135,12.983455,-4.149154,6.484549,-1.015257,-2.072054,-5.332852
2026-03-31T21:37:00.110135,14.572289,-6.632904,8.556733,-1.861916,-2.103819,-5.334074
2026-03-31T21:37:00.120135,16.481762,-10.844272,11.030912,-2.794097,-2.013411,-5.335295
2026-03-31T21:37:00.130135,18.041882,-16.941183,13.265808,-3.528356,-1.775174,-5.386608
2026-03-31T21:37:00.139135,18.597017,-23.856441,13.600803,-3.747046,-1.381776,-5.486790
2026-03-31T21:37:00.149135,18.841085,-29.532215,16.352549,-3.389079,-0.948062,-5.621181
2026-03-31T21:37:00.159135,18.214165,-29.431717,17.022539,-2.631606,-0.555887,-5.780005
2026-03-31T21:37:00.168135,15.342778,-32.283962,17.529818,-1.587027,-0.217467,-5.910730
2026-03-31T21:37:00.178135,12.844671,-29.149364,18.601803,-0.799011,-0.029321,-5.869191
2026-03-31T21:37:00.187135,11.255837,-26.091337,19.520645,-0.529009,-0.068416,-5.607741
2026-03-31T21:37:00.197135,10.973484,-24.425934,20.348562,-0.707381,-0.248011,-5.130044
2026-03-31T21:37:00.207135,11.619546,-24.062223,19.716858,-1.054353,-0.398284,-4.547279
2026-03-31T21:37:00.216135,12.509676,-24.119652,18.635302,-1.276708,-0.317649,-3.982840
2026-03-31T21:37:00.226135,12.619746,-23.454447,17.213964,-1.293812,0.036651,-3.514917
2026-03-31T21:37:00.235135,11.389835,-21.832113,16.266409,-1.141096,0.542448,-3.137403
2026-03-31T21:37:00.245135,8.925228,-19.731215,15.275779,-0.962723,0.996931,-2.806314
2026-03-31T21:37:00.255135,6.489334,-17.395821,14.275579,-0.784350,1.269377,-2.492329
2026-03-31T21:37:00.264135,4.278366,-15.098710,12.366107,-0.632856,1.386663,-2.162462
2026-03-31T21:37:00.274135,2.378465,-12.686745,9.939785,-0.472809,1.425759,-1.859473
2026-03-31T21:37:00.284135,0.832702,-10.207781,7.652246,-0.337197,1.464854,-1.623679
2026-03-31T21:37:00.293135,-0.636490,-7.757530,5.575276,-0.290771,1.514945,-1.445306
2026-03-31T21:37:00.303135,-2.110469,-5.881557,3.986442,-0.310319,1.547932,-1.306029
2026-03-31T21:37:00.312135,-3.416950,-4.599005,2.455035,-0.371405,1.533271,-1.180191
2026-03-31T21:37:00.322135,-4.627718,-3.866801,0.799202,-0.416610,1.459967,-1.014036
2026-03-31T21:37:00.332135,-5.804987,-3.306880,-0.803988,-0.425162,1.356120,-0.819780
2026-03-31T21:37:00.341135,-6.699903,-2.766102,-2.053041,-0.434935,1.286481,-0.631634
2026-03-31T21:37:00.351135,-7.824529,-2.392822,-2.876172,-0.430049,1.229060,-0.443488
2026-03-31T21:37:00.360135,-9.499505,-1.751546,-3.919443,-0.476474,1.175304,-0.233350
2026-03-31T21:37:00.370135,-10.987841,-1.354337,-4.340580,-0.540004,1.072679,0.018325
2026-03-31T21:37:00.380135,-12.074182,-1.186840,-2.306680,-0.646295,0.889419,0.279776
2026-03-31T21:37:00.389135,-15.141781,-1.028913,-5.335994,-0.783129,0.687834,0.511904
2026-03-31T21:37:00.399135,-15.582060,-2.172682,-3.488735,-0.855211,0.189368,0.681725
2026-03-31T21:37:00.409135,-15.792629,-2.670390,-4.149154,-0.786794,-0.401949,0.890641
2026-03-31T21:37:00.418135,-13.978869,-3.656232,-2.933600,-0.638964,-1.061683,1.155756
2026-03-31T21:37:00.428135,-11.729616,-4.139583,-2.349751,-0.475253,-1.654222,1.455080
2026-03-31T21:37:00.437135,-9.451649,-4.311866,-1.962114,-0.426383,-2.091602,1.756848
2026-03-31T21:37:00.447135,-7.274180,-4.613361,-1.258624,-0.540004,-2.340835,2.081828
2026-03-31T21:37:00.457135,-5.513063,-5.761916,0.272781,-0.851545,-2.471560,2.393369
2026-03-31T21:37:00.466135,-3.421736,-8.465806,1.660618,-1.207069,-2.519207,2.709797
2026-03-31T21:37:00.476135,-1.325623,-11.743973,3.522234,-1.472184,-2.506990,3.126407
2026-03-31T21:37:00.485135,0.368494,-16.438690,4.747360,-1.698205,-2.461786,3.567452
2026-03-31T21:37:00.495135,2.866601,-20.520845,5.661418,-1.605353,-2.262644,3.965736
2026-03-31T21:37:00.505135,4.929214,-25.253849,7.116254,-1.296255,-1.844812,4.285829
2026-03-31T21:37:00.514135,6.139982,-28.895725,10.145567,-0.780685,-1.273042,4.461758
2026-03-31T21:37:00.524135,5.733202,-30.762127,12.653245,-0.270002,-0.780685,4.664565
2026-03-31T21:37:00.534135,4.603790,-31.365118,14.222937,0.029321,-0.638964,5.027419
2026-03-31T21:37:00.543135,4.220939,-31.771898,13.969298,0.064751,-0.818559,5.430591
2026-03-31T21:37:00.553135,5.312066,-33.126236,14.778072,-0.084299,-1.069013,5.770231
2026-03-31T21:37:00.562135,7.312465,-35.791840,15.491133,-0.218689,-1.233947,6.087881
2026-03-31T21:37:00.572135,9.317651,-39.036507,15.400206,-0.089186,-1.334129,6.377431
2026-03-31T21:37:00.582135,11.203195,-41.190048,14.376078,0.441044,-1.412320,6.514265
2026-03-31T21:37:00.591135,13.107882,-40.931622,13.715659,1.292590,-1.413541,6.506935
2026-03-31T21:37:00.601135,14.380863,-38.160732,12.648460,2.168571,-1.314581,6.421414
2026-03-31T21:37:00.610135,14.964712,-33.375088,11.581261,2.851518,-1.111774,6.273584
2026-03-31T21:37:00.620135,14.998212,-28.388447,10.667203,3.219259,-0.846659,6.061003
2026-03-31T21:37:00.630135,14.572289,-23.708086,9.877571,3.295006,-0.566882,5.804439
2026-03-31T21:37:00.639135,14.060225,-19.692928,8.532805,3.181385,-0.346971,5.518555
2026-03-31T21:37:00.649135,13.371092,-15.873985,6.393621,3.033556,-0.230907,5.199683
2026-03-31T21:37:00.659135,13.002598,-11.667402,3.914657,2.933374,-0.156381,4.879590
2026-03-31T21:37:00.668135,12.289536,-7.795816,1.871187,2.763553,-0.084299,4.575379
2026-03-31T21:37:00.678135,11.925827,-4.292723,-0.153140,2.618167,0.020769,4.228408
2026-03-31T21:37:00.687135,11.341979,-0.411565,-2.244467,2.452012,0.190589,3.849671
2026-03-31T21:37:00.697135,10.303494,2.325823,-4.508077,2.238209,0.288328,3.569895
2026-03-31T21:37:00.707135,9.485148,5.005784,-5.867201,2.023185,0.306654,3.354871
2026-03-31T21:37:00.716135,8.164310,7.250252,-6.723831,1.725083,0.194255,3.172833
2026-03-31T21:37:00.726135,8.934799,5.843272,-7.800601,1.414763,-0.091629,3.018895
2026-03-31T21:37:00.735135,7.853243,9.700502,-10.150353,1.170417,-0.395840,2.847853
2026-03-31T21:37:00.745135,8.561519,7.532605,-13.706087,0.939510,-0.726929,2.565633
2026-03-31T21:37:00.755135,9.016155,9.978070,-11.011769,0.775798,-0.906523,2.205223
2026-03-31T21:37:00.764135,10.265208,9.221938,-10.475777,0.624304,-0.967610,1.698205
2026-03-31T21:37:00.774135,10.695917,8.977870,-9.470791,0.542448,-0.902858,1.066570
2026-03-31T21:37:00.784135,10.786844,8.781658,-8.571090,0.393397,-0.767246,0.371405
2026-03-31T21:37:00.793135,10.380064,8.652446,-7.255038,0.202807,-0.621860,-0.335975
2026-03-31T21:37:00.803135,9.781858,8.628518,-6.427121,-0.134390,-0.561995,-0.962723
2026-03-31T21:37:00.812135,9.427721,7.513462,-5.958128,-0.581543,-0.585208,-1.479515
2026-03-31T21:37:00.822135,9.475577,6.192624,-5.402993,-1.004262,-0.656069,-1.891238
2026-03-31T21:37:00.832135,10.064211,4.331008,-4.737788,-1.396437,-0.747698,-2.244318
2026-03-31T21:37:00.841135,10.868200,2.316252,-3.976871,-1.583362,-0.808785,-2.590068
2026-03-31T21:37:00.851135,11.705688,0.914058,-2.833101,-1.558927,-0.791681,-2.949256
2026-03-31T21:37:00.860135,12.346964,-0.559920,-1.780260,-1.417207,-0.690277,-3.273015
2026-03-31T21:37:00.870135,12.437891,-1.253839,-0.052642,-1.200960,-0.522900,-3.594330
2026-03-31T21:37:00.880135,12.232109,-1.708475,2.115255,-1.033583,-0.368962,-3.930306
2026-03-31T21:37:00.889135,11.667402,-1.861615,3.531806,-1.001818,-0.289550,-4.227186
2026-03-31T21:37:00.899135,11.428120,-2.723032,4.905286,-1.154535,-0.287106,-4.487415
2026-03-31T21:37:00.909135,11.284551,-4.326223,6.972685,-1.446528,-0.357966,-4.790404
2026-03-31T21:37:00.918135,11.447263,-6.924828,7.690531,-1.786169,-0.466700,-5.098280
2026-03-31T21:37:00.928135,12.007183,-10.370493,8.705088,-2.122145,-0.613308,-5.370726
2026-03-31T21:37:00.937135,13.146167,-15.089139,10.011569,-2.340835,-0.783129,-5.630954
2026-03-31T21:37:00.947135,14.840285,-20.358133,12.088539,-2.350608,-0.930958,-5.871635
2026-03-31T21:37:00.957135,16.548761,-25.316063,14.136795,-2.112371,-1.080009,-6.082994
2026-03-31T21:37:00.966135,19.290936,-31.336405,15.735201,-1.731191,-1.192408,-6.188063
2026-03-31T21:37:00.976135,20.027925,-33.068810,16.362120,-1.197295,-1.221730,-6.223493
2026-03-31T21:37:00.985135,21.133410,-32.599815,17.060825,-0.792902,-1.091005,-6.075664
2026-03-31T21:37:00.995135,20.142780,-29.623142,17.453247,-0.808785,-0.730594,-5.740909
2026-03-31T21:37:01.005135,18.118452,-27.646671,17.328821,-1.275486,-0.289550,-5.265657
2026-03-31T21:37:01.014135,15.610774,-27.201607,16.467405,-1.863138,0.073303,-4.717100
2026-03-31T21:37:01.024135,13.375878,-27.177679,15.017354,-2.284635,0.346971,-4.229630
2026-03-31T21:37:01.034135,11.270194,-26.445475,13.457234,-2.411695,0.592539,-3.869219
2026-03-31T21:37:01.043135,9.131011,-24.593430,11.820543,-2.326174,0.828333,-3.613877
2026-03-31T21:37:01.053135,6.953542,-22.449461,9.992427,-2.122145,1.051909,-3.401296
2026-03-31T21:37:01.062135,4.871786,-20.204994,8.231309,-1.865582,1.258382,-3.211928
2026-03-31T21:37:01.072135,2.799602,-18.147165,6.599404,-1.576031,1.429424,-3.044551
2026-03-31T21:37:01.082135,0.430708,-16.051054,4.900500,-1.249830,1.545488,-2.890613
2026-03-31T21:37:01.091135,-1.785045,-13.524233,3.349951,-0.908967,1.549153,-2.768440
2026-03-31T21:37:01.101135,-3.665804,-10.925627,1.938186,-0.636521,1.419650,-2.652376
2026-03-31T21:37:01.110135,-5.077569,-8.408378,1.014556,-0.480139,1.204625,-2.505768
2026-03-31T21:37:01.120135,-5.977270,-6.130411,0.229710,-0.477696,0.922406,-2.315178
2026-03-31T21:37:01.130135,-6.498906,-4.670789,-0.287138,-0.614530,0.602312,-2.083050
2026-03-31T21:37:01.139135,-6.388836,-4.244867,-0.717846,-0.799011,0.309097,-1.832595
2026-03-31T21:37:01.149135,-6.087340,-4.072584,-1.220339,-0.911410,0.120951,-1.588249
2026-03-31T21:37:01.159135,-5.235495,-3.890729,-1.067198,-0.916297,0.070860,-1.340238
2026-03-31T21:37:01.168135,-6.044269,-4.201796,-1.708475,-0.814894,0.169820,-1.116661
2026-03-31T21:37:01.178135,-7.408178,-3.373879,-2.445464,-0.660956,0.388510,-0.946840
2026-03-31T21:37:01.187135,-7.652246,-2.837887,-1.110269,-0.542448,0.593760,-0.781907
2026-03-31T21:37:01.197135,-7.561319,-2.062613,-0.373280,-0.491135,0.698829,-0.619417
2026-03-31T21:37:01.207135,-9.217152,-1.756331,-0.344566,-0.524122,0.703716,-0.447153
2026-03-31T21:37:01.216135,-10.490134,-1.636690,0.253639,-0.601091,0.587652,-0.290771
2026-03-31T21:37:01.226135,-10.667203,-2.091326,0.765703,-0.691499,0.372627,-0.131946
2026-03-31T21:37:01.235135,-10.035497,-2.818745,1.062413,-0.740368,0.111177,0.045204
2026-03-31T21:37:01.245135,-8.882157,-3.766302,1.373480,-0.775798,-0.147829,0.257785
2026-03-31T21:37:01.255135,-7.336394,-4.852644,1.253839,-0.802676,-0.367740,0.489913
2026-03-31T21:37:01.264135,-5.776273,-5.728417,1.258624,-0.885754,-0.496022,0.745255
2026-03-31T21:37:01.274135,-4.230510,-6.575476,1.435693,-1.061683,-0.516791,1.005483
2026-03-31T21:37:01.284135,-3.550948,-7.087540,2.000399,-1.346346,-0.415388,1.284038
2026-03-31T21:37:01.293135,-2.210968,-10.581061,2.943171,-1.716530,-0.279776,1.572366
2026-03-31T21:37:01.303135,-1.895115,-13.969298,4.110869,-1.943772,-0.175929,1.813047
2026-03-31T21:37:01.312135,-1.713260,-18.195023,5.479563,-2.045176,-0.208915,2.092823
2026-03-31T21:37:01.322135,-1.617548,-23.373091,6.604190,-2.013411,-0.408057,2.434908
2026-03-31T21:37:01.332135,-1.062413,-28.522446,7.460820,-1.881464,-0.768468,2.857626
2026-03-31T21:37:01.341135,0.598205,-33.198021,8.752945,-1.678657,-1.232725,3.315775
2026-03-31T21:37:01.351135,3.546163,-36.863823,10.279565,-1.392772,-1.631009,3.921754
2026-03-31T21:37:01.360135,5.867201,-40.572701,10.006784,-1.061683,-1.899790,4.638909
2026-03-31T21:37:01.370135,8.499305,-44.305504,9.542576,-0.503352,-2.039067,5.200905
2026-03-31T21:37:01.380135,10.681560,-46.573898,8.848657,0.430049,-2.023185,5.610185
2026-03-31T21:37:01.389135,11.863614,-46.286758,7.944171,1.639561,-2.001194,5.878965
2026-03-31T21:37:01.399135,13.217952,-43.219162,7.948956,2.823418,-2.032959,6.034125
2026-03-31T21:37:01.409135,14.275579,-38.605801,8.020741,3.640756,-2.096489,6.144081
2026-03-31T21:37:01.418135,15.653845,-34.499718,7.518248,4.028044,-2.133140,6.239376
2026-03-31T21:37:01.428135,16.476976,-30.704699,6.719045,4.180760,-2.054950,6.282136
2026-03-31T21:37:01.437135,16.893328,-27.201607,5.819344,4.190534,-1.835038,6.247928
2026-03-31T21:37:01.447135,16.582260,-23.674585,5.374279,4.150217,-1.479515,6.139194
2026-03-31T21:37:01.457135,15.634702,-20.248064,4.790430,4.070805,-1.102000,5.980369
2026-03-31T21:37:01.466135,14.376078,-16.902899,3.952942,4.012162,-0.805120,5.804439
2026-03-31T21:37:01.476135,13.074382,-13.615160,2.498106,3.946188,-0.588873,5.591859
2026-03-31T21:37:01.485135,12.232109,-10.581061,1.607976,3.897319,-0.419053,5.356065
2026-03-31T21:37:01.495135,11.542976,-7.288537,0.535992,3.913201,-0.295658,5.072623
2026-03-31T21:37:01.505135,11.021340,-4.651647,-1.052841,3.882658,-0.227241,4.811173
2026-03-31T21:37:01.514135,10.456634,-2.148754,-2.723032,3.875328,-0.172263,4.549723
2026-03-31T21:37:01.524135,10.040283,0.622133,-4.311866,3.841119,-0.128281,4.295603
2026-03-31T21:37:01.534135,9.619146,3.402593,-5.905486,3.729942,-0.109955,4.079357
2026-03-31T21:37:01.543135,9.198010,6.221338,-7.101897,3.452609,-0.161268,3.927862
2026-03-31T21:37:01.553135,9.446863,8.164310,-8.264809,3.016451,-0.266337,3.830124
2026-03-31T21:37:01.562135,10.097711,8.327022,-7.637889,2.463008,-0.372627,3.733607
2026-03-31T21:37:01.572135,11.198409,8.403592,-8.748159,2.006081,-0.477696,3.533243
2026-03-31T21:37:01.582135,10.820343,7.714460,-9.690931,1.739743,-0.508239,3.189937
2026-03-31T21:37:01.591135,12.342178,7.044469,-11.313265,1.566258,-0.442266,2.637715
2026-03-31T21:37:01.601135,13.251451,7.877171,-10.231709,1.451415,-0.218689,1.938885
2026-03-31T21:37:01.610135,13.184452,8.939585,-10.021141,1.193630,0.097738,1.264490
2026-03-31T21:37:01.620135,12.471391,9.351150,-9.370293,0.779463,0.393397,0.652403
2026-03-31T21:37:01.630135,11.653046,9.011369,-8.269594,0.256563,0.593760,0.078190
2026-03-31T21:37:01.639135,11.117053,7.566105,-6.699903,-0.257785,0.673173,-0.485026
2026-03-31T21:37:01.649135,10.992627,5.704489,-5.197210,-0.605978,0.640186,-1.094670
2026-03-31T21:37:01.659135,11.552547,4.335794,-3.622733,-0.709825,0.566882,-1.755626
2026-03-31T21:37:01.668135,12.303893,3.617947,-2.373680,-0.746477,0.530230,-2.371378
2026-03-31T21:37:01.678135,12.940384,2.794816,-1.871187,-0.816115,0.552222,-2.923600
2026-03-31T21:37:01.687135,13.428520,2.325823,-1.392622,-0.959058,0.640186,-3.428175
2026-03-31T21:37:01.697135,13.663017,1.162911,-0.622133,-1.255938,0.799011,-3.857002
2026-03-31T21:37:01.707135,13.213166,-0.646062,0.708275,-1.629788,0.951727,-4.205195
2026-03-31T21:37:01.716135,12.624532,-3.072384,1.823330,-2.064724,0.977384,-4.555831
2026-03-31T21:37:01.726135,12.337393,-6.494120,3.220739,-2.449569,0.840550,-4.946786
2026-03-31T21:37:01.735135,12.524033,-10.107282,5.455635,-2.684141,0.653625,-5.411043
2026-03-31T21:37:01.745135,13.060025,-14.007583,7.671389,-2.783101,0.492357,-5.921726
2026-03-31T21:37:01.755135,12.806386,-17.860027,9.413364,-2.643824,0.329867,-6.383540
2026-03-31T21:37:01.764135,11.916256,-21.257835,10.212566,-2.449569,0.034208,-6.753724
2026-03-31T21:37:01.774135,11.892328,-24.847069,10.935199,-2.262644,-0.410501,-7.093365
2026-03-31T21:37:01.784135,12.624532,-27.761526,13.117453,-2.233322,-0.756251,-7.364589
2026-03-31T21:37:01.793135,14.242080,-29.996424,15.069996,-2.274861,-1.047022,-7.514862
2026-03-31T21:37:01.803135,14.706287,-32.733814,16.299908,-2.389704,-1.296255,-7.428119
2026-03-31T21:37:01.812135,15.739987,-34.930424,17.462818,-2.437351,-1.445306,-7.221647
2026-03-31T21:37:01.822135,16.591831,-36.260834,17.357534,-2.367713,-1.362229,-6.922323
2026-03-31T21:37:01.832135,15.859628,-35.667412,16.821543,-2.139249,-0.970053,-6.555804
2026-03-31T21:37:01.841135,13.366307,-33.169308,15.620345,-1.907120,-0.458148,-6.139194
2026-03-31T21:37:01.851135,10.102497,-29.489145,14.562718,-1.755626,-0.046425,-5.712810
2026-03-31T21:37:01.860135,7.235895,-26.019552,12.916456,-1.744630,0.210137,-5.268100
2026-03-31T21:37:01.870135,4.857429,-22.995026,10.911271,-1.740965,0.388510,-4.814839
2026-03-31T21:37:01.880135,2.656033,-20.291136,8.930013,-1.659109,0.546113,-4.384789
2026-03-31T21:37:01.889135,0.636490,-18.453447,6.982256,-1.469741,0.742811,-4.001166
2026-03-31T21:37:01.899135,-1.708475,-16.960325,5.216353,-1.036027,0.939510,-3.661525
2026-03-31T21:37:01.909135,-4.474578,-15.026925,4.192225,-0.397062,1.010370,-3.396410
2026-03-31T21:37:01.918135,-6.891329,-12.902099,3.168097,0.268780,0.949284,-3.139846
2026-03-31T21:37:01.928135,-8.891728,-9.647860,2.651247,0.905302,0.740368,-2.827083
2026-03-31T21:37:01.937135,-10.327422,-6.393621,2.531606,1.251051,0.430049,-2.476447
2026-03-31T21:37:01.947135,-11.117053,-4.359722,1.545763,1.313359,0.078190,-2.056171
2026-03-31T21:37:01.957135,-11.322836,-2.488535,0.708275,1.165530,-0.274889,-1.549153
2026-03-31T21:37:01.966135,-11.452048,-2.268395,-0.110069,0.906523,-0.532674,-1.043357
2026-03-31T21:37:01.976135,-11.140982,-2.541177,-0.540777,0.693942,-0.641408,-0.647517
2026-03-31T21:37:01.985135,-7.575676,-2.995813,0.454636,0.597426,-0.560774,-0.366519
2026-03-31T21:37:01.995135,-11.241480,-3.359522,0.105284,0.554665,-0.324980,-0.156381
2026-03-31T21:37:02.005135,-11.399406,-3.230310,0.220139,0.575434,-0.174707,-0.024434
2026-03-31T21:37:02.014135,-11.423335,-3.048455,0.607776,0.494800,-0.108733,0.085521
2026-03-31T21:37:02.024135,-10.997412,-3.096312,1.244267,0.291993,-0.086742,0.194255
2026-03-31T21:37:02.034135,-9.714859,-3.651447,2.100898,0.008552,-0.106290,0.340862
2026-03-31T21:37:02.043135,-7.992027,-5.034498,2.636890,-0.291993,-0.078190,0.575434
2026-03-31T21:37:02.053135,-6.695117,-6.838686,3.077169,-0.492357,-0.025656,0.857654
2026-03-31T21:37:02.062135,-5.221138,-9.040083,3.565305,-0.597426,0.053756,1.145982
2026-03-31T21:37:02.072135,-3.929014,-10.523633,4.144368,-0.614530,0.155159,1.447750
2026-03-31T21:37:02.082135,-2.421536,-11.222337,4.776073,-0.641408,0.249232,1.778839
2026-03-31T21:37:02.091135,-1.832902,-12.284751,5.536991,-0.781907,0.368962,2.133140
2026-03-31T21:37:02.101135,-1.038485,-13.782658,6.120840,-1.070235,0.519235,2.488664
2026-03-31T21:37:02.110135,-0.851844,-16.189837,7.389036,-1.457524,0.658512,2.834414
2026-03-31T21:37:02.120135,-0.885344,-19.692928,8.877371,-1.814269,0.737925,3.160616
2026-03-31T21:37:02.130135,-1.009771,-24.263222,10.633703,-2.045176,0.714712,3.525913
2026-03-31T21:37:02.139135,-0.612562,-28.929226,13.237094,-2.096489,0.554665,3.954740
2026-03-31T21:37:02.149135,0.177068,-33.705299,13.954941,-1.915672,0.265115,4.516736
2026-03-31T21:37:02.159135,0.751346,-38.806797,14.175081,-1.456302,-0.243124,5.050632
2026-03-31T21:37:02.168135,3.517449,-42.381672,16.295120,-0.634077,-0.791681,5.492899
2026-03-31T21:37:02.178135,6.163911,-44.439503,15.601203,0.376292,-1.224173,5.902178
2026-03-31T21:37:02.187135,8.944370,-44.300716,14.907284,1.580918,-1.562592,6.197837
2026-03-31T21:37:02.197135,11.174481,-41.290546,14.266008,2.733010,-1.771508,6.355440
2026-03-31T21:37:02.207135,12.758530,-37.500317,13.596018,3.590665,-1.877799,6.422635
2026-03-31T21:37:02.216135,13.878371,-32.786453,12.303893,4.097683,-1.953546,6.407975
2026-03-31T21:37:02.226135,14.438291,-28.594231,10.394421,4.263838,-1.937664,6.312680
2026-03-31T21:37:02.235135,15.036497,-24.760927,9.064012,4.266281,-1.846034,6.123311
2026-03-31T21:37:02.245135,15.290136,-21.018553,7.302894,4.162434,-1.727526,5.883852
2026-03-31T21:37:02.255135,15.270993,-16.878969,4.991427,4.008496,-1.617570,5.568646
2026-03-31T21:37:02.264135,15.515061,-13.160524,3.139383,3.777589,-1.407433,5.191132
2026-03-31T21:37:02.274135,15.366706,-9.140582,0.923629,3.494148,-1.051909,4.791625
2026-03-31T21:37:02.284135,14.912070,-5.656632,-1.454836,3.114190,-0.566882,4.458093
2026-03-31T21:37:02.293135,13.931013,-2.962314,-3.168097,2.736675,-0.059864,4.184426
2026-03-31T21:37:02.303135,12.433106,-0.468993,-4.618147,2.406808,0.349414,3.944966
2026-03-31T21:37:02.312135,10.849057,1.732403,-6.005984,2.116036,0.555887,3.766594
2026-03-31T21:37:02.322135,8.614161,3.948157,-5.828915,1.861916,0.548556,3.622430
2026-03-31T21:37:02.332135,9.413364,3.201596,-5.723631,1.665218,0.344527,3.485596
2026-03-31T21:37:02.341135,9.662217,6.470192,-9.997212,1.437976,0.059864,3.276680
2026-03-31T21:37:02.351135,11.169695,6.666403,-9.777073,1.341459,-0.079412,2.913826
2026-03-31T21:37:02.360135,11.217552,8.063812,-10.389635,1.233947,-0.061086,2.445903
2026-03-31T21:37:02.370135,11.921042,8.135596,-9.777073,0.970053,0.058643,1.853364
2026-03-31T21:37:02.380135,11.571690,8.934799,-9.638289,0.752585,0.246789,1.202182
2026-03-31T21:37:02.389135,10.724630,9.274580,-9.298508,0.406836,0.417831,0.540004
2026-03-31T21:37:02.399135,9.753144,9.308079,-8.786444,0.009773,0.519235,-0.117286
2026-03-31T21:37:02.409135,8.633303,9.188438,-8.068597,-0.480139,0.536339,-0.706160
2026-03-31T21:37:02.418135,7.829315,8.068597,-7.494320,-1.011592,0.452040,-1.202182
2026-03-31T21:37:02.428135,7.374679,6.178267,-6.690331,-1.489289,0.279776,-1.628566
2026-03-31T21:37:02.437135,7.350751,3.574876,-6.015556,-1.780060,0.050090,-2.047619
2026-03-31T21:37:02.447135,7.824529,1.153340,-5.005784,-1.777617,-0.189368,-2.494773
2026-03-31T21:37:02.457135,8.408378,-0.646062,-3.924229,-1.579697,-0.405614,-2.937039
2026-03-31T21:37:02.466135,8.910871,-1.933400,-3.163311,-1.231504,-0.598647,-3.356092
2026-03-31T21:37:02.476135,9.470791,-2.431107,-2.053041,-0.864984,-0.768468,-3.736051
2026-03-31T21:37:02.485135,9.801001,-2.507678,-1.272981,-0.640186,-0.915075,-4.034153
2026-03-31T21:37:02.495135,10.403992,-2.584248,-0.062213,-0.603534,-1.065348,-4.244290
2026-03-31T21:37:02.505135,11.207981,-3.072384,1.741974,-0.831998,-1.209512,-4.389676
2026-03-31T21:37:02.514135,12.433106,-4.637290,3.527020,-1.214399,-1.328020,-4.526510
2026-03-31T21:37:02.524135,14.232508,-7.728816,4.996213,-1.615127,-1.409876,-4.736648
2026-03-31T21:37:02.534135,15.022140,-9.748359,7.178467,-2.017076,-1.448972,-5.026198
2026-03-31T21:37:02.543135,16.060625,-13.208380,9.604789,-2.266309,-1.461189,-5.335295
2026-03-31T21:37:02.553135,17.376677,-16.386049,11.839686,-2.441016,-1.503949,-5.571089
2026-03-31T21:37:02.562135,18.668800,-19.530218,14.222937,-2.597398,-1.620014,-5.732358
2026-03-31T21:37:02.572135,20.315063,-23.100309,13.409377,-2.730567,-1.700648,-5.823987
2026-03-31T21:37:02.582135,22.449461,-26.335405,15.462419,-2.863735,-1.470963,-5.869191
2026-03-31T21:37:02.591135,22.770100,-27.986452,15.845271,-2.868622,-0.926071,-5.900956
2026-03-31T21:37:02.601135,21.305693,-29.053652,17.027325,-2.813644,-0.274889,-5.858196
2026-03-31T21:37:02.610135,19.013369,-29.422146,17.860027,-2.801427,0.252898,-5.733580
2026-03-31T21:37:02.620135,16.658831,-29.359934,17.749958,-2.803870,0.597426,-5.523442
2026-03-31T21:37:02.630135,14.395220,-29.168507,17.166109,-2.774549,0.834441,-5.235114
2026-03-31T21:37:02.639135,12.160324,-27.943382,15.979269,-2.664593,1.029918,-4.944341
2026-03-31T21:37:02.649135,10.040283,-26.201406,14.452648,-2.539977,1.210734,-4.671896
2026-03-31T21:37:02.659135,7.929814,-24.134008,12.859028,-2.390926,1.423315,-4.409224
2026-03-31T21:37:02.668135,5.824130,-21.913469,10.844272,-2.235766,1.688431,-4.145330
2026-03-31T21:37:02.678135,3.704089,-19.913069,8.930013,-2.074497,1.953546,-3.858224
2026-03-31T21:37:02.687135,1.339980,-18.142380,7.317251,-1.868025,2.243096,-3.572339
2026-03-31T21:37:02.697135,-0.957129,-15.974483,5.886343,-1.606575,2.438573,-3.293784
2026-03-31T21:37:02.707135,-3.933800,-14.237294,4.637290,-1.287703,2.552194,-2.968804
2026-03-31T21:37:02.716135,-6.293123,-12.145967,3.464807,-0.943175,2.508212,-2.662150
2026-03-31T21:37:02.726135,-8.595018,-9.958927,2.191825,-0.602312,2.338391,-2.313957
2026-03-31T21:37:02.735135,-10.542776,-7.977670,0.861416,-0.346971,2.059837,-1.923003
2026-03-31T21:37:02.745135,-11.949756,-6.187839,-0.239282,-0.202807,1.678657,-1.511280
2026-03-31T21:37:02.755135,-12.236894,-4.713860,-1.177268,-0.131946,1.280373,-1.095892
2026-03-31T21:37:02.764135,-8.982656,-3.115455,-0.296710,-0.116064,0.937067,-0.684168
2026-03-31T21:37:02.774135,-12.380464,-3.029313,-2.450250,-0.141720,0.757472,-0.266337
2026-03-31T21:37:02.784135,-11.978469,-3.168097,-2.306680,-0.173485,0.580321,0.087964
2026-03-31T21:37:02.793135,-11.734402,-3.522234,-2.512463,-0.186924,0.529009,0.367740
2026-03-31T21:37:02.803135,-11.375478,-3.072384,-2.593819,-0.180816,0.439822,0.566882
2026-03-31T21:37:02.812135,-10.633703,-3.029313,-1.450050,-0.152716,0.365297,0.711046
2026-03-31T21:37:02.822135,-10.289137,-3.153740,-1.603191,-0.175929,0.268780,0.825889
2026-03-31T21:37:02.832135,-9.226723,-3.383451,-0.780060,-0.267558,0.141720,0.951727
2026-03-31T21:37:02.841135,-8.087740,-3.890729,-0.028713,-0.434935,-0.014660,1.139874
2026-03-31T21:37:02.851135,-6.996613,-5.082355,0.105284,-0.647517,-0.156381,1.400102
2026-03-31T21:37:02.860135,-5.910271,-6.848258,0.378065,-0.860098,-0.263893,1.676213
2026-03-31T21:37:02.870135,-4.867001,-8.858229,0.698704,-1.015257,-0.342084,1.924225
2026-03-31T21:37:02.880135,-3.909872,-10.614561,1.292124,-1.102000,-0.406836,2.180788
2026-03-31T21:37:02.889135,-2.991028,-12.313465,2.096112,-1.191186,-0.453261,2.453234
2026-03-31T21:37:02.899135,-2.287538,-14.065011,2.947957,-1.326799,-0.472809,2.709797
2026-03-31T21:37:02.909135,-2.062613,-16.141981,3.594019,-1.529606,-0.460592,2.941926
2026-03-31T21:37:02.918135,-2.402393,-18.496517,4.484149,-1.778839,-0.453261,3.152063
2026-03-31T21:37:02.928135,-3.311666,-21.320049,4.953142,-2.069610,-0.507018,3.332880
2026-03-31T21:37:02.937135,-4.517649,-24.904497,5.661418,-2.311513,-0.695164,3.527135
2026-03-31T21:37:02.947135,-5.144568,-29.613571,7.159325,-2.497216,-1.045801,3.789807
2026-03-31T21:37:02.957135,-4.723431,-36.270405,8.666803,-2.453234,-1.607796,4.070805
2026-03-31T21:37:02.966135,-2.048256,-43.491943,11.480762,-1.782504,-2.328617,4.313929
2026-03-31T21:37:02.976135,1.579262,-48.349373,12.098111,-0.494800,-3.141068,4.587596
2026-03-31T21:37:02.985135,6.857829,-49.153362,11.337193,1.154535,-3.938858,4.783073
2026-03-31T21:37:02.995135,12.179467,-44.855850,10.346564,2.637715,-4.395785,4.922351
2026-03-31T21:37:03.005135,16.491333,-39.625141,9.456434,3.450166,-4.387233,5.087284
2026-03-31T21:37:03.014135,20.061424,-35.078777,8.303094,3.759263,-3.920532,5.161810
2026-03-31T21:37:03.024135,21.363119,-31.379475,8.116454,3.846006,-3.059212,5.281539
2026-03-31T21:37:03.034135,20.219351,-27.287748,8.102097,3.899762,-2.205223,5.255883
2026-03-31T21:37:03.043135,17.869598,-22.851456,7.623532,3.900984,-1.590692,5.054298
2026-03-31T21:37:03.053135,15.543775,-19.295721,5.972485,3.864332,-1.219286,4.829499
2026-03-31T21:37:03.062135,13.284951,-15.337992,5.259424,3.737272,-1.075122,4.614475
2026-03-31T21:37:03.072135,12.490533,-12.155538,3.115455,3.546682,-1.076344,4.422663
2026-03-31T21:37:03.082135,12.552747,-9.963713,1.162911,3.299893,-1.049466,4.276055
2026-03-31T21:37:03.091135,12.796815,-7.604390,-0.306281,3.076316,-0.886976,4.159991
2026-03-31T21:37:03.101135,12.337393,-5.828915,-2.187039,2.886948,-0.653625,4.085465
2026-03-31T21:37:03.110135,12.471391,-4.235296,-4.804787,2.776992,-0.465479,4.015827
2026-03-31T21:37:03.120135,12.696316,-2.115255,-7.030112,2.745227,-0.400727,3.942523
2026-03-31T21:37:03.130135,13.691730,1.076770,-9.178867,2.674367,-0.361632,3.852115
2026-03-31T21:37:03.139135,13.428520,3.043670,-9.839286,2.541198,-0.263893,3.772702
2026-03-31T21:37:03.149135,13.701302,5.570491,-11.303693,2.296852,-0.153938,3.681073
2026-03-31T21:37:03.159135,13.313664,7.393821,-12.260823,1.923003,0.002443,3.546682
2026-03-31T21:37:03.168135,12.859028,9.030512,-12.844671,1.534493,0.172263,3.313332
2026-03-31T21:37:03.178135,12.150753,10.116853,-12.557533,0.938288,0.284663,2.965139
2026-03-31T21:37:03.187135,11.279765,11.504691,-11.547761,0.313984,0.346971,2.432464
2026-03-31T21:37:03.197135,10.365707,12.586246,-11.093125,-0.427605,0.371405,1.839925
2026-03-31T21:37:03.207135,9.121439,13.107882,-10.643274,-1.260825,0.311541,1.284038
2026-03-31T21:37:03.216135,7.987241,12.902099,-10.805986,-2.156353,0.160046,0.789237
2026-03-31T21:37:03.226135,7.929814,12.490533,-10.021141,-2.990795,-0.074525,0.316428
2026-03-31T21:37:03.235135,7.886743,11.198409,-9.485148,-3.641977,-0.343306,-0.173485
2026-03-31T21:37:03.245135,8.475377,9.413364,-8.389236,-4.083022,-0.575434,-0.741590
2026-03-31T21:37:03.255135,9.245866,7.446463,-6.996613,-4.243069,-0.708603,-1.385442
2026-03-31T21:37:03.264135,9.777073,4.311866,-5.675775,-4.108678,-0.713490,-2.085493
2026-03-31T21:37:03.274135,10.217352,0.813559,-4.273581,-3.615099,-0.625525,-2.852740
2026-03-31T21:37:03.284135,10.351350,-2.474178,-2.526820,-2.792875,-0.467922,-3.641977
2026-03-31T21:37:03.293135,9.533005,-4.460221,-0.713061,-1.732413,-0.313984,-4.408002
2026-03-31T21:37:03.303135,9.097511,-5.383850,0.952343,-0.722042,-0.310319,-5.104388
2026-03-31T21:37:03.312135,8.839086,-5.402993,2.919243,-0.171042,-0.530230,-5.577198
2026-03-31T21:37:03.322135,9.858429,-4.962714,6.178267,-0.443488,-0.957836,-5.821544
2026-03-31T21:37:03.332135,13.581661,-5.862415,8.896514,-1.481958,-1.463632,-5.941274
2026-03-31T21:37:03.341135,17.802601,-9.437292,11.054840,-2.946813,-1.739743,-5.787336
2026-03-31T21:37:03.351135,22.683958,-17.156538,11.375478,-4.434880,-1.701870,-5.516111
2026-03-31T21:37:03.360135,27.756742,-28.886154,8.159525,-5.440365,-1.185078,-5.452581
2026-03-31T21:37:03.370135,31.752754,-36.681969,7.412964,-5.440365,0.008552,-5.604076
2026-03-31T21:37:03.380135,28.182665,-48.425941,7.637889,-4.251621,1.555262,-5.826431
2026-03-31T21:37:03.389135,20.894127,-47.353958,8.958727,-2.390926,2.548529,-6.039012
2026-03-31T21:37:03.399135,14.443077,-39.711285,9.891928,-1.043357,2.773327,-6.103764
2026-03-31T21:37:03.409135,10.604989,-32.073395,11.097911,-0.696386,2.497216,-5.982812
2026-03-31T21:37:03.418135,9.073583,-27.268606,11.475977,-1.214399,2.052506,-5.564980
2026-03-31T21:37:03.428135,8.398807,-25.076780,10.786844,-2.057393,1.649335,-4.922351
2026-03-31T21:37:03.437135,8.504091,-24.521646,9.609575,-2.789210,1.385442,-4.280942
2026-03-31T21:37:03.447135,8.518448,-24.406790,8.461020,-3.119077,1.352455,-3.764150
2026-03-31T21:37:03.457135,8.188238,-23.918653,7.494320,-2.987130,1.551597,-3.424509
2026-03-31T21:37:03.466135,6.848258,-23.277378,6.116054,-2.497216,1.930333,-3.202154
2026-03-31T21:37:03.476135,4.622933,-21.717257,5.206781,-1.682322,2.387260,-3.081203
2026-03-31T21:37:03.485135,1.923829,-18.759729,4.685146,-0.803898,2.811201,-3.017673
2026-03-31T21:37:03.495135,-1.282552,-15.304493,3.981656,-0.035430,3.128851,-2.938261
2026-03-31T21:37:03.505135,-4.646861,-11.609975,3.120240,0.546113,3.280345,-2.780657
2026-03-31T21:37:03.514135,-7.881957,-7.963313,2.574677,0.851545,3.235141,-2.531425
2026-03-31T21:37:03.524135,-11.002198,-4.618147,2.349751,0.858876,2.916270,-2.205223
2026-03-31T21:37:03.534135,-12.404392,-2.426322,2.474178,0.520457,2.379930,-1.777617
2026-03-31T21:37:03.543135,-12.949955,-1.761117,1.880758,0.050090,1.698205,-1.237612
2026-03-31T21:37:03.553135,-1.942971,-3.163311,0.172283,-0.372627,1.093448,-0.680503
2026-03-31T21:37:03.562135,-10.849057,-4.110869,-0.449850,-0.552222,0.797789,-0.180816
2026-03-31T21:37:03.572135,-9.954142,-6.082555,-1.751546,-0.393397,0.700051,0.133168
2026-03-31T21:37:03.582135,-10.250852,-6.589833,-2.986242,0.035430,0.747698,0.276111
2026-03-31T21:37:03.591135,-9.317651,-5.546562,-2.756531,0.521678,0.797789,0.300545
2026-03-31T21:37:03.601135,-10.341779,-4.149154,-2.522035,0.807563,0.781907,0.295658
2026-03-31T21:37:03.610135,-10.499705,-2.727817,-2.254038,0.811228,0.616973,0.394618
2026-03-31T21:37:03.620135,-10.269994,-2.402393,-2.172682,0.541226,0.294436,0.627969
2026-03-31T21:37:03.630135,-9.255437,-3.431307,-2.541177,0.160046,-0.103847,0.926071
2026-03-31T21:37:03.639135,-7.963313,-5.283352,-3.000599,-0.142942,-0.455705,1.240056
2026-03-31T21:37:03.649135,-6.733402,-7.594818,-3.249453,-0.239459,-0.733038,1.521054
2026-03-31T21:37:03.659135,-5.599204,-9.365507,-2.828316,-0.127059,-0.963945,1.792278
2026-03-31T21:37:03.668135,-4.374079,-10.676774,-1.986042,0.062308,-1.203404,2.050063
2026-03-31T21:37:03.678135,-3.000599,-11.796615,-1.067198,0.229685,-1.439198,2.332282
2026-03-31T21:37:03.687135,-1.799402,-13.002598,0.148355,0.279776,-1.646892,2.625498
2026-03-31T21:37:03.697135,-0.339780,-14.916856,1.646261,0.106290,-1.814269,2.968804
2026-03-31T21:37:03.707135,0.722632,-17.592031,2.713460,-0.139277,-1.874134,3.252245
2026-03-31T21:37:03.716135,1.440479,-21.497118,4.297509,-0.480139,-1.849699,3.512474
2026-03-31T21:37:03.726135,2.048256,-25.899912,6.068198,-0.766024,-1.803273,3.783698
2026-03-31T21:37:03.735135,2.388036,-30.451059,7.642675,-1.032362,-1.825264,4.118452
2026-03-31T21:37:03.745135,2.522035,-35.796627,7.283751,-1.186300,-1.999972,4.555831
2026-03-31T21:37:03.755135,3.799802,-41.204407,7.350751,-0.995710,-2.326174,4.967555
2026-03-31T21:37:03.764135,6.407978,-44.989849,8.154739,-0.381179,-2.648711,5.323078
2026-03-31T21:37:03.774135,9.116654,-46.229332,7.513462,0.544891,-2.864957,5.628510
2026-03-31T21:37:03.784135,11.777472,-44.257645,6.575476,1.645670,-2.883283,5.754349
2026-03-31T21:37:03.793135,14.160724,-40.888554,6.886543,2.704910,-2.599841,5.714032
2026-03-31T21:37:03.803135,14.969498,-36.375690,6.881757,3.562565,-2.163684,5.556429
2026-03-31T21:37:03.812135,14.605789,-30.972694,6.608976,4.153882,-1.784947,5.353621
2026-03-31T21:37:03.822135,14.208580,-24.885355,6.163911,4.395785,-1.486845,5.137375
2026-03-31T21:37:03.832135,13.926227,-19.836498,5.771488,4.251621,-1.167974,4.987102
2026-03-31T21:37:03.841135,13.409377,-15.845271,5.178068,3.878993,-0.812450,4.868595
2026-03-31T21:37:03.851135,12.902099,-12.873385,4.402793,3.418401,-0.434935,4.792847
2026-03-31T21:37:03.860135,12.016755,-9.772287,3.158525,3.003012,-0.095294,4.714656
2026-03-31T21:37:03.870135,11.274980,-7.494320,2.416750,2.597398,0.240680,4.604701
2026-03-31T21:37:03.880135,10.035497,-5.221138,1.493121,2.309070,0.604756,4.450763
2026-03-31T21:37:03.889135,8.303094,-3.503092,0.224925,2.059837,0.827111,4.317594
2026-03-31T21:37:03.899135,6.886543,-2.258824,-1.440479,1.915672,0.744033,4.150217
2026-03-31T21:37:03.909135,6.101697,-0.617348,-3.239881,1.901012,0.404392,3.867997
2026-03-31T21:37:03.918135,7.015755,1.033699,-4.230510,1.855808,-0.023212,3.573560
2026-03-31T21:37:03.928135,7.948956,2.187039,-4.804787,1.857029,-0.322536,3.342653
2026-03-31T21:37:03.937135,8.776873,2.976671,-5.958128,1.864360,-0.536339,3.194824
2026-03-31T21:37:03.947135,10.590632,4.211367,-7.231109,1.916894,-0.686612,3.045773
2026-03-31T21:37:03.957135,11.485548,5.838487,-7.910671,1.976759,-0.762359,2.806314
2026-03-31T21:37:03.966135,12.624532,6.723831,-8.930013,1.924225,-0.715933,2.434908
2026-03-31T21:37:03.976135,13.237094,8.767302,-9.083154,1.759291,-0.546113,1.876577
2026-03-31T21:37:03.985135,13.505090,10.461420,-8.949156,1.392772,-0.313984,1.208291
2026-03-31T21:37:03.995135,13.203595,11.021340,-8.475377,0.872315,-0.083077,0.544891
2026-03-31T21:37:04.005135,12.744173,11.212766,-7.695317,0.256563,0.065973,-0.102625
2026-03-31T21:37:04.014135,11.691331,9.801001,-7.470392,-0.357966,0.173485,-0.702494
2026-03-31T21:37:04.024135,10.762916,7.838886,-6.589833,-0.751364,0.252898,-1.229060
2026-03-31T21:37:04.034135,9.695717,5.972485,-5.417350,-0.880867,0.270002,-1.750739
2026-03-31T21:37:04.043135,8.662017,4.804787,-4.273581,-0.825889,0.194255,-2.295631
2026-03-31T21:37:04.053135,7.814958,4.125226,-3.105883,-0.673173,0.019547,-2.820975
2026-03-31T21:37:04.062135,7.470392,3.871586,-1.483550,-0.509461,-0.229685,-3.304780
2026-03-31T21:37:04.072135,7.719245,3.584448,0.373280,-0.392175,-0.509461,-3.748268
2026-03-31T21:37:04.082135,8.355736,3.048455,1.871187,-0.401949,-0.789237,-4.127004
2026-03-31T21:37:04.091135,9.389435,2.282752,2.842673,-0.509461,-1.014036,-4.475197
2026-03-31T21:37:04.101135,10.380064,0.669990,3.340380,-0.794124,-1.156978,-4.769634
2026-03-31T21:37:04.110135,11.514262,-1.507478,4.359722,-1.208291,-1.215621,-5.064072
2026-03-31T21:37:04.120135,12.988241,-4.632504,6.096911,-1.720196,-1.222951,-5.359730
2026-03-31T21:37:04.130135,14.543575,-9.092725,7.776673,-2.261422,-1.171639,-5.580863
2026-03-31T21:37:04.139135,16.577475,-13.701302,11.351550,-2.725680,-1.093448,-5.736023
2026-03-31T21:37:04.149135,17.548960,-20.597416,12.126824,-3.065321,-1.076344,-5.877744
2026-03-31T21:37:04.159135,18.640087,-26.153551,11.595618,-3.045773,-1.123991,-6.023129
2026-03-31T21:37:04.168135,21.195621,-30.479774,12.772887,-2.912604,-1.033583,-6.206389
2026-03-31T21:37:04.178135,21.109480,-31.934610,11.571690,-2.629163,-0.685390,-6.422635
2026-03-31T21:37:04.187135,19.922640,-30.455847,12.007183,-2.464229,-0.233350,-6.476391
2026-03-31T21:37:04.197135,17.481960,-28.709085,12.524033,-2.713462,0.118507,-6.324897
2026-03-31T21:37:04.207135,15.577275,-28.618158,12.600603,-3.226589,0.251676,-5.991365
2026-03-31T21:37:04.216135,14.500504,-29.919853,12.476177,-3.650529,0.300545,-5.562538
2026-03-31T21:37:04.226135,13.538590,-31.264620,11.251051,-3.739716,0.365297,-5.158144
2026-03-31T21:37:04.235135,12.145967,-31.020552,10.274780,-3.423288,0.536339,-4.808730
2026-03-31T21:37:04.245135,10.212566,-29.001009,9.815358,-2.922378,0.794124,-4.506962
2026-03-31T21:37:04.255135,7.791030,-26.459831,9.035298,-2.431243,1.059240,-4.206417
2026-03-31T21:37:04.264135,5.259424,-23.636301,8.413164,-1.996307,1.290147,-3.888767
2026-03-31T21:37:04.274135,2.995813,-21.047268,7.393821,-1.649335,1.474628,-3.574782
2026-03-31T21:37:04.284135,0.382851,-18.664017,6.738188,-1.287703,1.640783,-3.248580
2026-03-31T21:37:04.293135,-2.167897,-16.242479,6.049055,-0.943175,1.718974,-2.919935
2026-03-31T21:37:04.303135,-4.646861,-13.940584,5.407779,-0.549778,1.665218,-2.558303
2026-03-31T21:37:04.312135,-6.350551,-11.203195,4.804787,-0.219911,1.397659,-2.204001
2026-03-31T21:37:04.322135,-7.302894,-9.293722,3.627519,0.058643,1.040914,-1.832595
2026-03-31T21:37:04.332135,-7.475177,-7.044469,2.785245,0.260228,0.737925,-1.433089
2026-03-31T21:37:04.341135,-7.417750,-5.623133,1.741974,0.354301,0.579100,-1.059240
2026-03-31T21:37:04.351135,-7.556533,-4.024727,0.947557,0.426383,0.627969,-0.733038
2026-03-31T21:37:04.360135,-8.461020,-3.383451,0.483350,0.401949,0.785572,-0.434935
2026-03-31T21:37:04.370135,-9.791430,-2.857030,-0.114855,0.414166,0.932180,-0.185702
2026-03-31T21:37:04.380135,-10.772487,-2.368894,-0.124426,0.403170,0.984714,0.006108
2026-03-31T21:37:04.389135,-11.763115,-1.875972,-0.129212,0.370184,0.917519,0.101403
2026-03-31T21:37:04.399135,-12.179467,-1.823330,-0.224925,0.326201,0.726929,0.127059
2026-03-31T21:37:04.409135,-9.087940,-1.875972,0.167497,0.251676,0.452040,0.160046
2026-03-31T21:37:04.418135,-9.652646,-1.986042,-0.023928,0.136833,0.243124,0.261450
2026-03-31T21:37:04.428135,-7.814958,-2.799602,0.105284,-0.058643,0.072082,0.408057
2026-03-31T21:37:04.437135,-6.068198,-3.919443,0.258424,-0.291993,0.031764,0.572991
2026-03-31T21:37:04.447135,-4.661218,-5.029713,0.531206,-0.513126,0.068416,0.773355
2026-03-31T21:37:04.457135,-3.929014,-6.719045,0.880558,-0.681725,0.096516,1.031140
2026-03-31T21:37:04.466135,-3.263810,-8.394021,1.406979,-0.818559,0.043982,1.320690
2026-03-31T21:37:04.476135,-2.593819,-10.427920,2.120040,-0.952949,-0.081855,1.677435
2026-03-31T21:37:04.485135,-1.330409,-12.538390,3.507877,-1.084896,-0.252898,2.089158
2026-03-31T21:37:04.495135,-0.033499,-14.969498,4.469792,-1.280373,-0.415388,2.552194
2026-03-31T21:37:04.505135,0.521635,-19.755142,4.666004,-1.481958,-0.530230,3.021338
2026-03-31T21:37:04.514135,1.574477,-23.550159,5.642275,-1.495397,-0.521678,3.429396
2026-03-31T21:37:04.524135,1.459621,-28.967510,6.015556,-1.415985,-0.455705,3.784920
2026-03-31T21:37:04.534135,0.253639,-33.935009,7.269395,-1.353677,-0.491135,4.152661
2026-03-31T21:37:04.543135,-0.631705,-39.361931,7.044469,-1.255938,-0.817337,4.613253
2026-03-31T21:37:04.553135,-0.430708,-44.233719,7.910671,-1.009149,-1.413541,5.120271
2026-03-31T21:37:04.562135,1.976471,-47.665028,9.757930,-0.669508,-2.018298,5.604076
2026-03-31T21:37:04.572135,4.168296,-49.708496,9.174081,-0.061086,-2.452012,6.103764
2026-03-31T21:37:04.582135,6.757331,-49.928635,8.197810,0.901636,-2.801427,6.566799
2026-03-31T21:37:04.591135,9.269794,-46.277187,6.647261,2.083050,-3.076316,6.852684
2026-03-31T21:37:04.601135,11.877971,-39.381073,6.360122,3.078760,-3.138624,7.011509
2026-03-31T21:37:04.610135,13.284951,-32.537601,6.020341,3.610212,-2.973691,7.098252
2026-03-31T21:37:04.620135,14.270793,-27.168106,5.575276,3.825237,-2.689028,7.090922
2026-03-31T21:37:04.630135,14.711073,-22.047466,5.627918,3.969401,-2.307848,6.952866
2026-03-31T21:37:04.639135,14.735001,-17.783457,5.455635,3.998723,-1.927890,6.703633
2026-03-31T21:37:04.649135,14.347364,-14.194223,4.149154,3.938858,-1.629788,6.333449
2026-03-31T21:37:04.659135,14.452648,-10.064211,2.866601,3.850893,-1.369559,5.823987
2026-03-31T21:37:04.668135,14.069796,-5.881557,1.584048,3.586999,-1.011592,5.336517
2026-03-31T21:37:04.678135,14.098510,-3.297309,-0.071784,3.197267,-0.543669,4.929681
2026-03-31T21:37:04.687135,13.064811,-0.655633,-1.823330,2.698802,-0.157603,4.553388
2026-03-31T21:37:04.697135,12.016755,0.564706,-3.230310,2.119701,0.054977,4.245512
2026-03-31T21:37:04.707135,11.868400,0.425922,-5.072783,1.765400,0.078190,4.003609
2026-03-31T21:37:04.716135,12.236894,0.981057,-7.183253,1.714087,-0.041538,3.734829
2026-03-31T21:37:04.726135,12.729816,2.206182,-8.599804,1.836260,-0.153938,3.417179
2026-03-31T21:37:04.735135,13.777872,4.421936,-9.556933,2.042732,-0.136833,3.053103
2026-03-31T21:37:04.745135,14.304293,6.733402,-9.686145,2.035402,0.061086,2.635272
2026-03-31T21:37:04.755135,13.730016,9.164510,-9.638289,1.824043,0.361632,2.136806
2026-03-31T21:37:04.764135,12.193823,10.667203,-8.566304,1.391550,0.665842,1.549153
2026-03-31T21:37:04.774135,9.801001,11.160124,-7.226324,0.838106,0.863763,0.880867
2026-03-31T21:37:04.784135,7.374679,11.251051,-6.455835,0.226020,0.885754,0.240680
2026-03-31T21:37:04.793135,5.379065,10.207781,-5.737988,-0.379958,0.717155,-0.282219
2026-03-31T21:37:04.803135,3.991228,8.963513,-5.010570,-0.906523,0.414166,-0.687834
2026-03-31T21:37:04.812135,3.187239,7.465606,-4.359722,-1.295034,0.023212,-0.990823
2026-03-31T21:37:04.822135,2.919243,5.536991,-3.795016,-1.518610,-0.433714,-1.219286
2026-03-31T21:37:04.832135,3.364308,3.440878,-3.297309,-1.560149,-0.928514,-1.430646
2026-03-31T21:37:04.841135,4.599005,1.741974,-2.761317,-1.395215,-1.369559,-1.678657
2026-03-31T21:37:04.851135,6.307480,0.598205,-2.067398,-1.099557,-1.640783,-1.963320
2026-03-31T21:37:04.860135,7.781459,-0.086141,-1.502692,-0.762359,-1.687209,-2.262644
2026-03-31T21:37:04.870135,8.882157,-0.406779,-0.669990,-0.439822,-1.518610,-2.588846
2026-03-31T21:37:04.880135,8.853443,-0.521635,0.186640,-0.195476,-1.216843,-2.933374
2026-03-31T21:37:04.889135,8.102097,-0.641276,0.856630,-0.015882,-0.941954,-3.304780
2026-03-31T21:37:04.899135,7.125825,-0.789631,2.105683,0.034208,-0.833220,-3.674964
2026-03-31T21:37:04.909135,6.920042,-1.871187,3.943371,-0.069638,-0.928514,-4.048813
2026-03-31T21:37:04.918135,7.786244,-3.244667,6.570690,-0.289550,-1.172861,-4.461758
2026-03-31T21:37:04.928135,9.724431,-5.197210,8.839086,-0.645073,-1.491732,-4.842938
2026-03-31T21:37:04.937135,12.203395,-8.312665,10.461420,-1.098335,-1.817934,-5.062850
2026-03-31T21:37:04.947135,14.964712,-12.016755,11.404192,-1.617570,-2.113593,-5.194796
2026-03-31T21:37:04.957135,18.678373,-15.768700,11.150553,-2.229657,-2.274861,-5.292535
2026-03-31T21:37:04.966135,23.042881,-19.846069,11.164910,-2.919935,-2.079384,-5.407377
2026-03-31T21:37:04.976135,26.569902,-25.722841,12.370892,-3.630982,-1.242499,-5.472129
2026-03-31T21:37:04.985135,26.809183,-30.580273,12.787243,-4.035374,0.017104,-5.506337
2026-03-31T21:37:04.995135,22.535603,-32.628529,11.772687,-4.024379,1.100778,-5.556429
2026-03-31T21:37:05.005135,17.486748,-33.499516,11.542976,-3.836232,1.773952,-5.506337
2026-03-31T21:37:05.014135,13.629517,-33.379875,11.006983,-3.613877,2.004859,-5.362174
2026-03-31T21:37:05.024135,10.849057,-32.992237,10.786844,-3.301115,1.952324,-5.128823
2026-03-31T21:37:05.034135,9.178867,-31.733612,10.121639,-2.933374,1.740965,-4.882033
2026-03-31T21:37:05.043135,8.264809,-29.532215,9.724431,-2.472781,1.545488,-4.635244
2026-03-31T21:37:05.053135,7.479963,-26.344976,8.987441,-2.101375,1.452637,-4.360355
2026-03-31T21:37:05.062135,6.613761,-23.583658,7.465606,-1.842369,1.511280,-4.078135
2026-03-31T21:37:05.072135,5.369493,-20.654844,6.384050,-1.633453,1.718974,-3.799580
2026-03-31T21:37:05.082135,3.799802,-18.008383,5.790630,-1.506393,2.039067,-3.547904
2026-03-31T21:37:05.091135,1.741974,-15.821343,5.096712,-1.386663,2.386039,-3.323106
2026-03-31T21:37:05.101135,-1.048056,-14.117653,4.058227,-1.224173,2.675589,-3.082425
2026-03-31T21:37:05.110135,-4.067798,-12.442677,2.924029,-0.983492,2.781879,-2.841744
2026-03-31T21:37:05.120135,-6.790830,-11.021340,2.325823,-0.717155,2.626719,-2.626719
2026-03-31T21:37:05.130135,-8.403592,-9.609575,1.713260,-0.482583,2.307848,-2.431243
2026-03-31T21:37:05.139135,-9.461220,-8.149953,1.091127,-0.256563,1.910786,-2.162462
2026-03-31T21:37:05.149135,-10.102497,-6.948756,0.473778,-0.113620,1.523497,-1.844812
2026-03-31T21:37:05.159135,-10.456634,-6.379265,-0.401994,-0.010995,1.199739,-1.499062
2026-03-31T21:37:05.168135,-11.026126,-5.828915,-1.416550,0.081855,0.955393,-1.149648
2026-03-31T21:37:05.178135,-11.160124,-5.235495,-1.856830,0.188146,0.785572,-0.816115
2026-03-31T21:37:05.187135,-11.935399,-4.613361,-1.469193,0.285884,0.695164,-0.525343
2026-03-31T21:37:05.197135,-12.677174,-3.857230,-1.914258,0.328645,0.516791,-0.263893
2026-03-31T21:37:05.207135,-11.643474,-3.225524,-1.770688,0.318871,0.290771,0.013439
2026-03-31T21:37:05.216135,-12.102896,-2.411965,-1.507478,0.217467,0.017104,0.300545
2026-03-31T21:37:05.226135,-11.006983,-2.234896,-1.244267,0.101403,-0.287106,0.605978
2026-03-31T21:37:05.235135,-9.796215,-2.321037,-0.875773,-0.050090,-0.557108,0.917519
2026-03-31T21:37:05.245135,-8.283951,-2.833101,-0.215354,-0.234572,-0.747698,1.193630
2026-03-31T21:37:05.255135,-6.862615,-3.718446,0.301495,-0.423940,-0.840550,1.453858
2026-03-31T21:37:05.264135,-5.785845,-4.924428,0.981057,-0.572991,-0.824667,1.707978
2026-03-31T21:37:05.274135,-5.312066,-6.173482,1.698904,-0.685390,-0.740368,1.924225
2026-03-31T21:37:05.284135,-5.474778,-7.733602,2.952743,-0.845437,-0.627969,2.129475
2026-03-31T21:37:05.293135,-5.948556,-9.734002,4.254438,-1.122770,-0.594982,2.295631
2026-03-31T21:37:05.303135,-6.537191,-12.533604,5.517848,-1.524719,-0.665842,2.494773
2026-03-31T21:37:05.312135,-6.963113,-16.912470,6.604190,-2.025628,-0.885754,2.786766
2026-03-31T21:37:05.322135,-6.675975,-23.310877,7.738388,-2.530203,-1.265712,3.227811
2026-03-31T21:37:05.332135,-5.508277,-31.714470,8.839086,-2.900387,-1.771508,3.756820
2026-03-31T21:37:05.341135,-3.857230,-41.304901,9.346365,-2.733010,-2.217440,4.305377
2026-03-31T21:37:05.351135,-1.584048,-47.732025,8.355736,-1.914451,-2.674367,4.921129
2026-03-31T21:37:05.360135,1.473978,-50.340202,8.255237,-0.615752,-3.009121,5.488012
2026-03-31T21:37:05.370135,5.134997,-50.201420,8.647660,0.693942,-3.125185,5.946160
2026-03-31T21:37:05.380135,7.862815,-47.971306,8.011170,2.009746,-3.057990,6.268697
2026-03-31T21:37:05.389135,9.796215,-42.223747,7.733602,3.175276,-2.811201,6.456844
2026-03-31T21:37:05.399135,10.202995,-36.696327,7.475177,3.892432,-2.443460,6.548473
2026-03-31T21:37:05.409135,10.523633,-31.829327,7.221538,4.190534,-2.101375,6.517930
2026-03-31T21:37:05.418135,10.997412,-28.019953,7.274180,4.188091,-1.797165,6.360327
2026-03-31T21:37:05.428135,11.538190,-25.028925,7.058826,4.064696,-1.483180,6.100098
2026-03-31T21:37:05.437135,11.887542,-22.425533,6.307480,3.947410,-1.178969,5.787336
2026-03-31T21:37:05.447135,11.954541,-19.405790,4.733003,3.874106,-0.934623,5.417151
2026-03-31T21:37:05.457135,12.055040,-15.495919,2.904886,3.797137,-0.730594,4.980994
2026-03-31T21:37:05.466135,12.442677,-11.332407,1.009771,3.622430,-0.460592,4.549723
2026-03-31T21:37:05.476135,12.428320,-7.422535,-0.971485,3.321884,-0.108733,4.210082
2026-03-31T21:37:05.485135,12.236894,-4.584648,-3.144168,2.919935,0.250454,3.951075
2026-03-31T21:37:05.495135,11.236694,-2.392822,-4.235296,2.594954,0.566882,3.701842
2026-03-31T21:37:05.505135,9.820143,-0.636490,-6.312266,2.371378,0.717155,3.513696
2026-03-31T21:37:05.514135,9.882357,1.842473,-8.547162,2.302961,0.518013,3.203376
2026-03-31T21:37:05.524135,10.925627,3.866801,-8.920442,2.138027,0.189368,2.929709
2026-03-31T21:37:05.534135,10.600204,6.312266,-8.662017,1.886351,0.021991,2.693915
2026-03-31T21:37:05.543135,12.614960,7.034898,-10.585847,1.578475,-0.112399,2.463008
2026-03-31T21:37:05.553135,12.696316,9.724431,-10.499705,1.134987,-0.122173,2.128254
2026-03-31T21:37:05.562135,12.562318,8.729016,-10.595418,0.665842,-0.056199,1.643227
2026-03-31T21:37:05.572135,12.433106,9.044869,-10.116853,0.306654,0.013439,1.021366
2026-03-31T21:37:05.582135,11.772687,8.628518,-9.221938,-0.010995,0.081855,0.300545
2026-03-31T21:37:05.591135,10.877771,8.350950,-8.408378,-0.238237,0.118507,-0.445931
2026-03-31T21:37:05.601135,9.657432,8.566304,-7.537391,-0.519235,0.097738,-1.142317
2026-03-31T21:37:05.610135,8.872586,8.221738,-6.518048,-0.893084,-0.007330,-1.744630
2026-03-31T21:37:05.620135,8.298308,7.135396,-5.742774,-1.318246,-0.163711,-2.222327
2026-03-31T21:37:05.630135,8.250452,5.101497,-4.666004,-1.690874,-0.353080,-2.637715
2026-03-31T21:37:05.639135,8.350950,2.660818,-3.972085,-1.853364,-0.553443,-3.022560
2026-03-31T21:37:05.649135,8.657232,0.200997,-3.043670,-1.765400,-0.762359,-3.397631
2026-03-31T21:37:05.659135,9.236295,-1.320838,-1.684547,-1.435533,-0.970053,-3.798359
2026-03-31T21:37:05.668135,9.848857,-1.962114,-0.210568,-1.018923,-1.132543,-4.174652
2026-03-31T21:37:05.678135,10.078568,-1.722832,0.856630,-0.726929,-1.244943,-4.478862
2026-03-31T21:37:05.687135,10.001998,-1.067198,1.191625,-0.702494,-1.350011,-4.714656
2026-03-31T21:37:05.697135,10.648060,-1.545763,2.584248,-1.014036,-1.474628,-4.857599
2026-03-31T21:37:05.707135,11.418549,-3.512663,3.991228,-1.572366,-1.604131,-4.965111
2026-03-31T21:37:05.716135,13.098310,-6.987041,7.001398,-2.195449,-1.743409,-5.123936
2026-03-31T21:37:05.726135,14.921641,-11.609975,8.269594,-2.691471,-1.794721,-5.287648
2026-03-31T21:37:05.735135,17.137396,-16.596617,10.241280,-2.998125,-1.694539,-5.466021
2026-03-31T21:37:05.745135,19.137794,-22.157537,11.595618,-3.139846,-1.404989,-5.619959
2026-03-31T21:37:05.755135,20.688343,-27.976881,12.069397,-3.067764,-1.011592,-5.728693
2026-03-31T21:37:05.764135,21.205193,-33.355946,13.476376,-2.867400,-0.502131,-5.760457
2026-03-31T21:37:05.774135,20.348562,-34.983067,12.935598,-2.419025,0.074525,-5.781227
2026-03-31T21:37:05.784135,18.037096,-35.184063,14.706287,-2.085493,0.641408,-5.692040
2026-03-31T21:37:05.793135,15.132210,-33.944580,15.462419,-2.070832,1.027475,-5.470907
2026-03-31T21:37:05.803135,13.131810,-33.064022,15.180066,-2.326174,1.194852,-5.127602
2026-03-31T21:37:05.812135,11.648260,-32.489746,14.687145,-2.618167,1.337794,-4.723209
2026-03-31T21:37:05.822135,10.126425,-31.743183,13.356735,-2.751336,1.576031,-4.307820
2026-03-31T21:37:05.832135,8.015955,-30.139994,11.231909,-2.680476,1.841147,-3.932749
2026-03-31T21:37:05.841135,5.886343,-27.838099,9.241080,-2.417804,2.013411,-3.638312
2026-03-31T21:37:05.851135,4.206582,-24.732214,7.920242,-2.026850,2.072054,-3.444057
2026-03-31T21:37:05.860135,2.780459,-21.564117,7.369893,-1.646892,2.135584,-3.276680
2026-03-31T21:37:05.870135,0.827916,-18.716658,6.245266,-1.317025,2.250427,-3.042108
2026-03-31T21:37:05.880135,-1.986042,-16.041483,4.689932,-0.956614,2.378708,-2.735453
2026-03-31T21:37:05.889135,-5.158925,-13.270594,3.393022,-0.594982,2.403143,-2.448347
2026-03-31T21:37:05.899135,-8.111668,-10.734202,2.847458,-0.296880,2.235766,-2.157575
2026-03-31T21:37:05.909135,-10.159924,-8.714659,2.569891,-0.113620,1.777617,-1.843590
2026-03-31T21:37:05.918135,-10.992627,-7.551748,2.273181,0.054977,1.150869,-1.461189
2026-03-31T21:37:05.928135,-10.872985,-6.226124,1.923829,0.251676,0.497244,-1.027475
2026-03-31T21:37:05.937135,-10.533205,-5.527420,1.426122,0.488692,-0.039095,-0.576656
2026-03-31T21:37:05.947135,-10.102497,-4.847858,1.052841,0.755029,-0.426383,-0.150272
2026-03-31T21:37:05.957135,-9.552147,-3.747160,0.818345,1.021366,-0.664621,0.200363
2026-03-31T21:37:05.966135,-8.757730,-2.407179,-0.033499,1.285260,-0.814894,0.500909
2026-03-31T21:37:05.976135,-10.466206,-1.282552,-2.325823,1.459967,-0.791681,0.717155
2026-03-31T21:37:05.985135,-9.399007,0.023928,-1.162911,1.486845,-0.797789,0.830776
2026-03-31T21:37:05.995135,-9.154939,1.043270,-0.358923,1.347568,-0.786794,0.894306
2026-03-31T21:37:06.005135,-8.633303,1.540977,-0.339780,1.061683,-0.740368,0.956614
2026-03-31T21:37:06.014135,-7.810172,0.985842,0.014356,0.647517,-0.753807,1.040914
2026-03-31T21:37:06.024135,-7.159325,-0.339780,0.516849,0.261450,-0.769690,1.148426
2026-03-31T21:37:06.034135,-5.991627,-2.311466,0.622133,-0.091629,-0.802676,1.293812
2026-03-31T21:37:06.043135,-4.752145,-4.369294,0.756131,-0.265115,-0.829554,1.426980
2026-03-31T21:37:06.053135,-3.627519,-5.867201,0.760917,-0.277332,-0.791681,1.560149
2026-03-31T21:37:06.062135,-2.895315,-7.116254,0.612562,-0.178372,-0.726929,1.739743
2026-03-31T21:37:06.072135,-2.354537,-7.963313,0.612562,-0.124616,-0.667064,1.930333
2026-03-31T21:37:06.082135,-1.923829,-8.800801,1.129412,-0.188146,-0.579100,2.138027
2026-03-31T21:37:06.091135,-1.536192,-10.083354,1.478764,-0.426383,-0.551000,2.384817
2026-03-31T21:37:06.101135,-1.775474,-11.925827,1.550549,-0.821002,-0.575434,2.755001
2026-03-31T21:37:06.110135,-1.674975,-15.692130,2.612962,-1.341459,-0.636521,3.087312
2026-03-31T21:37:06.120135,-2.187039,-20.516060,2.053041,-1.769065,-0.729372,3.374418
2026-03-31T21:37:06.130135,-3.254238,-26.823542,2.555534,-1.925446,-0.906523,3.678629
2026-03-31T21:37:06.139135,-3.211167,-33.533016,4.575076,-1.748295,-1.330464,3.828902
2026-03-31T21:37:06.149135,-1.866401,-39.218361,6.058626,-1.126435,-1.931555,4.032931
2026-03-31T21:37:06.159135,0.267996,-42.960735,7.302894,-0.283441,-2.698802,4.406780
2026-03-31T21:37:06.168135,4.043870,-44.721855,7.226324,0.522900,-3.417179,4.753751
2026-03-31T21:37:06.178135,7.934599,-44.817566,6.345765,1.205847,-3.825237,5.103167
2026-03-31T21:37:06.187135,11.763115,-45.028133,5.690132,1.747074,-3.920532,5.351178
2026-03-31T21:37:06.197135,14.950355,-43.716869,4.465006,2.405586,-3.775146,5.470907
2026-03-31T21:37:06.207135,17.324036,-38.950367,4.287938,3.077538,-3.409849,5.464799
2026-03-31T21:37:06.216135,17.869598,-32.819954,4.134797,3.461161,-2.846631,5.442807
2026-03-31T21:37:06.226135,16.902899,-26.120050,4.546362,3.538130,-2.227214,5.398825
2026-03-31T21:37:06.235135,15.471990,-20.219351,4.436293,3.291341,-1.674992,5.301087
2026-03-31T21:37:06.245135,14.074582,-15.787843,3.608376,2.927265,-1.270599,5.148371
2026-03-31T21:37:06.255135,13.246665,-11.997612,2.507678,2.596176,-0.963945,4.915020
2026-03-31T21:37:06.264135,12.815957,-8.910871,1.119840,2.348165,-0.687834,4.603479
2026-03-31T21:37:06.274135,12.169895,-5.857629,-0.885344,2.252870,-0.411723,4.221077
2026-03-31T21:37:06.284135,11.356336,-2.014756,-2.794816,2.185675,-0.201585,3.772702
2026-03-31T21:37:06.293135,11.547761,1.172483,-3.239881,2.041511,-0.057421,3.334101
2026-03-31T21:37:06.303135,11.145767,4.220939,-4.938785,1.806938,0.062308,2.988352
2026-03-31T21:37:06.312135,10.715059,6.709474,-4.800002,1.538158,0.151494,2.670702
2026-03-31T21:37:06.322135,9.848857,9.054440,-5.742774,1.180191,0.076969,2.378708
2026-03-31T21:37:06.332135,9.877571,9.997212,-8.212167,0.915075,-0.040317,1.997528
2026-03-31T21:37:06.341135,8.441878,11.073982,-8.738588,0.649960,-0.160046,1.659109
2026-03-31T21:37:06.351135,9.647860,11.155338,-8.891728,0.394618,-0.323758,1.262047
2026-03-31T21:37:06.360135,9.901499,10.729416,-8.863014,0.276111,-0.445931,0.795346
2026-03-31T21:37:06.370135,9.695717,10.561918,-8.748159,0.238237,-0.477696,0.259006
2026-03-31T21:37:06.380135,9.226723,10.604989,-8.403592,0.197920,-0.412944,-0.354301
2026-03-31T21:37:06.389135,8.355736,11.050054,-7.341179,0.050090,-0.306654,-1.012814
2026-03-31T21:37:06.399135,7.475177,10.987841,-6.101697,-0.287106,-0.229685,-1.656666
2026-03-31T21:37:06.409135,6.714260,10.193424,-4.948357,-0.781907,-0.240680,-2.219883
2026-03-31T21:37:06.418135,6.422335,8.384450,-4.283152,-1.340238,-0.377514,-2.689028
2026-03-31T21:37:06.428135,6.690331,5.876772,-4.015156,-1.791056,-0.604756,-3.082425
2026-03-31T21:37:06.437135,7.618747,3.421736,-3.919443,-2.042732,-0.856432,-3.429396
2026-03-31T21:37:06.447135,9.226723,1.115055,-4.005585,-2.061058,-1.037248,-3.748268
2026-03-31T21:37:06.457135,10.633703,-0.866201,-3.661018,-1.931555,-1.086118,-4.056144
2026-03-31T21:37:06.466135,12.107682,-2.182254,-2.172682,-1.731191,-1.011592,-4.360355
2026-03-31T21:37:06.476135,12.983455,-3.488735,-0.827916,-1.585805,-0.858876,-4.604701
2026-03-31T21:37:06.485135,13.380663,-4.938785,0.641276,-1.558927,-0.720820,-4.822168
2026-03-31T21:37:06.495135,13.978869,-6.987041,2.210968,-1.617570,-0.624304,-5.028641
2026-03-31T21:37:06.505135,14.763715,-9.284151,3.383451,-1.703091,-0.568104,-5.221674
2026-03-31T21:37:06.514135,15.156138,-11.681759,4.546362,-1.787391,-0.500909,-5.370726
2026-03-31T21:37:06.524135,16.180265,-14.802000,6.092126,-1.949881,-0.480139,-5.458690
2026-03-31T21:37:06.534135,17.836100,-17.697315,6.896114,-2.135584,-0.464257,-5.500229
2026-03-31T21:37:06.543135,20.635702,-21.176479,8.772087,-2.460564,-0.354301,-5.474573
2026-03-31T21:37:06.553135,21.908684,-24.832712,9.461220,-2.648711,-0.109955,-5.436699
2026-03-31T21:37:06.562135,22.626530,-28.254450,9.231509,-2.682919,0.287106,-5.345069
2026-03-31T21:37:06.572135,22.095324,-30.470201,9.140582,-2.557081,0.792902,-5.219231
2026-03-31T21:37:06.582135,19.846069,-31.245478,9.485148,-2.373821,1.317025,-5.060406
2026-03-31T21:37:06.591135,16.926826,-30.824341,9.652646,-2.273639,1.670105,-4.855155
2026-03-31T21:37:06.601135,14.309079,-30.082565,9.786644,-2.289522,1.805717,-4.553388
2026-03-31T21:37:06.610135,12.251251,-29.580072,9.681360,-2.382373,1.824043,-4.164878
2026-03-31T21:37:06.620135,10.652846,-29.297718,9.552147,-2.442238,1.811825,-3.743381
2026-03-31T21:37:06.630135,9.198010,-28.656443,9.164510,-2.377487,1.816712,-3.324327
2026-03-31T21:37:06.639135,7.637889,-27.670601,8.216952,-2.149023,1.875355,-2.900387
2026-03-31T21:37:06.649135,5.776273,-26.110479,7.207181,-1.761734,1.993863,-2.483777
2026-03-31T21:37:06.659135,3.933800,-23.416161,6.297909,-1.297477,2.155132,-2.122145
2026-03-31T21:37:06.668135,1.497906,-20.099709,5.312066,-0.860098,2.322509,-1.813047
2026-03-31T21:37:06.678135,-1.062413,-16.615761,4.512863,-0.499687,2.439795,-1.522275
2026-03-31T21:37:06.687135,-4.110869,-13.639088,3.589233,-0.272445,2.428799,-1.238834
2026-03-31T21:37:06.697135,-6.991827,-11.050054,2.761317,-0.114842,2.245540,-0.946840
2026-03-31T21:37:06.707135,-9.312865,-8.762516,2.411965,-0.092851,1.860695,-0.616973
2026-03-31T21:37:06.716135,-10.504491,-6.786044,1.933400,-0.164933,1.323133,-0.248011
2026-03-31T21:37:06.726135,-11.164910,-5.867201,1.024128,-0.291993,0.744033,0.179594
2026-03-31T21:37:06.735135,-10.839486,-5.359922,0.004785,-0.364075,0.270002,0.649960
2026-03-31T21:37:06.745135,-9.408578,-6.168696,-0.622133,-0.348193,0.039095,1.087339
2026-03-31T21:37:06.755135,-10.872985,-6.068198,-2.067398,-0.083077,-0.124616,1.452637
2026-03-31T21:37:06.764135,-8.561519,-5.546562,-0.325423,0.345749,-0.229685,1.683544
2026-03-31T21:37:06.774135,-10.662417,-4.393222,-0.947557,0.777020,-0.251676,1.850921
2026-03-31T21:37:06.784135,-11.643474,-3.110669,-1.526620,1.093448,-0.406836,1.944994
2026-03-31T21:37:06.793135,-10.552347,-1.607976,-0.315852,1.253495,-0.614530,1.999972
2026-03-31T21:37:06.803135,-9.786644,-0.569491,0.038285,1.240056,-0.827111,2.051285
2026-03-31T21:37:06.812135,-8.815158,-0.205782,0.497707,1.054353,-1.014036,2.102597
2026-03-31T21:37:06.822135,-7.695317,-0.258424,0.559920,0.763581,-1.152091,2.174679
2026-03-31T21:37:06.832135,-6.661618,-1.062413,0.363709,0.377514,-1.280373,2.307848
2026-03-31T21:37:06.841135,-5.436492,-2.646461,0.569491,-0.025656,-1.396437,2.442238
2026-03-31T21:37:06.851135,-4.139583,-4.867001,0.928415,-0.337197,-1.478293,2.560746
2026-03-31T21:37:06.860135,-2.833101,-7.671389,1.402194,-0.449596,-1.539380,2.696358
2026-03-31T21:37:06.870135,-1.971685,-10.619346,2.096112,-0.295658,-1.607796,2.797762
2026-03-31T21:37:06.880135,-0.583848,-13.112667,2.828316,0.122173,-1.679879,2.811201
2026-03-31T21:37:06.889135,0.488135,-14.916856,3.598805,0.673173,-1.740965,2.813644
2026-03-31T21:37:06.899135,1.363908,-16.486547,4.153940,1.112996,-1.830151,2.776992
2026-03-31T21:37:06.909135,1.785045,-18.247665,4.455435,1.403768,-1.930333,2.708575
2026-03-31T21:37:06.918135,3.416950,-21.262621,6.254838,1.447750,-2.094045,2.695136
2026-03-31T21:37:06.928135,5.197210,-25.751556,8.197810,1.325577,-2.326174,2.779436
2026-03-31T21:37:06.937135,7.728816,-32.317463,9.293722,1.249830,-2.651154,3.016451
2026-03-31T21:37:06.947135,10.997412,-39.247074,9.456434,1.467297,-3.067764,3.276680
2026-03-31T21:37:06.957135,15.577275,-44.621353,9.193224,2.089158,-3.395188,3.541795
2026-03-31T21:37:06.966135,20.099709,-46.425545,6.972685,2.976134,-3.448944,3.811798
2026-03-31T21:37:06.976135,25.196421,-43.290947,6.695117,3.882658,-2.994460,3.932749
2026-03-31T21:37:06.985135,26.009981,-36.619759,6.910471,4.376237,-2.059837,4.181982
2026-03-31T21:37:06.995135,24.339790,-30.044279,6.656832,4.364020,-1.089783,4.287051
2026-03-31T21:37:07.005135,20.946770,-24.248863,6.494120,4.068361,-0.171042,4.265060
2026-03-31T21:37:07.014135,17.127825,-20.697914,5.915057,3.637090,0.531452,4.201530
2026-03-31T21:37:07.024135,13.720444,-18.061024,5.240281,3.198489,0.912632,4.125782
2026-03-31T21:37:07.034135,11.581261,-15.108281,4.508077,2.825862,1.039692,4.037818
2026-03-31T21:37:07.043135,10.447063,-12.452248,3.421736,2.520429,1.148426,3.925419
2026-03-31T21:37:07.053135,9.279366,-9.805787,2.349751,2.273639,1.345124,3.808133
2026-03-31T21:37:07.062135,8.106882,-7.264609,1.062413,2.051285,1.583362,3.640756
2026-03-31T21:37:07.072135,6.709474,-5.087140,-0.425922,1.860695,1.793499,3.418401
2026-03-31T21:37:07.082135,5.197210,-3.273381,-1.986042,1.769065,1.918116,3.165503
2026-03-31T21:37:07.091135,3.933800,-1.105484,-3.594019,1.795943,1.894903,2.873509
2026-03-31T21:37:07.101135,3.096312,1.249053,-4.962714,1.808160,1.662774,2.588846
2026-03-31T21:37:07.110135,3.148954,3.780659,-6.460621,1.748295,1.279151,2.318843
2026-03-31T21:37:07.120135,4.206582,5.962913,-7.781459,1.601688,0.894306,2.078163
2026-03-31T21:37:07.130135,4.713860,7.853243,-9.408578,1.372003,0.629191,1.898568
2026-03-31T21:37:07.139135,6.374479,8.934799,-10.274780,1.111774,0.503352,1.776395
2026-03-31T21:37:07.149135,6.862615,9.590432,-10.624132,0.890641,0.405614,1.587027
2026-03-31T21:37:07.159135,7.417750,10.231709,-11.078768,0.739146,0.436157,1.240056
2026-03-31T21:37:07.168135,7.341179,10.475777,-10.447063,0.587652,0.520457,0.770911
2026-03-31T21:37:07.178135,7.073183,11.279765,-9.509077,0.502131,0.526565,0.142942
2026-03-31T21:37:07.187135,6.235695,12.246466,-9.140582,0.301767,0.438601,-0.569326
2026-03-31T21:37:07.197135,5.938985,12.854243,-7.948956,-0.009773,0.265115,-1.323133
2026-03-31T21:37:07.207135,6.455835,13.371092,-6.853043,-0.481361,0.035430,-2.030515
2026-03-31T21:37:07.216135,6.948756,13.131810,-6.283552,-1.099557,-0.202807,-2.619389
2026-03-31T21:37:07.226135,7.709674,11.796615,-5.790630,-1.795943,-0.420275,-3.078760
2026-03-31T21:37:07.235135,8.757730,9.193224,-5.407779,-2.383595,-0.583987,-3.492926
2026-03-31T21:37:07.245135,9.561719,6.302694,-5.264209,-2.698802,-0.682947,-3.925419
2026-03-31T21:37:07.255135,10.442277,3.598805,-5.010570,-2.678032,-0.703716,-4.416554
2026-03-31T21:37:07.264135,11.279765,1.703689,-3.761517,-2.409251,-0.629191,-4.924794
2026-03-31T21:37:07.274135,11.461620,0.354137,-2.732603,-2.054950,-0.514348,-5.414708
2026-03-31T21:37:07.284135,11.327622,-0.086141,-1.756331,-1.729969,-0.476474,-5.887517
2026-03-31T21:37:07.293135,11.365907,0.196211,-0.679561,-1.572366,-0.577878,-6.321232
2026-03-31T21:37:07.303135,11.739187,0.454636,0.296710,-1.624901,-0.806341,-6.693859
2026-03-31T21:37:07.312135,12.926027,-0.636490,0.870987,-1.877799,-1.116661,-6.968749
2026-03-31T21:37:07.322135,14.883356,-3.555734,2.110469,-2.301739,-1.483180,-7.131239
2026-03-31T21:37:07.332135,17.544174,-8.427521,2.809173,-2.665815,-1.899790,-7.292507
2026-03-31T21:37:07.341135,22.224537,-14.495719,4.173082,-2.755001,-2.213775,-7.458663
2026-03-31T21:37:07.351135,28.417162,-21.946968,6.991827,-2.510655,-2.178344,-7.612601
2026-03-31T21:37:07.360135,33.542587,-29.733213,8.714659,-1.924225,-1.734856,-7.748213
2026-03-31T21:37:07.370135,35.480774,-32.973095,9.978070,-1.005483,-1.259603,-7.919255
2026-03-31T21:37:07.380135,34.073792,-31.341190,12.141181,-0.483805,-0.731816,-7.801969
2026-03-31T21:37:07.389135,30.001209,-27.067610,15.347564,-1.175304,-0.419053,-7.258299
2026-03-31T21:37:07.399135,29.766712,-25.756342,17.706886,-2.860070,-0.466700,-6.301684
2026-03-31T21:37:07.409135,27.976881,-31.030123,14.830714,-4.619361,-0.478918,-5.211901
2026-03-31T21:37:07.418135,27.431318,-37.299316,12.342178,-5.502672,-0.190589,-4.244290
2026-03-31T21:37:07.428135,24.746571,-40.510487,10.461420,-5.183800,0.470366,-3.573560
2026-03-31T21:37:07.437135,20.343777,-39.495930,9.896714,-4.163656,1.285260,-3.098307
2026-03-31T21:37:07.447135,14.218151,-36.222549,9.389435,-2.948035,1.919338,-2.759888
2026-03-31T21:37:07.457135,8.504091,-31.537401,8.709874,-1.839925,2.249205,-2.448347
2026-03-31T21:37:07.466135,4.048655,-25.732414,7.728816,-0.970053,2.377487,-2.201557
2026-03-31T21:37:07.476135,-0.019142,-20.056639,7.240681,-0.498465,2.453234,-1.869247
2026-03-31T21:37:07.485135,-3.426521,-15.677773,6.216553,-0.392175,2.509433,-1.381776
2026-03-31T21:37:07.495135,-7.436892,-11.997612,5.982056,-0.370184,2.272418,-0.917519
2026-03-31T21:37:07.505135,-9.939785,-8.867800,5.541777,-0.560774,1.679879,-0.552222
2026-03-31T21:37:07.514135,-10.734202,-7.302894,4.948357,-0.785572,0.825889,-0.078190
2026-03-31T21:37:07.524135,-9.710074,-6.900900,4.039084,-0.913854,-0.031764,0.373849
2026-03-31T21:37:07.534135,-7.690531,-7.283751,2.517249,-0.825889,-0.576656,0.748920
2026-03-31T21:37:07.543135,-5.948556,-7.360322,1.426122,-0.507018,-0.728151,1.042135
2026-03-31T21:37:07.553135,-5.005784,-6.742974,0.880558,-0.035430,-0.574213,1.227838
2026-03-31T21:37:07.562135,-5.168496,-5.058426,0.722632,0.464257,-0.249232,1.343903
2026-03-31T21:37:07.572135,-6.130411,-3.378665,0.746560,0.824667,0.064751,1.448972
2026-03-31T21:37:07.582135,-7.432106,-1.445264,0.669990,1.022588,0.222354,1.547932
2026-03-31T21:37:07.591135,-8.422735,0.110069,0.555134,0.999375,0.188146,1.646892
2026-03-31T21:37:07.601135,-8.623732,1.086341,1.148554,0.757472,0.035430,1.710422
2026-03-31T21:37:07.610135,-7.427321,0.923629,1.579262,0.359188,-0.174707,1.782504
2026-03-31T21:37:07.620135,-7.221538,-0.177068,1.641476,-0.037873,-0.295658,1.894903
2026-03-31T21:37:07.630135,-5.771488,-2.311466,1.612762,-0.377514,-0.427605,2.021963
2026-03-31T21:37:07.639135,-4.455435,-5.067998,1.722832,-0.508239,-0.520457,2.175901
2026-03-31T21:37:07.649135,-3.311666,-7.743173,2.081755,-0.478918,-0.566882,2.335948
2026-03-31T21:37:07.659135,-2.019542,-10.054640,2.478964,-0.279776,-0.570548,2.515542
2026-03-31T21:37:07.668135,-1.081555,-12.270394,3.129811,-0.122173,-0.561995,2.819753
2026-03-31T21:37:07.678135,-0.009571,-13.907084,3.996013,-0.069638,-0.636521,3.205820
2026-03-31T21:37:07.687135,1.435693,-15.261422,5.599204,-0.257785,-0.703716,3.639534
2026-03-31T21:37:07.697135,2.976671,-18.372091,5.264209,-0.638964,-0.757472,4.133113
2026-03-31T21:37:07.707135,3.479164,-22.741385,5.771488,-0.946840,-0.753807,4.667009
2026-03-31T21:37:07.716135,4.350151,-28.311876,5.331208,-0.886976,-0.730594,5.048189
2026-03-31T21:37:07.726135,5.340780,-33.757942,5.517848,-0.211359,-0.747698,5.292535
2026-03-31T21:37:07.735135,6.393621,-35.906696,5.924628,0.919962,-0.919962,5.508781
2026-03-31T21:37:07.745135,7.599604,-34.609787,5.781059,1.996307,-1.297477,5.705480
2026-03-31T21:37:07.755135,10.198209,-32.599815,6.250052,2.598620,-1.687209,5.816657
2026-03-31T21:37:07.764135,13.284951,-32.427532,6.001199,2.756223,-1.899790,5.922948
2026-03-31T21:37:07.774135,16.290337,-33.202805,5.431707,2.861292,-1.901012,5.984034
2026-03-31T21:37:07.784135,18.731014,-33.389446,5.302494,3.075094,-1.690874,5.944939
2026-03-31T21:37:07.793135,19.487146,-31.934610,4.632504,3.437948,-1.374446,5.827653
2026-03-31T21:37:07.803135,19.544575,-28.273590,3.771088,3.778811,-1.061683,5.585750
2026-03-31T21:37:07.812135,19.233507,-24.129223,3.536591,3.926640,-0.681725,5.293757
2026-03-31T21:37:07.822135,18.003597,-19.630716,2.857030,3.841119,-0.285884,4.985881
2026-03-31T21:37:07.832135,16.620544,-15.625131,2.431107,3.558900,0.086742,4.669452
2026-03-31T21:37:07.841135,15.012568,-11.949756,1.856830,3.164281,0.403170,4.328590
2026-03-31T21:37:07.851135,13.304093,-8.757730,0.947557,2.730567,0.657290,3.964514
2026-03-31T21:37:07.860135,11.657831,-6.077769,0.071784,2.293187,0.839328,3.596773
2026-03-31T21:37:07.870135,10.073783,-3.957728,-0.842273,1.919338,0.917519,3.221702
2026-03-31T21:37:07.880135,8.767302,-1.880758,-1.856830,1.650557,0.907745,2.839301
2026-03-31T21:37:07.889135,7.594818,0.071784,-2.708675,1.480737,0.841772,2.491107
2026-03-31T21:37:07.899135,6.623332,2.062613,-3.589233,1.372003,0.723264,2.178344
2026-03-31T21:37:07.909135,5.895914,4.000799,-3.775874,1.269377,0.551000,1.908342
2026-03-31T21:37:07.918135,5.087140,6.144768,-4.618147,1.115439,0.334754,1.687209
2026-03-31T21:37:07.928135,4.670789,7.633104,-5.647061,0.899193,0.064751,1.483180
2026-03-31T21:37:07.937135,5.158925,8.743373,-5.843272,0.670729,-0.228463,1.298699
2026-03-31T21:37:07.947135,4.666004,9.399007,-5.072783,0.474031,-0.442266,1.081231
2026-03-31T21:37:07.957135,6.226124,10.021141,-6.130411,0.244346,-0.592539,0.840550
2026-03-31T21:37:07.966135,6.733402,10.284351,-6.029912,0.102625,-0.658512,0.502131
2026-03-31T21:37:07.976135,6.474977,10.590632,-5.647061,0.007330,-0.645073,0.067195
2026-03-31T21:37:07.985135,6.350551,10.451849,-5.417350,-0.178372,-0.510683,-0.447153
2026-03-31T21:37:07.995135,5.493920,10.389635,-5.441278,-0.373849,-0.390953,-1.014036
2026-03-31T21:37:08.005135,4.871786,9.786644,-4.536791,-0.636521,-0.375071,-1.578475
2026-03-31T21:37:08.014135,4.220939,9.035298,-4.240081,-0.927293,-0.494800,-2.149023
2026-03-31T21:37:08.024135,4.594219,7.580461,-3.909872,-1.159421,-0.768468,-2.703688
2026-03-31T21:37:08.034135,5.761916,5.915057,-3.723231,-1.314581,-1.084896,-3.213150
2026-03-31T21:37:08.043135,7.518248,4.474578,-3.613162,-1.381776,-1.347568,-3.681073
2026-03-31T21:37:08.053135,9.533005,3.105883,-3.321237,-1.417207,-1.480737,-4.120896
2026-03-31T21:37:08.062135,11.399406,1.756331,-2.665604,-1.401324,-1.466076,-4.516736
2026-03-31T21:37:08.072135,13.021740,0.411565,-1.622333,-1.390328,-1.335351,-4.849047
2026-03-31T21:37:08.082135,13.978869,-1.110269,-1.052841,-1.375668,-1.128878,-5.132489
2026-03-31T21:37:08.091135,14.385649,-2.928814,-0.650847,-1.392772,-0.968832,-5.384164
2026-03-31T21:37:08.101135,15.089139,-4.728217,0.559920,-1.491732,-0.940732,-5.596746
2026-03-31T21:37:08.110135,16.883757,-7.503891,2.995813,-1.707978,-1.056796,-5.721362
2026-03-31T21:37:08.120135,18.697515,-10.786844,3.938585,-2.010967,-1.147204,-5.767788
2026-03-31T21:37:08.130135,21.238693,-14.232508,5.077569,-2.332282,-1.091005,-5.692040
2026-03-31T21:37:08.139135,23.564516,-18.510876,6.786044,-2.643824,-0.797789,-5.558872
2026-03-31T21:37:08.149135,24.339790,-22.597816,7.604390,-2.855183,-0.305432,-5.420817
2026-03-31T21:37:08.159135,23.832514,-25.569702,8.930013,-2.907717,0.244346,-5.325521
2026-03-31T21:37:08.168135,22.277178,-28.230520,10.887342,-2.907717,0.756251,-5.219231
2026-03-31T21:37:08.178135,20.137995,-30.747770,11.739187,-2.890613,1.061683,-5.078732
2026-03-31T21:37:08.187135,18.903297,-32.480171,11.882757,-2.731788,1.117883,-4.911355
2026-03-31T21:37:08.197135,18.319448,-33.815369,13.026526,-2.519207,1.163087,-4.641353
2026-03-31T21:37:08.207135,17.376677,-33.269806,12.480962,-2.307848,1.218065,-4.316372
2026-03-31T21:37:08.216135,16.620544,-31.417761,12.380464,-2.195449,1.330464,-3.882658
2026-03-31T21:37:08.226135,15.337992,-28.895725,11.557333,-2.285857,1.579697,-3.376862
2026-03-31T21:37:08.235135,13.423734,-26.287548,10.116853,-2.474003,1.968207,-2.869844
2026-03-31T21:37:08.245135,10.643274,-24.090937,8.614161,-2.635272,2.439795,-2.421469
2026-03-31T21:37:08.255135,7.245466,-22.339392,7.360322,-2.649932,2.918713,-2.062280
2026-03-31T21:37:08.264135,3.986442,-20.382063,5.723631,-2.489886,3.279123,-1.828930
2026-03-31T21:37:08.274135,0.043070,-18.711872,4.737788,-2.146580,3.571117,-1.676213
2026-03-31T21:37:08.284135,-3.651447,-16.993826,4.024727,-1.583362,3.665190,-1.430646
2026-03-31T21:37:08.293135,-9.164510,-14.270793,4.206582,-0.773355,3.380527,-1.087339
2026-03-31T21:37:08.303135,-11.633903,-10.901699,3.952942,-0.146607,2.527759,-0.840550
2026-03-31T21:37:08.312135,-11.873185,-7.561319,3.598805,0.373849,1.323133,-0.564439
2026-03-31T21:37:08.322135,-9.695717,-4.455435,2.900100,0.593760,0.207694,-0.279776
2026-03-31T21:37:08.332135,-6.809973,-2.560320,1.435693,0.643851,-0.474031,-0.001221
2026-03-31T21:37:08.341135,-4.670789,-0.861416,0.363709,0.576656,-0.585208,0.239459
2026-03-31T21:37:08.351135,-3.627519,-0.090927,-0.780060,0.444709,-0.280997,0.400727
2026-03-31T21:37:08.360135,-4.024727,0.588634,-1.354337,0.334754,0.257785,0.481361
2026-03-31T21:37:08.370135,-5.728417,0.789631,-1.751546,0.229685,0.775798,0.563217
2026-03-31T21:37:08.380135,-8.236095,0.794417,-1.933400,0.167377,1.032362,0.641408
2026-03-31T21:37:08.389135,-10.423135,0.952343,-1.627119,0.124616,0.967610,0.619417
2026-03-31T21:37:08.399135,-11.973684,0.914058,-1.521835,0.064751,0.687834,0.549778
2026-03-31T21:37:08.409135,-10.925627,0.794417,-1.119840,-0.032986,0.218689,0.529009
2026-03-31T21:37:08.418135,-10.834700,0.138783,-0.258424,-0.156381,-0.324980,0.555887
2026-03-31T21:37:08.428135,-7.369893,-0.990628,-0.803988,-0.229685,-0.769690,0.626747
2026-03-31T21:37:08.437135,-7.034898,-2.933600,-0.760917,-0.254119,-1.036027,0.712268
2026-03-31T21:37:08.447135,-5.513063,-4.393222,-0.708275,-0.221133,-1.160643,0.830776
2026-03-31T21:37:08.457135,-4.426721,-5.699703,-0.579063,-0.218689,-1.220508,1.005483
2026-03-31T21:37:08.466135,-3.771088,-6.991827,-0.363709,-0.283441,-1.229060,1.211956
2026-03-31T21:37:08.476135,-2.550748,-8.197810,1.038485,-0.403170,-1.263269,1.479515
2026-03-31T21:37:08.485135,-1.813759,-9.954142,2.359323,-0.643851,-1.319468,1.821599
2026-03-31T21:37:08.495135,-1.679761,-12.758530,3.249453,-1.015257,-1.358564,2.207666
2026-03-31T21:37:08.505135,0.119641,-15.409777,3.254238,-1.426980,-1.424537,2.564411
2026-03-31T21:37:08.514135,-1.761117,-20.999411,3.938585,-1.738522,-1.479515,2.853961
2026-03-31T21:37:08.524135,-2.349751,-27.656242,5.048855,-1.858251,-1.645670,3.172833
2026-03-31T21:37:08.534135,0.937986,-34.212578,7.867600,-1.534493,-2.025628,3.270571
2026-03-31T21:37:08.543135,1.009771,-43.113876,8.240881,-0.873537,-2.224770,3.876549
2026-03-31T21:37:08.553135,4.804787,-45.348774,8.729016,0.580321,-3.163059,4.021935
2026-03-31T21:37:08.562135,10.332207,-44.090149,6.479763,1.631009,-3.483152,4.166100
2026-03-31T21:37:08.572135,13.686945,-43.468014,8.207381,2.506990,-3.666412,4.807508
2026-03-31T21:37:08.582135,18.022739,-41.357544,6.594619,2.651154,-3.480709,5.038415
2026-03-31T21:37:08.591135,20.970697,-40.357346,6.920042,2.797762,-2.765997,5.296200
2026-03-31T21:37:08.601135,20.597416,-37.064823,6.642475,2.896722,-1.951103,5.450138
2026-03-31T21:37:08.610135,19.530218,-33.997223,6.431907,2.960252,-1.309694,5.529550
2026-03-31T21:37:08.620135,17.328821,-29.938995,6.178267,2.962695,-0.885754,5.595524
2026-03-31T21:37:08.630135,15.816557,-26.737398,5.173282,2.894278,-0.649960,5.569867
2026-03-31T21:37:08.639135,14.601003,-23.411377,4.254438,2.965139,-0.526565,5.528329
2026-03-31T21:37:08.649135,13.663017,-19.563717,3.101098,3.081203,-0.511904,5.439142
2026-03-31T21:37:08.659135,13.103096,-15.993626,1.258624,3.178942,-0.533896,5.291313
2026-03-31T21:37:08.668135,13.198809,-11.825329,-0.196211,3.232698,-0.489913,5.045745
2026-03-31T21:37:08.678135,13.069597,-8.102097,-1.564905,3.213150,-0.296880,4.756196
2026-03-31T21:37:08.687135,12.653245,-4.962714,-2.411965,3.193602,0.021991,4.450763
2026-03-31T21:37:08.697135,11.361121,-1.679761,-3.919443,3.126407,0.318871,4.147774
2026-03-31T21:37:08.707135,10.131210,0.492921,-4.211367,3.004234,0.471587,3.835011
2026-03-31T21:37:08.716135,8.848657,2.900100,-5.034498,2.911383,0.430049,3.534465
2026-03-31T21:37:08.726135,8.350950,5.254638,-6.206981,2.802649,0.255341,3.242472
2026-03-31T21:37:08.735135,8.532805,8.456235,-7.312465,2.625498,0.031764,2.952921
2026-03-31T21:37:08.745135,8.221738,10.293922,-7.173682,2.205223,-0.189368,2.703688
2026-03-31T21:37:08.755135,10.212566,13.313664,-8.494520,1.667661,-0.351858,2.461786
2026-03-31T21:37:08.764135,10.212566,14.514861,-9.044869,0.901636,-0.338419,2.240653
2026-03-31T21:37:08.774135,10.389635,14.495719,-9.580861,0.125838,-0.217467,1.903455
2026-03-31T21:37:08.784135,9.815358,13.122239,-9.901499,-0.476474,-0.041538,1.407433
2026-03-31T21:37:08.793135,8.781658,11.227123,-9.753144,-0.778242,0.133168,0.674395
2026-03-31T21:37:08.803135,7.389036,10.356136,-9.499505,-0.774576,0.224798,-0.189368
2026-03-31T21:37:08.812135,6.087340,10.413563,-9.049655,-0.679282,0.161268,-1.048244
2026-03-31T21:37:08.822135,5.532205,10.849057,-8.370093,-0.708603,-0.051312,-1.786169
2026-03-31T21:37:08.832135,5.685346,10.695917,-7.235895,-0.960279,-0.346971,-2.398256
2026-03-31T21:37:08.841135,6.154339,9.327222,-6.470192,-1.324355,-0.653625,-2.895500
2026-03-31T21:37:08.851135,7.140182,6.719045,-5.862415,-1.605353,-0.932180,-3.332880
2026-03-31T21:37:08.860135,8.260023,3.905086,-5.173282,-1.666440,-1.130100,-3.765372
2026-03-31T21:37:08.870135,9.221938,1.392622,-3.895515,-1.503949,-1.221730,-4.238182
2026-03-31T21:37:08.880135,9.925428,-0.363709,-2.761317,-1.210734,-1.241277,-4.726874
2026-03-31T21:37:08.889135,10.470991,-1.330409,-1.579262,-0.930958,-1.242499,-5.121493
2026-03-31T21:37:08.899135,11.035697,-1.861615,-0.378065,-0.813672,-1.279151,-5.402491
2026-03-31T21:37:08.909135,11.322836,-2.421536,0.727418,-1.009149,-1.359785,-5.573533
2026-03-31T21:37:08.918135,13.098310,-4.292723,2.210968,-1.439198,-1.455080,-5.656610
2026-03-31T21:37:08.928135,14.825928,-7.211967,3.957728,-2.028072,-1.517388,-5.687153
2026-03-31T21:37:08.937135,16.630117,-11.169695,5.977270,-2.593733,-1.541823,-5.754349
2026-03-31T21:37:08.947135,19.123438,-16.572689,7.326822,-3.039664,-1.484402,-5.808105
2026-03-31T21:37:08.957135,21.080767,-21.832113,7.436892,-3.270571,-1.310916,-5.838648
2026-03-31T21:37:08.966135,23.440090,-27.598816,8.518448,-3.352427,-0.976162,-5.817879
2026-03-31T21:37:08.976135,24.153151,-31.039694,10.102497,-3.075094,-0.519235,-5.803218
2026-03-31T21:37:08.985135,24.196222,-33.446873,9.762716,-2.610837,-0.030543,-5.764123
2026-03-31T21:37:08.995135,23.928226,-31.360332,11.624332,-2.160019,0.453261,-5.645615
2026-03-31T21:37:09.005135,20.573488,-32.059036,11.571690,-2.101375,0.796568,-5.397604
2026-03-31T21:37:09.014135,18.424734,-30.489346,11.825329,-2.382373,0.933401,-5.032306
2026-03-31T21:37:09.024135,17.142181,-30.297918,11.566904,-2.882061,1.003040,-4.568049
2026-03-31T21:37:09.034135,15.701701,-31.207191,10.829915,-3.252245,1.152091,-4.050035
2026-03-31T21:37:09.043135,13.806586,-31.795826,9.982855,-3.331658,1.345124,-3.551569
2026-03-31T21:37:09.053135,11.265408,-31.259834,9.212367,-3.055547,1.545488,-3.090977
2026-03-31T21:37:09.062135,8.413164,-29.130222,8.800801,-2.516764,1.712865,-2.693915
2026-03-31T21:37:09.072135,5.522634,-25.751556,8.389236,-1.904677,1.826486,-2.382373
2026-03-31T21:37:09.082135,3.713660,-21.731613,7.527819,-1.382998,1.952324,-2.100154
2026-03-31T21:37:09.091135,0.579063,-18.070597,6.675975,-0.934623,2.151466,-1.782504
2026-03-31T21:37:09.101135,-3.000599,-14.725430,5.953342,-0.607199,2.332282,-1.462411
2026-03-31T21:37:09.110135,-6.771687,-11.676974,5.460421,-0.377514,2.334726,-1.109331
2026-03-31T21:37:09.120135,-10.743773,-9.241080,5.245067,-0.237015,2.013411,-0.712268
2026-03-31T21:37:09.130135,-12.681959,-7.355536,4.354937,-0.212581,1.329242,-0.291993
2026-03-31T21:37:09.139135,-12.763315,-5.833701,3.373879,-0.160046,0.565661,0.169820
2026-03-31T21:37:09.149135,-11.705688,-5.053641,1.464407,-0.127059,0.073303,0.646295
2026-03-31T21:37:09.159135,-10.868200,-4.058227,0.239282,-0.024434,-0.030543,1.069013
2026-03-31T21:37:09.168135,-11.059626,-3.436093,-0.981057,0.114842,0.144164,1.372003
2026-03-31T21:37:09.178135,-12.394821,-3.019742,-0.071784,0.261450,0.469144,1.519832
2026-03-31T21:37:09.187135,-12.476177,-2.301895,-1.320838,0.439822,0.619417,1.615127
2026-03-31T21:37:09.197135,-13.677373,-1.698904,-1.024128,0.635299,0.579100,1.699426
2026-03-31T21:37:09.207135,-12.313465,-1.306481,-1.263410,0.799011,0.280997,1.773952
2026-03-31T21:37:09.216135,-11.480762,-1.091127,-2.019542,0.910189,-0.064751,1.816712
2026-03-31T21:37:09.226135,-10.135996,-0.540777,-1.942971,0.882089,-0.361632,1.859473
2026-03-31T21:37:09.235135,-8.547162,-0.564706,-1.818545,0.696386,-0.602312,1.948659
2026-03-31T21:37:09.245135,-7.231109,-1.004985,-1.674975,0.340862,-0.797789,2.102597
2026-03-31T21:37:09.255135,-6.039484,-2.201396,-1.584048,-0.097738,-0.952949,2.309070
2026-03-31T21:37:09.264135,-5.321637,-4.417150,-1.411765,-0.543669,-1.088561,2.560746
2026-03-31T21:37:09.274135,-4.780859,-7.719245,-0.952343,-0.888197,-1.247386,2.835635
2026-03-31T21:37:09.284135,-4.264009,-11.686545,-0.162711,-1.037248,-1.506393,3.073873
2026-03-31T21:37:09.293135,-3.302095,-15.672988,1.148554,-0.987158,-1.871690,3.288897
2026-03-31T21:37:09.303135,-1.646261,-19.980068,3.168097,-0.789237,-2.321287,3.550348
2026-03-31T21:37:09.312135,0.267996,-24.813570,4.484149,-0.577878,-2.814866,3.930306
2026-03-31T21:37:09.322135,2.876172,-29.072794,5.168496,-0.350636,-3.215593,4.278499
2026-03-31T21:37:09.332135,5.541777,-33.198021,5.364708,-0.164933,-3.398853,4.660900
2026-03-31T21:37:09.341135,7.767102,-37.576885,5.527420,-0.019547,-3.315775,5.043302
2026-03-31T21:37:09.351135,9.212367,-41.486759,5.201996,0.208915,-3.026225,5.314526
2026-03-31T21:37:09.360135,9.757930,-43.736012,5.297709,0.671951,-2.660928,5.501450
2026-03-31T21:37:09.370135,9.566504,-44.391644,4.895715,1.348790,-2.432464,5.594302
2026-03-31T21:37:09.380135,9.341579,-43.195232,3.914657,2.235766,-2.436130,5.607741
2026-03-31T21:37:09.389135,10.427920,-39.491142,4.350151,3.133738,-2.511877,5.530772
2026-03-31T21:37:09.399135,11.877971,-35.136208,4.015156,3.839898,-2.520429,5.365839
2026-03-31T21:37:09.409135,13.265808,-30.058638,3.919443,4.366463,-2.430021,5.158144
2026-03-31T21:37:09.418135,14.438291,-24.670000,3.426521,4.579044,-2.239431,4.897916
2026-03-31T21:37:09.428135,15.074782,-19.779072,2.727817,4.524067,-1.902233,4.583931
2026-03-31T21:37:09.437135,15.476776,-15.352349,2.311466,4.244290,-1.392772,4.247955
2026-03-31T21:37:09.447135,15.180066,-11.849257,1.765903,3.836232,-0.740368,3.914423
2026-03-31T21:37:09.457135,13.701302,-9.140582,1.100698,3.370753,-0.091629,3.578447
2026-03-31T21:37:09.466135,11.964113,-7.288537,0.459421,2.919935,0.508239,3.257132
2026-03-31T21:37:09.476135,9.868000,-5.632704,0.000000,2.544864,0.940732,2.951700
2026-03-31T21:37:09.485135,7.121040,-3.378665,-0.746560,2.262644,1.145982,2.640159
2026-03-31T21:37:09.495135,5.938985,-2.067398,-0.899701,1.955990,1.125213,2.404365
2026-03-31T21:37:09.505135,4.929214,-0.363709,-1.287338,1.616349,0.921184,2.241874
2026-03-31T21:37:09.514135,4.890929,1.134197,-1.770688,1.235169,0.571769,2.108706
2026-03-31T21:37:09.524135,5.331208,2.512463,-2.483749,0.858876,0.195476,2.014633
2026-03-31T21:37:09.534135,6.503691,3.455235,-3.340380,0.478918,-0.151494,1.971872
2026-03-31T21:37:09.543135,7.092326,2.072184,-4.259224,0.223576,-0.393397,1.891238
2026-03-31T21:37:09.553135,9.131011,4.240081,-5.871986,0.094073,-0.496022,1.748295
2026-03-31T21:37:09.562135,10.121639,4.101297,-6.853043,0.138055,-0.475253,1.527162
2026-03-31T21:37:09.572135,10.566704,4.780859,-6.532405,0.333532,-0.295658,1.197295
2026-03-31T21:37:09.582135,9.537790,5.675775,-7.140182,0.569326,-0.041538,0.744033
2026-03-31T21:37:09.591135,9.623932,7.341179,-6.594619,0.729372,0.179594,0.213802
2026-03-31T21:37:09.601135,8.360522,8.796015,-6.015556,0.691499,0.321315,-0.355523
2026-03-31T21:37:09.610135,7.159325,9.810572,-5.211567,0.485026,0.342084,-0.937067
2026-03-31T21:37:09.620135,6.159125,10.159924,-4.340580,0.142942,0.259006,-1.495397
2026-03-31T21:37:09.630135,5.489135,9.815358,-3.885943,-0.260228,0.084299,-1.996307
2026-03-31T21:37:09.639135,5.139782,8.997012,-3.335594,-0.654847,-0.156381,-2.450790
2026-03-31T21:37:09.649135,5.297709,7.905885,-2.947957,-1.016479,-0.417831,-2.873509
2026-03-31T21:37:09.659135,5.613561,6.451049,-3.148954,-1.297477,-0.685390,-3.224146
2026-03-31T21:37:09.668135,6.173482,4.967499,-3.316452,-1.488067,-0.930958,-3.530800
2026-03-31T21:37:09.678135,7.207181,3.273381,-2.957528,-1.596801,-1.064127,-3.864332
2026-03-31T21:37:09.687135,8.116454,1.593619,-2.230110,-1.588249,-1.065348,-4.181982
2026-03-31T21:37:09.697135,8.781658,-0.095712,-1.172483,-1.483180,-0.977384,-4.487415
2026-03-31T21:37:09.707135,9.035298,-1.804188,-0.033499,-1.336572,-0.847880,-4.773299
2026-03-31T21:37:09.716135,8.781658,-3.354737,0.722632,-1.152091,-0.762359,-5.044524
2026-03-31T21:37:09.726135,8.690731,-4.785645,1.861615,-1.053131,-0.766024,-5.269322
2026-03-31T21:37:09.735135,9.059226,-6.991827,3.488735,-1.149648,-0.882089,-5.453803
2026-03-31T21:37:09.745135,10.389635,-9.212367,5.551348,-1.463632,-1.111774,-5.611407
2026-03-31T21:37:09.755135,13.184452,-12.327822,7.623532,-1.885129,-1.367116,-5.698149
2026-03-31T21:37:09.764135,16.199409,-16.252050,8.934799,-2.383595,-1.501506,-5.678602
2026-03-31T21:37:09.774135,18.745373,-20.271994,8.508877,-2.819753,-1.530827,-5.689597
2026-03-31T21:37:09.784135,21.793827,-23.282164,8.102097,-3.257132,-1.385442,-5.861861
2026-03-31T21:37:09.793135,24.339790,-25.153351,7.934599,-3.626095,-0.967610,-6.078107
2026-03-31T21:37:09.803135,26.072195,-26.684757,7.862815,-3.878993,-0.411723,-6.173402
2026-03-31T21:37:09.812135,26.206194,-28.182665,7.020541,-4.029266,0.118507,-6.218606
2026-03-31T21:37:09.822135,25.512274,-29.426931,6.532405,-4.062252,0.571769,-6.163628
2026-03-31T21:37:09.832135,24.354149,-29.513073,6.522834,-3.977953,0.893084,-5.982812
2026-03-31T21:37:09.841135,23.210379,-28.991438,6.494120,-3.909536,1.066570,-5.685932
2026-03-31T21:37:09.851135,22.147964,-27.718456,6.250052,-3.859445,1.221730,-5.349956
2026-03-31T21:37:09.860135,20.496918,-26.584259,5.991627,-3.842341,1.484402,-4.967555
2026-03-31T21:37:09.870135,17.979670,-25.818556,5.828915,-3.726277,1.810604,-4.619361
2026-03-31T21:37:09.880135,14.830714,-24.842283,5.498706,-3.378084,2.125810,-4.351803
2026-03-31T21:37:09.889135,10.954341,-23.928226,4.713860,-2.786766,2.399478,-4.125782
2026-03-31T21:37:09.899135,6.786044,-22.607388,4.168296,-2.006081,2.580294,-3.905871
2026-03-31T21:37:09.909135,2.512463,-20.367704,4.292723,-1.117883,2.634050,-3.701842
2026-03-31T21:37:09.918135,-0.636490,-17.505890,4.292723,-0.355523,2.530203,-3.533243
2026-03-31T21:37:09.928135,-4.402793,-14.500504,4.555934,0.298102,2.348165,-3.231476
2026-03-31T21:37:09.937135,-7.460820,-11.251051,5.029713,0.649960,1.962098,-2.803870
2026-03-31T21:37:09.947135,-8.906085,-9.245866,5.077569,0.609643,1.342681,-2.333504
2026-03-31T21:37:09.957135,-9.265009,-7.953742,4.000799,0.291993,0.772133,-1.799608
2026-03-31T21:37:09.966135,-8.475377,-8.145168,3.349951,-0.228463,0.439822,-1.208291
2026-03-31T21:37:09.976135,-8.216952,-9.652646,2.187039,-0.646295,0.471587,-0.637743
2026-03-31T21:37:09.985135,-8.772087,-11.399406,1.301695,-0.795346,0.805120,-0.162490
2026-03-31T21:37:09.995135,-11.040483,-13.055240,0.224925,-0.646295,1.229060,0.232128
2026-03-31T21:37:10.005135,-14.170295,-13.954941,-1.167697,-0.230907,1.461189,0.533896
2026-03-31T21:37:10.014135,-16.941183,-14.002797,-2.038684,0.291993,1.347568,0.767246
2026-03-31T21:37:10.024135,-18.061024,-13.136596,-1.316052,0.706160,0.880867,1.031140
2026-03-31T21:37:10.034135,-16.539188,-12.260823,-0.153140,0.871093,0.222354,1.393994
2026-03-31T21:37:10.043135,-13.495519,-11.930613,0.617348,0.791681,-0.400727,1.847256
2026-03-31T21:37:10.053135,-9.643075,-12.442677,1.148554,0.603534,-0.757472,2.305404
2026-03-31T21:37:10.062135,-6.384050,-12.863814,1.880758,0.474031,-0.829554,2.736675
2026-03-31T21:37:10.072135,-4.153940,-12.806386,2.670390,0.439822,-0.714712,3.137403
2026-03-31T21:37:10.082135,-2.148754,-13.567304,3.091526,0.535117,-0.547335,3.510030
2026-03-31T21:37:10.091135,-0.947557,-13.725230,3.627519,0.741590,-0.430049,3.824015
2026-03-31T21:37:10.101135,0.392422,-13.572089,3.885943,0.970053,-0.408057,4.087909
2026-03-31T21:37:10.110135,1.899901,-13.385449,4.508077,1.123991,-0.478918,4.301712
2026-03-31T21:37:10.120135,3.847658,-13.682159,5.474778,1.094670,-0.579100,4.504519
2026-03-31T21:37:10.130135,5.891129,-14.950355,6.106483,0.844215,-0.704938,4.790404
2026-03-31T21:37:10.139135,8.260023,-17.625530,6.250052,0.419053,-0.788015,5.149592
2026-03-31T21:37:10.149135,10.384850,-21.731613,5.709274,0.003665,-0.709825,5.535659
2026-03-31T21:37:10.159135,11.428120,-26.675186,4.828716,-0.210137,-0.491135,5.897291
2026-03-31T21:37:10.168135,11.490334,-31.948967,4.675575,-0.112399,-0.263893,6.180733
2026-03-31T21:37:10.178135,10.882557,-36.854252,4.876572,0.386066,-0.239459,6.393314
2026-03-31T21:37:10.187135,10.758130,-40.390846,6.154339,1.290147,-0.555887,6.509378
2026-03-31T21:37:10.197135,12.160324,-41.036907,7.637889,2.425134,-1.178969,6.513043
2026-03-31T21:37:10.207135,14.916856,-38.763725,7.116254,3.419622,-1.920559,6.432409
2026-03-31T21:37:10.216135,18.582661,-34.987850,5.393422,4.056144,-2.426356,6.298019
2026-03-31T21:37:10.226135,21.774685,-30.245277,4.857429,4.355468,-2.387260,6.109872
2026-03-31T21:37:10.235135,23.334805,-24.722643,4.254438,4.241847,-1.951103,5.921726
2026-03-31T21:37:10.245135,23.669802,-19.831713,3.885943,3.842341,-1.313359,5.701814
2026-03-31T21:37:10.255135,22.234106,-15.735201,3.488735,3.271793,-0.570548,5.490455
2026-03-31T21:37:10.264135,19.439289,-12.327822,2.837887,2.718349,0.048869,5.208235
2026-03-31T21:37:10.274135,16.180265,-9.241080,1.698904,2.255313,0.422718,4.841716
2026-03-31T21:37:10.284135,13.318450,-6.283552,0.306281,1.923003,0.571769,4.411667
2026-03-31T21:37:10.293135,11.054840,-3.340380,-0.531206,1.672548,0.577878,3.981618
2026-03-31T21:37:10.303135,9.399007,-0.540777,-1.038485,1.455080,0.456927,3.571117
2026-03-31T21:37:10.312135,8.178667,1.856830,-2.014756,1.215621,0.205250,3.183828
2026-03-31T21:37:10.322135,7.762316,4.201796,-3.038884,0.977384,-0.127059,2.806314
2026-03-31T21:37:10.332135,7.996813,6.197410,-3.598805,0.728151,-0.428827,2.452012
2026-03-31T21:37:10.341135,8.441878,7.484749,-4.005585,0.499687,-0.620638,2.131919
2026-03-31T21:37:10.351135,8.312665,7.623532,-3.594019,0.395840,-0.800233,1.822821
2026-03-31T21:37:10.360135,8.863014,8.652446,-5.460421,0.335975,-0.838106,1.547932
2026-03-31T21:37:10.370135,8.714659,9.260223,-5.819344,0.329867,-0.902858,1.219286
2026-03-31T21:37:10.380135,9.475577,9.580861,-5.340780,0.411723,-0.983492,0.801455
2026-03-31T21:37:10.389135,9.757930,10.174281,-4.905286,0.370184,-1.015257,0.318871
2026-03-31T21:37:10.399135,10.241280,10.255637,-4.158725,0.312762,-0.878424,-0.279776
2026-03-31T21:37:10.409135,10.346564,9.920642,-3.431307,0.163711,-0.581543,-1.010370
2026-03-31T21:37:10.418135,9.824929,9.623932,-3.158525,-0.012217,-0.255341,-1.795943
2026-03-31T21:37:10.428135,8.949156,9.590432,-3.077169,-0.293215,-0.030543,-2.531425
2026-03-31T21:37:10.437135,8.638089,9.178867,-2.311466,-0.731816,0.031764,-3.120298
2026-03-31T21:37:10.447135,8.896514,8.063812,-1.387837,-1.293812,-0.052534,-3.569895
2026-03-31T21:37:10.457135,9.925428,5.474778,-1.512263,-1.881464,-0.233350,-3.867997
2026-03-31T21:37:10.466135,11.691331,2.354537,-1.416550,-2.249205,-0.387288,-4.064696
2026-03-31T21:37:10.476135,13.605589,-0.914058,-0.837487,-2.390926,-0.412944,-4.233295
2026-03-31T21:37:10.485135,15.352349,-4.177868,-0.411565,-2.278526,-0.267558,-4.421441
2026-03-31T21:37:10.495135,16.017553,-6.508477,0.421136,-1.949881,-0.021991,-4.647461
2026-03-31T21:37:10.505135,16.395620,-8.944370,1.229910,-1.534493,0.280997,-4.895472
2026-03-31T21:37:10.514135,15.773486,-9.671788,2.440679,-1.060461,0.576656,-5.144705
2026-03-31T21:37:10.524135,14.682359,-10.399207,3.742374,-0.736703,0.772133,-5.276652
2026-03-31T21:37:10.534135,13.552947,-10.609775,5.718846,-0.667064,0.757472,-5.291313
2026-03-31T21:37:10.543135,13.131810,-11.394621,7.642675,-0.855211,0.560774,-5.296200
2026-03-31T21:37:10.553135,14.079368,-13.801800,7.848458,-1.128878,0.340862,-5.298644
2026-03-31T21:37:10.562135,15.304493,-16.089338,9.035298,-1.350011,0.270002,-5.285204
2026-03-31T21:37:10.572135,16.400406,-17.721245,9.274580,-1.444085,0.339641,-5.308418
2026-03-31T21:37:10.582135,16.548761,-20.305492,8.977870,-1.446528,0.555887,-5.341404
2026-03-31T21:37:10.591135,15.792629,-21.052053,8.671589,-1.418428,0.885754,-5.408599
2026-03-31T21:37:10.601135,14.060225,-21.387049,8.815158,-1.492954,1.232725,-5.457468
2026-03-31T21:37:10.610135,11.882757,-21.602402,9.513862,-1.696983,1.452637,-5.505116
2026-03-31T21:37:10.620135,9.887142,-22.281963,9.556933,-2.035402,1.479515,-5.551542
2026-03-31T21:37:10.630135,8.489734,-23.210379,9.619146,-2.397034,1.375668,-5.516111
2026-03-31T21:37:10.639135,7.422535,-24.004795,9.327222,-2.709797,1.196073,-5.381721
2026-03-31T21:37:10.649135,6.632904,-24.201008,8.183453,-2.949256,0.999375,-5.115384
2026-03-31T21:37:10.659135,5.771488,-24.134008,7.049255,-3.060434,0.845437,-4.709769
2026-03-31T21:37:10.668135,4.876572,-23.679373,6.173482,-3.037221,0.745255,-4.260173
2026-03-31T21:37:10.678135,3.574876,-23.167309,5.254638,-2.867400,0.723264,-3.799580
2026-03-31T21:37:10.687135,1.751546,-22.305893,4.594219,-2.549750,0.723264,-3.371975
2026-03-31T21:37:10.697135,-0.177068,-20.405991,4.560719,-2.100154,0.669508,-3.040886
2026-03-31T21:37:10.707135,-1.780260,-17.941383,5.264209,-1.699426,0.527787,-2.757445
2026-03-31T21:37:10.716135,-2.943171,-15.778272,6.049055,-1.429424,0.299323,-2.444682
2026-03-31T21:37:10.726135,-3.866801,-14.414363,5.379065,-1.287703,-0.009773,-2.047619
2026-03-31T21:37:10.735135,-4.182653,-13.399806,4.211367,-1.097113,-0.328645,-1.655444
2026-03-31T21:37:10.745135,-4.110869,-11.949756,3.929014,-0.901636,-0.532674,-1.319468
2026-03-31T21:37:10.755135,-3.804587,-10.614561,4.024727,-0.764803,-0.575434,-0.954171
2026-03-31T21:37:10.764135,-3.833301,-9.571290,4.426721,-0.690277,-0.497244,-0.521678
2026-03-31T21:37:10.774135,-4.441078,-9.279366,4.072584,-0.610865,-0.334754,-0.035430
2026-03-31T21:37:10.784135,-5.383850,-9.566504,3.579662,-0.403170,-0.169820,0.434935
2026-03-31T21:37:10.793135,-6.302694,-9.375078,3.177668,-0.036651,-0.065973,0.841772
2026-03-31T21:37:10.803135,-7.422535,-8.446663,2.258824,0.445931,-0.089186,1.181413
2026-03-31T21:37:10.812135,-8.288737,-6.853043,1.416550,0.929736,-0.241902,1.450193
2026-03-31T21:37:10.822135,-8.465806,-5.527420,1.277767,1.244943,-0.455705,1.642005
2026-03-31T21:37:10.832135,-7.451249,-3.603590,0.981057,1.334129,-0.659734,1.791056
2026-03-31T21:37:10.841135,-7.149753,-2.904886,1.507478,1.176526,-0.756251,1.971872
2026-03-31T21:37:10.851135,-5.938985,-2.761317,2.335394,0.845437,-0.816115,2.169792
2026-03-31T21:37:10.860135,-4.718646,-4.110869,2.383251,0.509461,-0.833220,2.405586
2026-03-31T21:37:10.870135,-4.072584,-6.240481,1.732403,0.373849,-0.816115,2.651154
2026-03-31T21:37:10.880135,-3.584448,-8.250452,1.694118,0.449596,-0.778242,2.818531
2026-03-31T21:37:10.889135,-2.981456,-8.355736,2.952743,0.663399,-0.748920,2.906496
2026-03-31T21:37:10.899135,-2.258824,-10.370493,3.857230,0.808785,-0.790459,3.040886
2026-03-31T21:37:10.909135,-1.095912,-11.767901,5.402993,0.742811,-0.917519,3.230254
2026-03-31T21:37:10.918135,0.799202,-14.816357,7.077969,0.459370,-1.069013,3.518583
2026-03-31T21:37:10.928135,2.852244,-19.429720,8.015955,0.100181,-1.194852,3.941301
2026-03-31T21:37:10.937135,5.015356,-25.086351,8.288737,-0.144164,-1.263269,4.417776
2026-03-31T21:37:10.947135,6.422335,-30.508488,7.274180,-0.179594,-1.161865,4.838051
2026-03-31T21:37:10.957135,8.049455,-35.681770,8.891728,0.182037,-0.885754,5.222896
2026-03-31T21:37:10.966135,7.934599,-37.433315,7.810172,0.803898,-0.571769,5.596746
2026-03-31T21:37:10.976135,7.164110,-37.907097,8.283951,1.423315,-0.408057,5.875300
2026-03-31T21:37:10.985135,7.082754,-38.538799,9.528219,1.914451,-0.491135,6.021908
2026-03-31T21:37:10.995135,8.714659,-40.137207,10.633703,2.364047,-0.885754,6.052451
2026-03-31T21:37:11.005135,11.734402,-40.362129,9.734002,2.993239,-1.467297,6.031682
2026-03-31T21:37:11.014135,15.735201,-37.308887,8.260023,3.597995,-1.861916,5.936387
2026-03-31T21:37:11.024135,19.252649,-33.226734,6.891329,3.905871,-1.726304,5.853309
2026-03-31T21:37:11.034135,20.650059,-28.967510,6.149554,3.993836,-1.141096,5.788557
2026-03-31T21:37:11.043135,19.472790,-24.038296,5.603990,3.966958,-0.436157,5.684711
2026-03-31T21:37:11.053135,17.190037,-19.405790,4.752145,3.848450,0.105068,5.452581
2026-03-31T21:37:11.062135,14.481362,-15.266208,3.852444,3.677407,0.525343,5.130044
2026-03-31T21:37:11.072135,11.820543,-11.839686,2.828316,3.475822,0.796568,4.732982
2026-03-31T21:37:11.082135,9.667003,-8.872586,1.397408,3.327993,0.857654,4.261395
2026-03-31T21:37:11.091135,8.394021,-5.316851,-0.110069,3.232698,0.764803,3.754376
2026-03-31T21:37:11.101135,7.532605,-1.895115,-1.732403,3.055547,0.597426,3.307223
2026-03-31T21:37:11.110135,7.456035,1.038485,-3.330809,2.746449,0.411723,2.952921
2026-03-31T21:37:11.120135,7.546962,3.632304,-4.608576,2.307848,0.261450,2.684141
2026-03-31T21:37:11.130135,7.805387,5.307280,-4.651647,1.766621,0.139277,2.472781
2026-03-31T21:37:11.139135,7.757530,6.407978,-6.235695,1.237612,0.050090,2.288300
2026-03-31T21:37:11.149135,8.111668,7.144968,-7.609175,0.769690,0.047647,2.075719
2026-03-31T21:37:11.159135,8.346165,6.943971,-7.886743,0.488692,0.050090,1.772730
2026-03-31T21:37:11.168135,7.360322,7.087540,-8.623732,0.349414,-0.018325,1.433089
2026-03-31T21:37:11.178135,7.125825,7.838886,-9.150153,0.311541,-0.149051,1.044579
2026-03-31T21:37:11.187135,7.570890,8.288737,-7.858029,0.318871,-0.354301,0.607199
2026-03-31T21:37:11.197135,8.121239,8.685946,-7.599604,0.277332,-0.549778,0.139277
2026-03-31T21:37:11.207135,8.987441,9.308079,-7.092326,0.161268,-0.673173,-0.376292
2026-03-31T21:37:11.216135,9.820143,9.604789,-6.312266,-0.031764,-0.712268,-0.950506
2026-03-31T21:37:11.226135,10.399207,9.801001,-5.484349,-0.320093,-0.676838,-1.549153
2026-03-31T21:37:11.235135,10.858628,9.274580,-4.230510,-0.671951,-0.620638,-2.125810
2026-03-31T21:37:11.245135,11.298908,8.231309,-2.919243,-1.004262,-0.580321,-2.660928
2026-03-31T21:37:11.255135,11.720045,6.704688,-1.866401,-1.268155,-0.570548,-3.125185
2026-03-31T21:37:11.264135,12.150753,4.828716,-1.674975,-1.386663,-0.596204,-3.522248
2026-03-31T21:37:11.274135,12.921242,3.565305,-1.000199,-1.396437,-0.607199,-3.889989
2026-03-31T21:37:11.284135,13.806586,2.029113,0.057427,-1.400102,-0.576656,-4.233295
2026-03-31T21:37:11.293135,14.735001,0.234496,1.110269,-1.364672,-0.508239,-4.555831
2026-03-31T21:37:11.303135,15.582060,-1.507478,1.799402,-1.324355,-0.452040,-4.840495
2026-03-31T21:37:11.312135,16.419548,-3.373879,2.459821,-1.302364,-0.379958,-5.081175
2026-03-31T21:37:11.322135,17.103895,-5.015356,3.522234,-1.387885,-0.257785,-5.285204
2026-03-31T21:37:11.332135,17.376677,-7.216752,4.532006,-1.566258,-0.050090,-5.483125
2026-03-31T21:37:11.341135,16.563118,-9.781858,5.905486,-1.781282,0.195476,-5.667606
2026-03-31T21:37:11.351135,15.404991,-12.868599,6.814758,-1.959655,0.370184,-5.865526
2026-03-31T21:37:11.360135,13.969298,-15.979269,7.862815,-2.075719,0.401949,-6.017021
2026-03-31T21:37:11.370135,13.524233,-18.984653,9.221938,-2.127032,0.307876,-6.153855
2026-03-31T21:37:11.380135,14.045868,-22.372890,11.140982,-2.193005,0.158824,-6.213719
2026-03-31T21:37:11.389135,13.725230,-25.603201,12.203395,-2.167349,0.086742,-6.243041
2026-03-31T21:37:11.399135,14.165509,-28.264021,12.236894,-2.018298,0.089186,-6.284580
2026-03-31T21:37:11.409135,14.021940,-29.886354,12.658031,-1.841147,0.208915,-6.258923
2026-03-31T21:37:11.418135,13.399806,-31.164122,13.653445,-1.809382,0.421496,-6.096433
2026-03-31T21:37:11.428135,12.356535,-31.805397,13.768301,-1.876577,0.652403,-5.841092
2026-03-31T21:37:11.437135,10.906485,-32.312675,13.509876,-1.979202,0.851545,-5.428147
2026-03-31T21:37:11.447135,9.341579,-31.819754,13.332807,-2.057393,1.001818,-4.948007
2026-03-31T21:37:11.457135,7.633104,-30.953552,12.571889,-2.147801,1.087339,-4.399450
2026-03-31T21:37:11.466135,5.905486,-29.412575,11.590832,-2.146580,1.105665,-3.792250
2026-03-31T21:37:11.476135,4.264009,-27.771099,10.222138,-2.083050,1.077566,-3.172833
2026-03-31T21:37:11.485135,2.952743,-25.560131,9.154939,-1.908342,1.081231,-2.625498
2026-03-31T21:37:11.495135,1.119840,-22.789242,8.183453,-1.701870,1.131322,-2.134362
2026-03-31T21:37:11.505135,-0.933200,-20.386848,7.288537,-1.496619,1.160643,-1.687209
2026-03-31T21:37:11.514135,-3.000599,-17.917456,6.790830,-1.230282,1.136209,-1.265712
2026-03-31T21:37:11.524135,-5.053641,-15.811771,6.010770,-0.924849,0.992044,-0.890641
2026-03-31T21:37:11.534135,-6.498906,-13.237094,5.795416,-0.530230,0.719599,-0.566882
2026-03-31T21:37:11.543135,-7.125825,-10.633703,5.656632,-0.189368,0.357966,-0.272445
2026-03-31T21:37:11.553135,-7.302894,-8.312665,5.096712,0.116064,-0.001221,0.007330
2026-03-31T21:37:11.562135,-6.934399,-6.163911,4.340580,0.362853,-0.280997,0.282219
2026-03-31T21:37:11.572135,-6.518048,-4.402793,3.560520,0.541226,-0.438601,0.546113
2026-03-31T21:37:11.582135,-6.407978,-2.751745,3.349951,0.663399,-0.445931,0.794124
2026-03-31T21:37:11.591135,-6.652046,-1.545763,2.617747,0.706160,-0.338419,1.061683
2026-03-31T21:37:11.601135,-7.518248,-0.813559,1.780260,0.635299,-0.180816,1.335351
2026-03-31T21:37:11.610135,-8.011170,-1.143769,3.148954,0.568104,0.053756,1.561371
2026-03-31T21:37:11.620135,-10.289137,-0.105284,0.617348,0.483805,0.130725,1.758069
2026-03-31T21:37:11.630135,-11.298908,-0.416351,-0.148355,0.437379,0.076969,1.879021
2026-03-31T21:37:11.639135,-12.007183,-0.363709,0.177068,0.430049,-0.063529,1.980424
2026-03-31T21:37:11.649135,-11.600403,-0.311066,-1.359123,0.382401,-0.373849,2.131919
2026-03-31T21:37:11.659135,-10.882557,-0.368494,-2.187039,0.302989,-0.752585,2.304183
2026-03-31T21:37:11.668135,-9.312865,-1.095912,-3.694518,0.202807,-1.123991,2.535090
2026-03-31T21:37:11.678135,-8.551947,-2.244467,-4.670789,0.116064,-1.441641,2.811201
2026-03-31T21:37:11.687135,-7.384250,-3.550948,-5.106283,0.057421,-1.639561,3.018895
2026-03-31T21:37:11.697135,-6.613761,-4.637290,-4.153940,0.024434,-1.716530,3.143511
2026-03-31T21:37:11.707135,-6.561119,-5.718846,-2.766102,-0.032986,-1.799608,3.202154
2026-03-31T21:37:11.716135,-6.618547,-7.389036,-1.655833,-0.153938,-2.009746,3.265684
2026-03-31T21:37:11.726135,-6.307480,-9.753144,0.689132,-0.390953,-2.375043,3.374418
2026-03-31T21:37:11.735135,-5.307280,-13.227523,2.718246,-0.783129,-2.851518,3.582113
2026-03-31T21:37:11.745135,-3.852444,-17.927027,4.230510,-1.303586,-3.360979,3.959627
2026-03-31T21:37:11.755135,-1.067198,-25.722841,5.441278,-1.855808,-3.861889,4.442211
2026-03-31T21:37:11.764135,3.680161,-36.323048,7.341179,-1.886351,-4.136778,4.845382
2026-03-31T21:37:11.774135,9.217152,-47.210388,9.509077,-0.982271,-3.988949,5.097058
2026-03-31T21:37:11.784135,13.232308,-51.866821,9.399007,0.900415,-3.597995,5.287648
2026-03-31T21:37:11.793135,14.146367,-47.334816,9.212367,2.919935,-3.280345,5.415930
2026-03-31T21:37:11.803135,14.677573,-38.797226,10.265208,4.012162,-2.989573,5.519777
2026-03-31T21:37:11.812135,15.208780,-34.016365,10.222138,3.993836,-2.654819,5.600411
2026-03-31T21:37:11.822135,16.041483,-32.456245,10.509276,3.645642,-2.188118,5.529550
2026-03-31T21:37:11.832135,15.960126,-31.877182,9.978070,3.363423,-1.732413,5.271765
2026-03-31T21:37:11.841135,15.519847,-30.001209,9.097511,3.371975,-1.423315,4.915020
2026-03-31T21:37:11.851135,14.816357,-26.124838,8.082954,3.387857,-1.214399,4.616918
2026-03-31T21:37:11.860135,14.567503,-22.688744,6.283552,3.257132,-1.028696,4.422663
2026-03-31T21:37:11.870135,14.270793,-18.190237,4.240081,3.109303,-0.780685,4.250399
2026-03-31T21:37:11.880135,13.978869,-14.304293,3.072384,2.805092,-0.421496,4.024379
2026-03-31T21:37:11.889135,12.926027,-10.715059,2.612962,2.453234,0.051312,3.726277
2026-03-31T21:37:11.899135,11.145767,-8.322237,0.784845,2.084271,0.381179,3.386636
2026-03-31T21:37:11.909135,9.695717,-6.513263,-1.454836,1.833817,0.460592,2.994460
2026-03-31T21:37:11.918135,8.843872,-4.254438,-3.182454,1.717752,0.421496,2.546085
2026-03-31T21:37:11.928135,8.556733,-1.813759,-4.441078,1.618792,0.371405,2.144136
2026-03-31T21:37:11.937135,8.480163,0.713061,-5.015356,1.479515,0.305432,1.839925
2026-03-31T21:37:11.947135,8.781658,2.876172,-5.125426,1.247386,0.177150,1.628566
2026-03-31T21:37:11.957135,9.623932,4.680361,-5.785845,0.992044,0.015882,1.430646
2026-03-31T21:37:11.966135,10.470991,6.436692,-7.034898,0.719599,-0.074525,1.213178
2026-03-31T21:37:11.976135,11.394621,7.264609,-8.379664,0.482583,0.013439,0.911410
2026-03-31T21:37:11.985135,12.725030,8.681160,-8.992227,0.346971,0.238237,0.493579
2026-03-31T21:37:11.995135,10.748559,8.078169,-7.288537,0.268780,0.591317,0.003665
2026-03-31T21:37:12.005135,10.609775,9.566504,-8.231309,0.182037,0.932180,-0.575434
2026-03-31T21:37:12.014135,9.035298,10.537990,-8.226524,0.062308,1.067792,-1.183856
2026-03-31T21:37:12.024135,8.097311,11.413763,-5.943771,-0.208915,1.081231,-1.780060
2026-03-31T21:37:12.034135,7.087540,11.341979,-5.245067,-0.614530,0.966388,-2.348165
2026-03-31T21:37:12.043135,6.604190,10.504491,-4.488935,-1.043357,0.736703,-2.916270
2026-03-31T21:37:12.053135,7.020541,8.915657,-3.507877,-1.431867,0.443488,-3.478265
2026-03-31T21:37:12.062135,8.063812,6.690331,-2.880958,-1.699426,0.131946,-4.001166
2026-03-31T21:37:12.072135,9.628718,4.498506,-2.263610,-1.822821,-0.120951,-4.453206
2026-03-31T21:37:12.082135,11.399406,2.397608,-1.674975,-1.842369,-0.240680,-4.851490
2026-03-31T21:37:12.091135,12.926027,0.535992,-1.440479,-1.778839,-0.218689,-5.215566
2026-03-31T21:37:12.101135,13.954941,-1.067198,-1.004985,-1.696983,-0.095294,-5.519777
2026-03-31T21:37:12.110135,14.787643,-2.450250,0.133998,-1.628566,0.010995,-5.788557
2026-03-31T21:37:12.120135,15.409777,-4.340580,1.502692,-1.705535,0.029321,-5.991365
2026-03-31T21:37:12.130135,16.931612,-7.513462,2.775674,-1.831373,-0.054977,-6.122090
2026-03-31T21:37:12.139135,18.549160,-10.920842,4.264009,-1.907120,-0.145385,-6.214941
2026-03-31T21:37:12.149135,19.965712,-14.648859,5.876772,-1.942551,-0.151494,-6.251593
2026-03-31T21:37:12.159135,21.549761,-17.850456,6.407978,-1.903455,-0.052534,-6.206389
2026-03-31T21:37:12.168135,22.076181,-19.788643,7.738388,-1.927890,0.141720,-6.101320
2026-03-31T21:37:12.178135,21.564117,-20.774485,8.920442,-2.149023,0.445931,-6.008469
2026-03-31T21:37:12.187135,20.769699,-22.033110,9.580861,-2.417804,0.775798,-5.926613
