Timestamp,Acceleration_X,Acceleration_Y,Acceleration_Z,Gyro_X,Gyro_Y,Gyro_Z
2026-01-04T15:41:30.868505,-9.753144,-0.698704,1.383051,-0.139277,0.103847,0.080634
2026-01-04T15:41:30.878505,-9.748359,-0.784845,1.292124,-0.210137,0.085521,0.070860
2026-01-04T15:41:30.887505,-9.743573,-0.976271,1.631905,-0.265115,0.083077,0.067195
2026-01-04T15:41:30.897505,-9.829715,-1.249053,1.574477,-0.263893,0.072082,0.075747
2026-01-04T15:41:30.906505,-9.915856,-1.406979,1.392622,-0.191811,0.050090,0.086742
2026-01-04T15:41:30.916505,-10.030712,-1.344766,1.359123,-0.107512,0.043982,0.092851
2026-01-04T15:41:30.926505,-10.207781,-1.162911,1.330409,-0.014660,0.042760,0.095294
2026-01-04T15:41:30.935505,-10.212566,-0.976271,1.469193,0.046425,0.003665,0.094073
2026-01-04T15:41:30.945505,-9.997212,-1.033699,1.339980,0.052534,-0.073303,0.091629
2026-01-04T15:41:30.955505,-9.638289,-1.119840,1.751546,0.064751,-0.128281,0.085521
2026-01-04T15:41:30.964505,-9.154939,-1.196411,1.761117,0.095294,-0.125838,0.078190
2026-01-04T15:41:30.974505,-9.226723,-1.091127,1.263410,0.125838,-0.063529,0.074525
2026-01-04T15:41:30.983505,-9.489934,-0.976271,1.359123,0.120951,0.006108,0.062308
2026-01-04T15:41:30.993505,-9.858429,-0.947557,1.316052,0.095294,0.007330,0.054977
2026-01-04T15:41:31.003505,-9.872786,-0.971485,1.134197,0.047647,-0.047647,0.028099
2026-01-04T15:41:31.012505,-9.719645,-0.952343,1.124626,0.019547,-0.076969,-0.009773
2026-01-04T15:41:31.022505,-9.638289,-0.880558,1.229910,-0.007330,-0.056199,-0.023212
2026-01-04T15:41:31.031505,-9.839286,-0.923629,1.378265,-0.036651,0.017104,-0.043982
2026-01-04T15:41:31.041505,-10.174281,-0.894915,1.057627,0.009773,0.030543,-0.062308
2026-01-04T15:41:31.051505,-10.222138,-0.866201,1.354337,0.015882,-0.037873,-0.067195
2026-01-04T15:41:31.060505,-9.944570,-1.009771,1.703689,0.017104,-0.136833,-0.053756
2026-01-04T15:41:31.070505,-9.451649,-1.129412,1.459621,0.074525,-0.189368,-0.048869
2026-01-04T15:41:31.080505,-9.087940,-0.966700,1.095912,0.123394,-0.153938,-0.042760
2026-01-04T15:41:31.089505,-9.035298,-0.708275,1.024128,0.112399,-0.053756,-0.045204
2026-01-04T15:41:31.099505,-9.399007,-0.526420,1.282552,0.043982,0.046425,-0.048869
2026-01-04T15:41:31.108505,-9.734002,-0.579063,1.004985,-0.072082,0.097738,-0.051312
2026-01-04T15:41:31.118505,-10.021141,-1.009771,0.727418,-0.142942,0.114842,-0.054977
2026-01-04T15:41:31.128505,-10.112068,-1.244267,0.894915,-0.131946,0.095294,-0.056199
2026-01-04T15:41:31.137505,-9.949356,-1.416550,0.995414,-0.009773,0.091629,-0.047647
2026-01-04T15:41:31.147505,-9.595218,-1.057627,0.827916,0.124616,0.085521,-0.032986
2026-01-04T15:41:31.156505,-9.193224,-0.746560,1.383051,0.139277,0.101403,-0.012217
2026-01-04T15:41:31.166505,-9.020941,-0.579063,1.603191,0.091629,0.182037,0.012217
2026-01-04T15:41:31.176505,-9.255437,-0.368494,1.416550,0.010995,0.284663,0.040317
2026-01-04T15:41:31.185505,-9.805787,-0.631705,1.354337,-0.130725,0.360410,0.052534
2026-01-04T15:41:31.195505,-10.375278,-1.148554,1.493121,-0.208915,0.343306,0.048869
2026-01-04T15:41:31.205505,-10.566704,-1.531406,1.368694,-0.117286,0.240680,0.040317
2026-01-04T15:41:31.214505,-10.418349,-1.598405,1.287338,-0.006108,0.120951,0.032986
2026-01-04T15:41:31.224505,-10.097711,-1.478764,1.167697,0.105068,0.028099,0.029321
2026-01-04T15:41:31.233505,-9.652646,-1.205982,0.717846,0.202807,0.025656,0.035430
2026-01-04T15:41:31.243505,-9.442077,-0.856630,0.818345,0.228463,0.074525,0.035430
2026-01-04T15:41:31.253505,-9.379864,-0.626919,1.325623,0.177150,0.118507,0.054977
2026-01-04T15:41:31.262505,-9.528219,-0.540777,1.215553,0.119729,0.202807,0.084299
2026-01-04T15:41:31.272505,-9.992427,-0.583848,0.957129,0.053756,0.252898,0.092851
2026-01-04T15:41:31.281505,-10.231709,-0.823130,1.593619,-0.026878,0.199142,0.106290
2026-01-04T15:41:31.291505,-10.169496,-1.191625,1.617548,-0.017104,0.101403,0.127059
2026-01-04T15:41:31.301505,-10.011569,-1.268195,1.024128,0.063529,0.029321,0.130725
2026-01-04T15:41:31.310505,-9.887142,-1.234696,1.033699,0.113620,-0.010995,0.108733
2026-01-04T15:41:31.320505,-9.791430,-0.995414,0.875773,0.158824,-0.039095,0.075747
2026-01-04T15:41:31.330505,-9.944570,-0.813559,1.153340,0.141720,-0.037873,0.023212
2026-01-04T15:41:31.339505,-10.174281,-0.808774,1.392622,0.030543,-0.057421,-0.026878
2026-01-04T15:41:31.349505,-10.375278,-1.225125,1.823330,0.003665,-0.119729,-0.028099
2026-01-04T15:41:31.358505,-10.150353,-1.770688,1.923829,0.084299,-0.251676,0.021991
2026-01-04T15:41:31.368505,-9.667003,-2.033899,1.856830,0.326201,-0.377514,0.108733
2026-01-04T15:41:31.378505,-9.221938,-1.421336,1.603191,0.711046,-0.399505,0.195476
2026-01-04T15:41:31.387505,-9.078368,-0.378065,0.861416,0.856432,-0.338419,0.260228
2026-01-04T15:41:31.397505,-9.140582,0.191425,1.048056,0.753807,-0.238237,0.276111
2026-01-04T15:41:31.406505,-9.284151,0.411565,0.602991,0.536339,-0.151494,0.267558
2026-01-04T15:41:31.416505,-9.207581,0.196211,0.014356,0.208915,-0.097738,0.248011
2026-01-04T15:41:31.426505,-9.327222,-0.320638,0.387637,-0.089186,-0.002443,0.195476
2026-01-04T15:41:31.435505,-9.844072,-0.885344,0.693918,-0.204028,0.122173,0.118507
2026-01-04T15:41:31.445505,-10.456634,-0.976271,0.555134,-0.189368,0.150272,0.036651
2026-01-04T15:41:31.455505,-10.628917,-0.847059,1.014556,-0.174707,0.046425,-0.017104
2026-01-04T15:41:31.464505,-10.193424,-0.698704,1.847259,-0.140498,-0.089186,-0.032986
2026-01-04T15:41:31.474505,-9.461220,-0.636490,2.005185,-0.079412,-0.182037,0.007330
2026-01-04T15:41:31.483505,-8.752945,-0.617348,1.856830,-0.028099,-0.182037,0.074525
2026-01-04T15:41:31.493505,-8.681160,-0.569491,1.330409,0.017104,-0.043982,0.142942
2026-01-04T15:41:31.503505,-9.245866,-0.301495,1.091127,0.046425,0.130725,0.168598
2026-01-04T15:41:31.512505,-10.107282,-0.339780,0.928415,-0.031764,0.191811,0.189368
2026-01-04T15:41:31.522505,-10.710273,-0.569491,0.756131,-0.145385,0.153938,0.178372
2026-01-04T15:41:31.531505,-10.796415,-0.966700,0.622133,-0.167377,0.051312,0.133168
2026-01-04T15:41:31.541505,-10.293922,-1.325623,0.981057,-0.131946,-0.112399,0.095294
2026-01-04T15:41:31.551505,-9.628718,-1.402194,1.531406,-0.046425,-0.182037,0.078190
2026-01-04T15:41:31.560505,-9.303294,-1.215553,1.938186,0.113620,-0.106290,0.070860
2026-01-04T15:41:31.570505,-9.456434,-0.641276,1.497906,0.240680,-0.040317,0.086742
2026-01-04T15:41:31.580505,-9.772287,-0.258424,1.440479,0.243124,-0.024434,0.128281
2026-01-04T15:41:31.589505,-10.068997,-0.138783,1.282552,0.172263,-0.025656,0.146607
2026-01-04T15:41:31.599505,-10.116853,-0.229710,0.736989,0.094073,-0.056199,0.147829
2026-01-04T15:41:31.608505,-9.963713,-0.406779,0.866201,-0.012217,-0.091629,0.133168
2026-01-04T15:41:31.618505,-9.920642,-0.937986,0.861416,-0.069638,-0.078190,0.106290
2026-01-04T15:41:31.628505,-9.997212,-1.229910,0.952343,-0.023212,-0.061086,0.062308
2026-01-04T15:41:31.637505,-10.131210,-1.301695,1.406979,0.023212,-0.058643,0.030543
2026-01-04T15:41:31.647505,-10.274780,-1.339980,1.493121,0.108733,-0.094073,-0.007330
2026-01-04T15:41:31.656505,-10.145567,-1.158126,1.670190,0.224798,-0.179594,-0.034208
2026-01-04T15:41:31.666505,-9.815358,-0.794417,1.636690,0.274889,-0.251676,-0.031764
2026-01-04T15:41:31.676505,-9.389435,-0.449850,1.383051,0.307876,-0.230907,-0.024434
2026-01-04T15:41:31.685505,-9.284151,-0.253639,1.368694,0.257785,-0.152716,-0.014660
2026-01-04T15:41:31.695505,-9.638289,-0.200997,0.947557,0.180816,-0.062308,-0.017104
2026-01-04T15:41:31.705505,-10.064211,-0.153140,0.894915,0.127059,-0.003665,-0.026878
2026-01-04T15:41:31.714505,-10.303494,-0.296710,0.947557,0.012217,-0.032986,-0.042760
2026-01-04T15:41:31.724505,-10.121639,-0.545563,1.229910,-0.072082,-0.112399,-0.056199
2026-01-04T15:41:31.733505,-9.863214,-0.890130,1.062413,-0.053756,-0.140498,-0.067195
2026-01-04T15:41:31.743505,-9.537790,-0.933200,1.406979,-0.013439,-0.140498,-0.072082
2026-01-04T15:41:31.753505,-9.355936,-0.890130,1.818545,0.042760,-0.133168,-0.063529
2026-01-04T15:41:31.762505,-9.365507,-0.488135,1.440479,0.122173,-0.103847,-0.042760
2026-01-04T15:41:31.772505,-9.552147,-0.239282,1.450050,0.089186,-0.062308,-0.023212
2026-01-04T15:41:31.781505,-9.719645,-0.239282,1.411765,-0.018325,-0.026878,-0.002443
2026-01-04T15:41:31.791505,-10.064211,-0.425922,1.153340,-0.062308,-0.003665,0.003665
2026-01-04T15:41:31.801505,-10.202995,-0.698704,1.201196,-0.089186,-0.048869,0.001221
2026-01-04T15:41:31.810505,-9.987641,-1.019342,1.292124,-0.072082,-0.127059,0.006108
2026-01-04T15:41:31.820505,-9.848857,-0.957129,1.325623,0.004886,-0.153938,-0.002443
2026-01-04T15:41:31.830505,-9.604789,-0.717846,1.564905,0.061086,-0.145385,-0.015882
2026-01-04T15:41:31.839505,-9.489934,-0.531206,1.651047,0.084299,-0.124616,-0.003665
2026-01-04T15:41:31.849505,-9.590432,-0.339780,1.660618,0.073303,-0.101403,0.007330
2026-01-04T15:41:31.858505,-9.638289,-0.430708,1.531406,0.006108,-0.069638,0.020769
2026-01-04T15:41:31.868505,-9.772287,-0.684347,1.363908,-0.028099,-0.053756,0.019547
2026-01-04T15:41:31.878505,-9.906285,-0.732203,1.464407,-0.023212,-0.064751,0.019547
2026-01-04T15:41:31.887505,-9.920642,-0.775274,1.244267,0.006108,-0.084299,0.009773
2026-01-04T15:41:31.897505,-9.949356,-0.660419,1.339980,0.001221,-0.097738,-0.002443
2026-01-04T15:41:31.906505,-9.896714,-0.660419,1.177268,-0.010995,-0.109955,-0.021991
2026-01-04T15:41:31.916505,-9.748359,-0.468993,1.383051,-0.028099,-0.114842,-0.029321
2026-01-04T15:41:31.926505,-9.671788,-0.478564,1.493121,-0.095294,-0.105068,-0.025656
2026-01-04T15:41:31.935505,-9.547362,-0.646062,1.636690,-0.112399,-0.089186,-0.008552
2026-01-04T15:41:31.945505,-9.566504,-0.784845,1.478764,-0.112399,-0.069638,0.009773
2026-01-04T15:41:31.955505,-9.609575,-0.966700,1.531406,-0.076969,-0.041538,0.020769
2026-01-04T15:41:31.964505,-9.662217,-0.866201,1.440479,0.023212,-0.028099,0.030543
2026-01-04T15:41:31.974505,-9.815358,-0.617348,1.272981,0.069638,-0.019547,0.036651
2026-01-04T15:41:31.983505,-9.848857,-0.392422,1.143769,0.040317,-0.023212,0.034208
2026-01-04T15:41:31.993505,-9.858429,-0.401994,1.320838,-0.015882,-0.031764,0.025656
2026-01-04T15:41:32.003505,-9.791430,-0.478564,1.402194,-0.090408,-0.036651,0.017104
2026-01-04T15:41:32.012505,-9.786644,-0.741775,1.483550,-0.138055,-0.036651,0.008552
2026-01-04T15:41:32.022505,-9.724431,-0.880558,1.679761,-0.123394,-0.039095,0.000000
2026-01-04T15:41:32.031505,-9.834500,-1.033699,1.660618,-0.089186,-0.046425,-0.002443
2026-01-04T15:41:32.041505,-9.920642,-1.038485,1.727617,-0.031764,-0.062308,-0.013439
2026-01-04T15:41:32.051505,-9.934999,-0.904486,1.579262,0.039095,-0.095294,-0.013439
2026-01-04T15:41:32.060505,-9.915856,-0.722632,1.459621,0.092851,-0.125838,-0.008552
2026-01-04T15:41:32.070505,-9.743573,-0.569491,1.406979,0.116064,-0.139277,-0.009773
2026-01-04T15:41:32.080505,-9.552147,-0.358923,1.258624,0.083077,-0.138055,-0.006108
2026-01-04T15:41:32.089505,-9.399007,-0.306281,1.272981,0.008552,-0.103847,0.001221
2026-01-04T15:41:32.099505,-9.408578,-0.468993,1.349551,-0.072082,-0.046425,0.014660
2026-01-04T15:41:32.108505,-9.571290,-0.650847,1.603191,-0.101403,0.000000,0.031764
2026-01-04T15:41:32.118505,-9.729216,-0.818345,1.445264,-0.091629,0.020769,0.047647
2026-01-04T15:41:32.128505,-9.963713,-0.923629,1.469193,-0.047647,0.019547,0.054977
2026-01-04T15:41:32.137505,-10.035497,-0.827916,1.641476,0.006108,-0.006108,0.048869
2026-01-04T15:41:32.147505,-9.906285,-0.674775,1.349551,0.034208,-0.056199,0.041538
2026-01-04T15:41:32.156505,-9.657432,-0.626919,1.550549,0.000000,-0.081855,0.030543
2026-01-04T15:41:32.166505,-9.518648,-0.689132,1.813759,-0.020769,-0.075747,0.015882
2026-01-04T15:41:32.176505,-9.442077,-0.636490,1.430907,-0.020769,-0.056199,0.018325
2026-01-04T15:41:32.185505,-9.547362,-0.574277,1.277767,-0.051312,-0.015882,0.020769
2026-01-04T15:41:32.195505,-9.714859,-0.626919,1.555334,-0.075747,0.026878,0.021991
2026-01-04T15:41:32.205505,-9.911071,-0.607776,1.430907,-0.090408,0.046425,0.025656
2026-01-04T15:41:32.214505,-10.030712,-0.669990,1.569691,-0.098960,0.026878,0.026878
2026-01-04T15:41:32.224505,-9.939785,-0.966700,1.564905,-0.087964,-0.019547,0.034208
2026-01-04T15:41:32.233505,-9.762716,-1.019342,1.430907,-0.030543,-0.052534,0.025656
2026-01-04T15:41:32.243505,-9.686145,-0.856630,1.612762,0.028099,-0.047647,0.020769
2026-01-04T15:41:32.253505,-9.662217,-0.703489,1.612762,0.064751,-0.020769,0.021991
2026-01-04T15:41:32.262505,-9.762716,-0.416351,1.359123,0.073303,-0.021991,0.037873
2026-01-04T15:41:32.272505,-9.753144,-0.368494,1.469193,0.019547,-0.035430,0.046425
2026-01-04T15:41:32.281505,-9.705288,-0.468993,1.521835,-0.047647,-0.040317,0.040317
2026-01-04T15:41:32.291505,-9.671788,-0.588634,1.579262,-0.102625,-0.032986,0.029321
2026-01-04T15:41:32.301505,-9.772287,-0.746560,1.454836,-0.145385,-0.014660,0.017104
2026-01-04T15:41:32.310505,-9.891928,-1.052841,1.665404,-0.144164,0.001221,0.003665
2026-01-04T15:41:32.320505,-9.920642,-1.071984,1.617548,-0.064751,-0.017104,-0.001221
2026-01-04T15:41:32.330505,-9.915856,-0.885344,1.411765,0.019547,-0.062308,0.004886
2026-01-04T15:41:32.339505,-9.710074,-0.727418,1.521835,0.054977,-0.096516,0.015882
2026-01-04T15:41:32.349505,-9.470791,-0.526420,1.560120,0.078190,-0.089186,0.024434
2026-01-04T15:41:32.358505,-9.394221,-0.220139,1.445264,0.047647,-0.054977,0.040317
2026-01-04T15:41:32.368505,-9.413364,-0.282353,1.641476,-0.057421,0.006108,0.051312
2026-01-04T15:41:32.378505,-9.590432,-0.516849,1.392622,-0.112399,0.062308,0.061086
2026-01-04T15:41:32.387505,-9.858429,-0.641276,1.196411,-0.146607,0.089186,0.063529
2026-01-04T15:41:32.397505,-10.025926,-0.961914,1.421336,-0.167377,0.084299,0.054977
2026-01-04T15:41:32.406505,-10.169496,-1.071984,1.215553,-0.102625,0.054977,0.042760
2026-01-04T15:41:32.416505,-10.040283,-0.909272,1.392622,-0.031764,0.006108,0.031764
2026-01-04T15:41:32.426505,-9.772287,-0.741775,1.622333,-0.009773,-0.037873,0.028099
2026-01-04T15:41:32.435505,-9.432506,-0.559920,1.641476,0.018325,-0.045204,0.030543
2026-01-04T15:41:32.445505,-9.231509,-0.397208,1.622333,-0.009773,-0.012217,0.043982
2026-01-04T15:41:32.455505,-9.212367,-0.334995,1.584048,-0.080634,0.036651,0.061086
2026-01-04T15:41:32.464505,-9.480363,-0.378065,1.354337,-0.129503,0.096516,0.072082
2026-01-04T15:41:32.474505,-9.686145,-0.507278,1.521835,-0.179594,0.133168,0.074525
2026-01-04T15:41:32.483505,-9.882357,-0.674775,1.258624,-0.200363,0.108733,0.070860
2026-01-04T15:41:32.493505,-9.978070,-0.760917,1.660618,-0.200363,0.072082,0.073303
2026-01-04T15:41:32.503505,-10.255637,-0.937986,1.478764,-0.145385,0.096516,0.078190
2026-01-04T15:41:32.512505,-10.418349,-1.009771,0.770488,-0.052534,0.059864,0.059864
2026-01-04T15:41:32.522505,-9.982855,-0.981057,1.526620,0.009773,-0.092851,0.058643
2026-01-04T15:41:32.531505,-9.241080,-0.646062,1.818545,0.057421,-0.166155,0.072082
2026-01-04T15:41:32.541505,-8.824729,-0.325423,1.071984,0.084299,-0.086742,0.074525
2026-01-04T15:41:32.551505,-8.805587,-0.100498,1.488335,-0.014660,0.047647,0.083077
2026-01-04T15:41:32.560505,-9.150153,-0.162711,1.368694,-0.123394,0.178372,0.095294
2026-01-04T15:41:32.570505,-9.748359,-0.334995,1.296909,-0.196698,0.222354,0.096516
2026-01-04T15:41:32.580505,-10.097711,-0.488135,1.469193,-0.239459,0.188146,0.095294
2026-01-04T15:41:32.589505,-10.442277,-0.899701,1.349551,-0.223576,0.146607,0.095294
2026-01-04T15:41:32.599505,-10.456634,-1.205982,1.215553,-0.136833,0.050090,0.075747
2026-01-04T15:41:32.608505,-10.049854,-1.253839,1.225125,0.015882,-0.068416,0.063529
2026-01-04T15:41:32.618505,-9.614361,-0.971485,1.301695,0.138055,-0.118507,0.057421
2026-01-04T15:41:32.628505,-9.269794,-0.531206,1.392622,0.190589,-0.087964,0.054977
2026-01-04T15:41:32.637505,-9.288937,-0.167497,1.277767,0.162490,-0.010995,0.054977
2026-01-04T15:41:32.647505,-9.475577,-0.090927,1.473978,0.029321,0.073303,0.051312
2026-01-04T15:41:32.656505,-9.863214,-0.368494,1.694118,-0.089186,0.114842,0.047647
2026-01-04T15:41:32.666505,-10.155139,-0.760917,1.272981,-0.113620,0.103847,0.041538
2026-01-04T15:41:32.676505,-10.293922,-1.048056,1.043270,-0.103847,0.046425,0.032986
2026-01-04T15:41:32.685505,-10.226923,-1.191625,1.325623,-0.048869,-0.012217,0.010995
2026-01-04T15:41:32.695505,-10.102497,-1.004985,1.258624,0.069638,-0.043982,-0.015882
2026-01-04T15:41:32.705505,-9.939785,-0.669990,1.263410,0.127059,-0.048869,-0.028099
2026-01-04T15:41:32.714505,-9.934999,-0.464207,1.665404,0.122173,-0.041538,-0.035430
2026-01-04T15:41:32.724505,-9.815358,-0.363709,1.617548,0.079412,-0.039095,-0.023212
2026-01-04T15:41:32.733505,-9.777073,-0.397208,1.521835,0.018325,-0.048869,-0.007330
2026-01-04T15:41:32.743505,-9.724431,-0.555134,1.493121,-0.039095,-0.043982,0.008552
2026-01-04T15:41:32.753505,-9.734002,-0.655633,1.469193,-0.046425,-0.025656,0.013439
2026-01-04T15:41:32.762505,-9.882357,-0.736989,1.287338,-0.021991,-0.007330,0.029321
2026-01-04T15:41:32.772505,-9.978070,-0.794417,1.287338,-0.003665,-0.021991,0.032986
2026-01-04T15:41:32.781505,-9.863214,-0.708275,1.335195,0.036651,-0.069638,0.035430
2026-01-04T15:41:32.791505,-9.633503,-0.483350,1.330409,0.065973,-0.098960,0.040317
2026-01-04T15:41:32.801505,-9.470791,-0.291924,1.344766,0.017104,-0.076969,0.039095
2026-01-04T15:41:32.810505,-9.399007,-0.191425,1.249053,-0.068416,-0.029321,0.039095
2026-01-04T15:41:32.820505,-9.461220,-0.301495,1.478764,-0.164933,0.012217,0.042760
2026-01-04T15:41:32.830505,-9.609575,-0.421136,1.507478,-0.228463,0.040317,0.051312
2026-01-04T15:41:32.839505,-9.719645,-0.579063,1.378265,-0.235793,0.041538,0.072082
2026-01-04T15:41:32.849505,-9.820143,-0.598205,1.258624,-0.194255,0.028099,0.107512
2026-01-04T15:41:32.858505,-9.332008,-0.674775,1.344766,-0.127059,-0.018325,0.157603
2026-01-04T15:41:32.868505,-8.767302,-0.330209,1.057627,-0.054977,-0.032986,0.232128
2026-01-04T15:41:32.878505,-8.068597,0.205782,0.799202,-0.031764,0.061086,0.309097
2026-01-04T15:41:32.887505,-7.786244,0.722632,0.617348,-0.123394,0.243124,0.387288
2026-01-04T15:41:32.897505,-7.680960,1.095912,0.660419,-0.338419,0.447153,0.470366
2026-01-04T15:41:32.906505,-7.680960,1.028913,0.713061,-0.603534,0.635299,0.557108
2026-01-04T15:41:32.916505,-7.781459,0.736989,0.741775,-0.852767,0.792902,0.643851
2026-01-04T15:41:32.926505,-8.097311,0.354137,0.435493,-1.053131,0.921184,0.709825
2026-01-04T15:41:32.935505,-8.528019,-0.272781,0.296710,-1.175304,1.029918,0.769690
2026-01-04T15:41:32.945505,-9.092725,-0.870987,0.842273,-1.126435,1.110552,0.780685
2026-01-04T15:41:32.955505,-9.657432,-1.239482,0.870987,-0.894306,1.108109,0.775798
2026-01-04T15:41:32.964505,-9.978070,-1.205982,0.468993,-0.580321,1.004262,0.773355
2026-01-04T15:41:32.974505,-9.934999,-0.827916,0.387637,-0.267558,0.825889,0.746477
2026-01-04T15:41:32.983505,-9.308079,-0.033499,0.626919,-0.054977,0.663399,0.720820
2026-01-04T15:41:32.993505,-8.537591,0.823130,0.416351,0.001221,0.585208,0.703716
2026-01-04T15:41:33.003505,-7.881957,1.378265,0.167497,-0.119729,0.613308,0.689055
2026-01-04T15:41:33.012505,-7.475177,1.536192,0.066999,-0.368962,0.740368,0.692721
2026-01-04T15:41:33.022505,-7.470392,1.306481,0.267996,-0.653625,0.943175,0.696386
2026-01-04T15:41:33.031505,-8.097311,0.870987,-0.521635,-0.839328,1.158200,0.708603
2026-01-04T15:41:33.041505,-9.135796,0.220139,-0.775274,-0.924849,1.336572,0.704938
2026-01-04T15:41:33.051505,-10.250852,-0.459421,-0.569491,-0.849102,1.336572,0.656069
2026-01-04T15:41:33.060505,-10.743773,-0.813559,-0.263210,-0.569326,1.133765,0.648738
2026-01-04T15:41:33.070505,-10.212566,-0.598205,0.263210,-0.244346,0.794124,0.653625
2026-01-04T15:41:33.080505,-9.025726,-0.086141,0.454636,0.017104,0.488692,0.658512
2026-01-04T15:41:33.089505,-7.604390,0.727418,0.071784,0.157603,0.398284,0.690277
2026-01-04T15:41:33.099505,-6.656832,1.387837,-0.105284,0.114842,0.546113,0.703716
2026-01-04T15:41:33.108505,-6.293123,1.718046,-0.081355,-0.073303,0.850324,0.711046
2026-01-04T15:41:33.118505,-6.766902,1.852044,-0.674775,-0.266337,1.186300,0.728151
2026-01-04T15:41:33.128505,-7.838886,1.880758,-1.440479,-0.448374,1.453858,0.745255
2026-01-04T15:41:33.137505,-9.236295,1.756331,-1.837687,-0.630412,1.612683,0.747698
2026-01-04T15:41:33.147505,-10.600204,1.239482,-2.000399,-0.737925,1.627344,0.711046
2026-01-04T15:41:33.156505,-11.251051,0.468993,-1.545763,-0.709825,1.395215,0.648738
2026-01-04T15:41:33.166505,-10.691131,0.028713,-0.937986,-0.576656,0.940732,0.614530
2026-01-04T15:41:33.176505,-9.269794,-0.071784,-0.914058,-0.351858,0.566882,0.612086
2026-01-04T15:41:33.185505,-7.944171,0.401994,-0.904486,-0.133168,0.510683,0.586430
2026-01-04T15:41:33.195505,-7.245466,0.885344,-0.866201,0.009773,0.689055,0.526565
2026-01-04T15:41:33.205505,-7.298108,1.526620,-0.904486,0.035430,0.926071,0.503352
2026-01-04T15:41:33.214505,-7.776673,1.890329,-1.038485,-0.065973,1.136209,0.498465
2026-01-04T15:41:33.224505,-8.542376,2.072184,-1.607976,-0.204028,1.252273,0.492357
2026-01-04T15:41:33.233505,-9.384650,2.182254,-2.244467,-0.324980,1.281595,0.487470
2026-01-04T15:41:33.243505,-10.236495,1.914258,-2.612962,-0.447153,1.227838,0.471587
2026-01-04T15:41:33.253505,-10.628917,1.488335,-2.100898,-0.497244,1.033583,0.442266
2026-01-04T15:41:33.262505,-10.313065,1.124626,-1.617548,-0.430049,0.731816,0.447153
2026-01-04T15:41:33.272505,-9.466006,0.961914,-1.316052,-0.299323,0.476474,0.477696
2026-01-04T15:41:33.281505,-8.551947,1.110269,-1.287338,-0.089186,0.398284,0.489913
2026-01-04T15:41:33.291505,-8.221738,1.627119,-1.684547,0.098960,0.511904,0.503352
2026-01-04T15:41:33.301505,-8.350950,2.153540,-1.976471,0.136833,0.693942,0.510683
2026-01-04T15:41:33.310505,-8.896514,2.287538,-2.474178,0.098960,0.792902,0.502131
2026-01-04T15:41:33.320505,-9.332008,2.469392,-2.536391,0.010995,0.768468,0.507018
2026-01-04T15:41:33.330505,-9.777073,2.483749,-3.249453,-0.119729,0.700051,0.520457
2026-01-04T15:41:33.339505,-9.982855,2.210968,-3.129811,-0.180816,0.608421,0.509461
2026-01-04T15:41:33.349505,-9.738787,1.895115,-2.076970,-0.210137,0.425162,0.482583
2026-01-04T15:41:33.358505,-9.102297,1.540977,-1.746760,-0.162490,0.265115,0.524122
2026-01-04T15:41:33.368505,-8.738588,1.569691,-1.837687,-0.004886,0.279776,0.569326
2026-01-04T15:41:33.378505,-8.585447,1.861615,-2.057827,0.127059,0.383623,0.566882
2026-01-04T15:41:33.387505,-8.724231,2.081755,-2.450250,0.149051,0.453261,0.572991
2026-01-04T15:41:33.397505,-8.891728,2.335394,-3.168097,0.111177,0.441044,0.559552
2026-01-04T15:41:33.406505,-9.193224,2.732603,-4.287938,0.111177,0.491135,0.511904
2026-01-04T15:41:33.416505,-9.743573,2.866601,-3.531806,0.017104,0.551000,0.458148
2026-01-04T15:41:33.426505,-10.006784,2.512463,-2.488535,-0.157603,0.423940,0.409279
2026-01-04T15:41:33.435505,-9.686145,2.038684,-2.541177,-0.183259,0.239459,0.437379
2026-01-04T15:41:33.445505,-9.403792,1.899901,-2.790031,-0.064751,0.202807,0.436157
2026-01-04T15:41:33.455505,-9.212367,1.947757,-2.517249,0.014660,0.241902,0.409279
2026-01-04T15:41:33.464505,-9.006584,2.158325,-2.694318,0.074525,0.208915,0.412944
2026-01-04T15:41:33.474505,-8.762516,2.388036,-3.034099,0.127059,0.196698,0.395840
2026-01-04T15:41:33.483505,-8.877371,2.833101,-4.106083,0.142942,0.304210,0.357966
2026-01-04T15:41:33.493505,-9.260223,3.086741,-3.775874,0.078190,0.433714,0.293215
2026-01-04T15:41:33.503505,-9.643075,3.010170,-3.225524,-0.061086,0.415388,0.234572
2026-01-04T15:41:33.512505,-9.820143,2.675175,-3.053241,-0.167377,0.305432,0.267558
2026-01-04T15:41:33.522505,-9.667003,2.488535,-2.507678,-0.139277,0.211359,0.262671
2026-01-04T15:41:33.531505,-9.442077,2.665604,-3.211167,0.003665,0.146607,0.266337
2026-01-04T15:41:33.541505,-9.556933,2.885744,-3.431307,0.061086,0.219911,0.309097
2026-01-04T15:41:33.551505,-9.767501,2.876172,-3.306880,0.058643,0.261450,0.267558
2026-01-04T15:41:33.560505,-9.614361,3.010170,-3.330809,0.064751,0.153938,0.252898
2026-01-04T15:41:33.570505,-9.174081,3.211167,-3.579662,-0.003665,0.058643,0.261450
2026-01-04T15:41:33.580505,-8.819944,3.172882,-3.632304,-0.107512,0.068416,0.204028
2026-01-04T15:41:33.589505,-8.858229,3.201596,-4.091726,-0.139277,0.185702,0.140498
2026-01-04T15:41:33.599505,-9.288937,3.278166,-3.732803,-0.184481,0.306654,0.096516
2026-01-04T15:41:33.608505,-9.585647,2.785245,-3.220739,-0.279776,0.283441,0.059864
2026-01-04T15:41:33.618505,-9.676574,2.383251,-3.134597,-0.194255,0.208915,0.062308
2026-01-04T15:41:33.628505,-9.590432,2.660818,-3.546163,0.001221,0.111177,0.061086
2026-01-04T15:41:33.637505,-9.432506,2.952743,-3.751945,0.061086,0.080634,0.065973
2026-01-04T15:41:33.647505,-9.432506,2.919243,-3.632304,0.048869,0.102625,0.070860
2026-01-04T15:41:33.656505,-9.355936,3.038884,-3.321237,0.045204,0.087964,0.058643
2026-01-04T15:41:33.666505,-9.164510,2.957528,-3.335594,-0.029321,0.043982,0.084299
2026-01-04T15:41:33.676505,-8.891728,2.957528,-3.493520,-0.021991,0.029321,0.090408
2026-01-04T15:41:33.685505,-8.824729,3.244667,-3.967299,0.019547,0.058643,0.067195
2026-01-04T15:41:33.695505,-9.073583,3.479164,-4.225724,0.026878,0.164933,0.069638
2026-01-04T15:41:33.705505,-9.580861,3.517449,-3.637090,-0.023212,0.156381,0.046425
2026-01-04T15:41:33.714505,-9.949356,3.326023,-3.393022,-0.081855,0.041538,0.047647
2026-01-04T15:41:33.724505,-10.016355,3.172882,-3.196810,-0.046425,-0.054977,0.084299
2026-01-04T15:41:33.733505,-9.791430,3.086741,-3.464807,-0.052534,-0.151494,0.085521
2026-01-04T15:41:33.743505,-9.288937,2.885744,-3.641875,-0.056199,-0.228463,0.090408
2026-01-04T15:41:33.753505,-8.944370,2.866601,-3.335594,-0.013439,-0.228463,0.085521
2026-01-04T15:41:33.762505,-8.666803,2.924029,-3.718446,-0.014660,-0.152716,0.070860
2026-01-04T15:41:33.772505,-8.700302,2.928814,-4.158725,-0.035430,-0.090408,0.052534
2026-01-04T15:41:33.781505,-8.963513,3.005385,-3.747160,-0.037873,-0.017104,0.012217
2026-01-04T15:41:33.791505,-9.303294,3.129811,-3.699303,-0.034208,0.020769,-0.004886
2026-01-04T15:41:33.801505,-9.509077,2.943171,-3.522234,-0.096516,-0.036651,-0.006108
2026-01-04T15:41:33.810505,-9.499505,2.813959,-3.641875,-0.074525,-0.109955,-0.025656
2026-01-04T15:41:33.820505,-9.585647,2.919243,-3.215953,0.006108,-0.130725,-0.025656
2026-01-04T15:41:33.830505,-9.571290,3.014956,-3.058027,0.015882,-0.188146,-0.010995
2026-01-04T15:41:33.839505,-9.499505,3.129811,-3.053241,0.083077,-0.273667,0.009773
2026-01-04T15:41:33.849505,-9.451649,3.359522,-3.230310,0.142942,-0.312762,0.035430
2026-01-04T15:41:33.858505,-9.379864,3.517449,-3.761517,0.100181,-0.344527,0.073303
2026-01-04T15:41:33.868505,-9.408578,3.488735,-3.206382,0.074525,-0.337197,0.098960
2026-01-04T15:41:33.878505,-9.389435,3.627519,-3.742374,0.106290,-0.334754,0.127059
2026-01-04T15:41:33.887505,-9.470791,3.527020,-4.029513,0.074525,-0.306654,0.164933
2026-01-04T15:41:33.897505,-9.528219,3.048455,-3.440878,0.009773,-0.310319,0.162490
2026-01-04T15:41:33.906505,-9.580861,2.651247,-3.608376,0.025656,-0.278554,0.193033
2026-01-04T15:41:33.916505,-9.820143,2.402393,-3.641875,0.182037,-0.190589,0.207694
2026-01-04T15:41:33.926505,-10.198209,2.746960,-4.622933,0.355523,-0.191811,0.244346
2026-01-04T15:41:33.935505,-10.413563,3.282952,-4.895715,0.441044,-0.249232,0.302989
2026-01-04T15:41:33.945505,-10.557133,3.641875,-3.732803,0.513126,-0.291993,0.294436
2026-01-04T15:41:33.955505,-10.389635,4.005585,-3.364308,0.525343,-0.335975,0.329867
2026-01-04T15:41:33.964505,-10.179067,4.259224,-4.072584,0.452040,-0.342084,0.372627
2026-01-04T15:41:33.974505,-9.963713,4.287938,-4.546362,0.324980,-0.290771,0.332310
2026-01-04T15:41:33.983505,-10.035497,4.101297,-4.187439,0.074525,-0.237015,0.273667
2026-01-04T15:41:33.993505,-10.088140,3.699303,-4.230510,-0.053756,-0.144164,0.179594
2026-01-04T15:41:34.003505,-10.399207,3.397808,-3.976871,-0.101403,-0.047647,0.113620
2026-01-04T15:41:34.012505,-10.643274,3.244667,-4.613361,-0.162490,-0.029321,0.087964
2026-01-04T15:41:34.022505,-10.796415,3.316452,-5.111069,-0.090408,-0.045204,0.081855
2026-01-04T15:41:34.031505,-10.968698,3.503092,-3.570091,0.029321,-0.074525,0.098960
2026-01-04T15:41:34.041505,-10.748559,3.373879,-2.857030,0.098960,-0.188146,0.171042
2026-01-04T15:41:34.051505,-10.202995,3.383451,-3.268595,0.212581,-0.291993,0.267558
2026-01-04T15:41:34.060505,-9.681360,3.718446,-3.211167,0.337197,-0.342084,0.277332
2026-01-04T15:41:34.070505,-9.432506,3.962514,-3.225524,0.387288,-0.241902,0.309097
2026-01-04T15:41:34.080505,-9.738787,4.173082,-3.393022,0.393397,-0.078190,0.327423
2026-01-04T15:41:34.089505,-10.293922,4.048655,-3.421736,0.299323,0.001221,0.315206
2026-01-04T15:41:34.099505,-10.839486,4.091726,-4.153940,0.212581,-0.048869,0.320093
2026-01-04T15:41:34.108505,-11.217552,4.082155,-4.570291,0.158824,-0.195476,0.316428
2026-01-04T15:41:34.118505,-11.011769,3.790230,-3.780659,0.018325,-0.337197,0.310319
2026-01-04T15:41:34.128505,-10.418349,3.330809,-3.952942,-0.012217,-0.432492,0.317649
2026-01-04T15:41:34.137505,-9.786644,3.469592,-3.656232,0.134390,-0.427605,0.288328
2026-01-04T15:41:34.147505,-9.413364,3.799802,-3.440878,0.256563,-0.333532,0.279776
2026-01-04T15:41:34.156505,-9.576076,3.895515,-3.507877,0.251676,-0.201585,0.284663
2026-01-04T15:41:34.166505,-10.030712,4.086941,-3.531806,0.302989,-0.094073,0.241902
2026-01-04T15:41:34.176505,-10.590632,4.211367,-2.900100,0.261450,-0.064751,0.243124
2026-01-04T15:41:34.185505,-10.944770,4.067798,-4.130011,0.119729,-0.151494,0.265115
2026-01-04T15:41:34.195505,-11.370692,3.991228,-4.752145,0.089186,-0.241902,0.239459
2026-01-04T15:41:34.205505,-11.495119,3.929014,-3.440878,0.019547,-0.389731,0.208915
2026-01-04T15:41:34.214505,-10.849057,3.656232,-3.172882,-0.004886,-0.579100,0.233350
2026-01-04T15:41:34.224505,-10.179067,3.656232,-2.981456,0.111177,-0.680503,0.267558
2026-01-04T15:41:34.233505,-9.619146,3.852444,-2.694318,0.197920,-0.649960,0.259006
2026-01-04T15:41:34.243505,-9.442077,3.948157,-3.043670,0.243124,-0.525343,0.272445
2026-01-04T15:41:34.253505,-9.805787,4.149154,-3.598805,0.282219,-0.436157,0.265115
2026-01-04T15:41:34.262505,-10.174281,4.086941,-3.412165,0.184481,-0.405614,0.229685
2026-01-04T15:41:34.272505,-10.504491,3.885943,-3.215953,0.135612,-0.400727,0.182037
2026-01-04T15:41:34.281505,-10.537990,4.048655,-3.617947,0.177150,-0.478918,0.150272
2026-01-04T15:41:34.291505,-10.389635,3.909872,-3.326023,0.043982,-0.572991,0.101403
2026-01-04T15:41:34.301505,-9.958927,3.613162,-2.727817,-0.012217,-0.642630,0.031764
2026-01-04T15:41:34.310505,-9.461220,3.675375,-2.598605,0.057421,-0.651182,0.002443
2026-01-04T15:41:34.320505,-9.298508,3.608376,-2.550748,0.061086,-0.569326,-0.024434
2026-01-04T15:41:34.330505,-9.614361,3.555734,-2.871387,0.085521,-0.477696,-0.057421
2026-01-04T15:41:34.339505,-10.155139,3.598805,-2.397608,0.161268,-0.449596,-0.072082
2026-01-04T15:41:34.349505,-10.317851,3.555734,-2.713460,0.218689,-0.524122,-0.046425
2026-01-04T15:41:34.358505,-10.131210,3.555734,-3.297309,0.206472,-0.610865,-0.052534
2026-01-04T15:41:34.368505,-9.767501,3.412165,-2.981456,0.213802,-0.653625,-0.118507
2026-01-04T15:41:34.378505,-9.494720,3.732803,-2.263610,0.228463,-0.686612,-0.174707
2026-01-04T15:41:34.387505,-9.399007,3.795016,-2.809173,0.172263,-0.637743,-0.195476
2026-01-04T15:41:34.397505,-9.724431,3.933800,-1.986042,0.145385,-0.560774,-0.262671
2026-01-04T15:41:34.406505,-9.934999,3.996013,-1.837687,0.136833,-0.571769,-0.263893
2026-01-04T15:41:34.416505,-9.877571,3.670589,-2.024327,0.039095,-0.660956,-0.260228
2026-01-04T15:41:34.426505,-9.686145,3.029313,-1.837687,0.017104,-0.733038,-0.311541
2026-01-04T15:41:34.435505,-9.475577,2.828316,-1.459621,0.051312,-0.745255,-0.342084
2026-01-04T15:41:34.445505,-9.442077,2.522035,-1.741974,0.095294,-0.692721,-0.388510
2026-01-04T15:41:34.455505,-9.394221,2.493321,-2.660818,0.173485,-0.643851,-0.427605
2026-01-04T15:41:34.464505,-9.595218,2.785245,-2.383251,0.230907,-0.640186,-0.489913
2026-01-04T15:41:34.474505,-9.590432,2.924029,-1.220339,0.229685,-0.681725,-0.524122
2026-01-04T15:41:34.483505,-9.351150,3.058027,-1.617548,0.278554,-0.722042,-0.527787
2026-01-04T15:41:34.493505,-9.250652,3.192025,-1.780260,0.245567,-0.675616,-0.554665
2026-01-04T15:41:34.503505,-9.370293,2.828316,-0.827916,0.150272,-0.637743,-0.625525
2026-01-04T15:41:34.512505,-9.174081,2.584248,-0.966700,0.200363,-0.707381,-0.640186
2026-01-04T15:41:34.522505,-9.049655,2.699103,-0.971485,0.316428,-0.742811,-0.649960
2026-01-04T15:41:34.531505,-8.920442,2.799602,-0.866201,0.321315,-0.751364,-0.662177
2026-01-04T15:41:34.541505,-8.839086,2.991028,-1.823330,0.323758,-0.734259,-0.680503
2026-01-04T15:41:34.551505,-9.073583,3.345165,-2.177468,0.210137,-0.709825,-0.737925
2026-01-04T15:41:34.560505,-9.332008,3.225524,-1.832902,-0.063529,-0.673173,-0.818559
2026-01-04T15:41:34.570505,-9.647860,2.833101,-1.134197,-0.270002,-0.723264,-0.908967
2026-01-04T15:41:34.580505,-9.475577,2.569891,-1.024128,-0.353080,-0.858876,-0.962723
2026-01-04T15:41:34.589505,-9.169296,2.254038,-0.976271,-0.376292,-0.955393,-0.950506
2026-01-04T15:41:34.599505,-9.011369,1.612762,0.851844,-0.366519,-1.003040,-0.940732
2026-01-04T15:41:34.608505,-8.690731,1.129412,0.679561,-0.206472,-1.092226,-0.877202
2026-01-04T15:41:34.618505,-8.781658,1.158126,0.066999,0.075747,-1.088561,-0.816115
2026-01-04T15:41:34.628505,-9.140582,1.354337,0.344566,0.241902,-1.062905,-0.844215
2026-01-04T15:41:34.637505,-8.886943,1.852044,-0.200997,0.406836,-1.233947,-0.872315
2026-01-04T15:41:34.647505,-8.504091,2.455035,-0.607776,0.436157,-1.350011,-0.885754
2026-01-04T15:41:34.656505,-8.236095,2.502892,-0.784845,0.135612,-1.295034,-0.954171
2026-01-04T15:41:34.666505,-8.260023,2.177468,-1.392622,-0.116064,-1.202182,-1.062905
2026-01-04T15:41:34.676505,-8.532805,1.689332,-0.488135,-0.338419,-1.123991,-1.145982
2026-01-04T15:41:34.685505,-8.638089,0.507278,1.177268,-0.602312,-1.147204,-1.198517
2026-01-04T15:41:34.695505,-8.561519,-0.416351,1.000199,-0.469144,-1.187521,-1.214399
2026-01-04T15:41:34.705505,-8.623732,-0.583848,0.100498,-0.111177,-1.204625,-1.227838
2026-01-04T15:41:34.714505,-8.599804,-0.334995,0.770488,0.162490,-1.197295,-1.296255
2026-01-04T15:41:34.724505,-8.432306,0.507278,1.048056,0.489913,-1.281595,-1.336572
2026-01-04T15:41:34.733505,-8.283951,1.655833,0.602991,0.540004,-1.354898,-1.308473
2026-01-04T15:41:34.743505,-8.193024,2.029113,0.602991,0.301767,-1.339016,-1.331685
2026-01-04T15:41:34.753505,-8.035098,2.115255,0.387637,0.122173,-1.341459,-1.411098
2026-01-04T15:41:34.762505,-7.819744,1.986042,0.224925,-0.177150,-1.342681,-1.456302
2026-01-04T15:41:34.772505,-7.408178,0.861416,1.914258,-0.579100,-1.310916,-1.557706
2026-01-04T15:41:34.781505,-7.058826,-0.339780,2.790031,-0.758694,-1.282816,-1.601688
2026-01-04T15:41:34.791505,-6.709474,-0.784845,2.120040,-0.740368,-1.297477,-1.560149
2026-01-04T15:41:34.801505,-6.202196,-1.009771,1.363908,-0.624304,-1.317025,-1.524719
2026-01-04T15:41:34.810505,-5.522634,-0.516849,1.942971,-0.524122,-1.262047,-1.369559
2026-01-04T15:41:34.820505,-5.431707,-0.153140,1.354337,-0.339641,-1.053131,-1.193630
2026-01-04T15:41:34.830505,-5.814558,0.492921,-0.052642,-0.118507,-0.720820,-0.999375
2026-01-04T15:41:34.839505,-6.661618,1.153340,0.057427,-0.101403,-0.383623,-0.829554
2026-01-04T15:41:34.849505,-7.680960,1.349551,-0.320638,-0.149051,-0.139277,-0.663399
2026-01-04T15:41:34.858505,-8.384450,1.531406,-0.306281,-0.272445,-0.064751,-0.530230
2026-01-04T15:41:34.868505,-8.484948,0.981057,0.181854,-0.488692,-0.125838,-0.406836
2026-01-04T15:41:34.878505,-8.006384,0.311066,0.803988,-0.509461,-0.188146,-0.282219
2026-01-04T15:41:34.887505,-7.326822,0.052642,1.143769,-0.393397,-0.151494,-0.178372
2026-01-04T15:41:34.897505,-6.896114,-0.162711,1.488335,-0.309097,-0.028099,-0.067195
2026-01-04T15:41:34.906505,-6.876972,-0.349352,1.526620,-0.193033,0.120951,0.041538
2026-01-04T15:41:34.916505,-7.092326,-0.406779,1.607976,-0.081855,0.221133,0.153938
2026-01-04T15:41:34.926505,-7.360322,-0.248853,1.885544,-0.058643,0.280997,0.268780
2026-01-04T15:41:34.935505,-7.704888,-0.043070,2.086541,-0.089186,0.353080,0.354301
2026-01-04T15:41:34.945505,-8.245666,0.263210,1.411765,-0.141720,0.412944,0.398284
2026-01-04T15:41:34.955505,-8.800801,0.186640,1.095912,-0.233350,0.421496,0.408057
2026-01-04T15:41:34.964505,-9.059226,-0.186640,1.674975,-0.377514,0.382401,0.437379
2026-01-04T15:41:34.974505,-9.389435,-0.598205,1.244267,-0.367740,0.381179,0.460592
2026-01-04T15:41:34.983505,-9.485148,-0.708275,1.014556,-0.201585,0.332310,0.505796
2026-01-04T15:41:34.993505,-9.131011,-0.679561,1.378265,-0.056199,0.241902,0.587652
2026-01-04T15:41:35.003505,-8.537591,-0.598205,1.028913,0.043982,0.177150,0.689055
2026-01-04T15:41:35.012505,-7.891528,-0.311066,1.186840,0.131946,0.186924,0.762359
2026-01-04T15:41:35.022505,-7.479963,0.124426,1.445264,0.178372,0.300545,0.823446
2026-01-04T15:41:35.031505,-7.412964,0.732203,1.335195,0.129503,0.491135,0.861319
2026-01-04T15:41:35.041505,-7.719245,1.024128,1.473978,-0.078190,0.682947,0.873537
2026-01-04T15:41:35.051505,-8.159525,0.875773,0.923629,-0.333532,0.825889,0.894306
2026-01-04T15:41:35.060505,-8.752945,0.579063,0.689132,-0.515570,0.917519,0.917519
2026-01-04T15:41:35.070505,-9.284151,0.181854,0.923629,-0.626747,0.967610,0.921184
2026-01-04T15:41:35.080505,-9.609575,-0.473778,0.808774,-0.627969,0.916297,0.923628
2026-01-04T15:41:35.089505,-9.485148,-1.033699,0.205782,-0.488692,0.792902,0.915075
2026-01-04T15:41:35.099505,-8.992227,-1.229910,0.703489,-0.335975,0.679282,0.874758
2026-01-04T15:41:35.108505,-8.489734,-0.866201,1.363908,-0.156381,0.654847,0.814894
2026-01-04T15:41:35.118505,-7.953742,-0.019142,0.636490,0.032986,0.708603,0.764803
2026-01-04T15:41:35.128505,-7.274180,0.937986,0.229710,0.021991,0.761137,0.770911
2026-01-04T15:41:35.137505,-6.843472,1.579262,0.636490,-0.230907,0.906523,0.802676
2026-01-04T15:41:35.147505,-7.369893,1.789831,0.248853,-0.419053,1.264490,0.844215
2026-01-04T15:41:35.156505,-8.872586,1.818545,-0.421136,-0.508239,1.633453,0.850324
2026-01-04T15:41:35.166505,-10.695917,1.335195,0.435493,-0.656069,1.726304,0.813672
2026-01-04T15:41:35.176505,-11.729616,0.531206,0.631705,-0.640186,1.463632,0.780685
2026-01-04T15:41:35.185505,-11.428120,0.229710,0.583848,-0.432492,0.966388,0.734259
2026-01-04T15:41:35.195505,-9.743573,0.454636,0.105284,-0.293215,0.510683,0.684168
2026-01-04T15:41:35.205505,-7.891528,0.598205,-0.564706,-0.259006,0.368962,0.662177
2026-01-04T15:41:35.214505,-6.613761,0.823130,-0.387637,-0.301767,0.565661,0.624304
2026-01-04T15:41:35.224505,-6.494120,1.043270,-1.028913,-0.393397,0.965166,0.621860
2026-01-04T15:41:35.233505,-7.676174,1.067198,-1.416550,-0.461814,1.402546,0.640186
2026-01-04T15:41:35.243505,-9.643075,1.062413,-0.813559,-0.481361,1.698205,0.626747
2026-01-04T15:41:35.253505,-11.514262,0.985842,-0.349352,-0.375071,1.688431,0.610865
2026-01-04T15:41:35.262505,-12.069397,0.933200,-0.430708,-0.200363,1.274264,0.626747
2026-01-04T15:41:35.272505,-10.939984,0.961914,-0.200997,-0.125838,0.680503,0.618195
2026-01-04T15:41:35.281505,-9.016155,1.038485,-0.526420,-0.083077,0.343306,0.598647
2026-01-04T15:41:35.291505,-7.499106,1.244267,-0.679561,-0.068416,0.412944,0.558330
2026-01-04T15:41:35.301505,-6.896114,1.445264,-0.775274,-0.131946,0.703716,0.513126
2026-01-04T15:41:35.310505,-7.164110,1.713260,-0.775274,-0.180816,1.036027,0.504574
2026-01-04T15:41:35.320505,-8.269594,2.143969,-1.612762,-0.197920,1.297477,0.527787
2026-01-04T15:41:35.330505,-9.767501,2.234896,-1.899901,-0.250454,1.431867,0.553443
2026-01-04T15:41:35.339505,-11.021340,2.019542,-1.373480,-0.322536,1.363450,0.541226
2026-01-04T15:41:35.349505,-11.466405,1.627119,-1.234696,-0.306654,1.109331,0.536339
2026-01-04T15:41:35.358505,-11.107482,1.335195,-1.521835,-0.229685,0.764803,0.526565
2026-01-04T15:41:35.368505,-10.006784,0.957129,-0.995414,-0.173485,0.448374,0.477696
2026-01-04T15:41:35.378505,-8.642875,1.019342,-0.693918,-0.080634,0.280997,0.414166
2026-01-04T15:41:35.387505,-7.886743,1.373480,-1.464407,0.064751,0.376292,0.395840
2026-01-04T15:41:35.397505,-7.776673,1.823330,-1.947757,0.079412,0.627969,0.381179
2026-01-04T15:41:35.406505,-8.164310,2.096112,-1.861615,0.010995,0.795346,0.349414
2026-01-04T15:41:35.416505,-8.839086,2.254038,-1.804188,0.006108,0.873537,0.375071
2026-01-04T15:41:35.426505,-9.633503,2.440679,-2.306680,-0.012217,0.927293,0.417831
2026-01-04T15:41:35.435505,-10.303494,2.234896,-2.478964,-0.059864,0.883310,0.410501
2026-01-04T15:41:35.445505,-10.437492,2.033899,-2.292324,-0.034208,0.698829,0.397062
2026-01-04T15:41:35.455505,-9.982855,2.072184,-2.191825,0.053756,0.459370,0.400727
2026-01-04T15:41:35.464505,-9.207581,2.225325,-1.799402,0.084299,0.310319,0.404392
2026-01-04T15:41:35.474505,-8.513662,2.483749,-2.043470,0.100181,0.329867,0.408057
2026-01-04T15:41:35.483505,-8.288737,2.679961,-2.383251,0.075747,0.486248,0.416610
2026-01-04T15:41:35.493505,-8.638089,2.651247,-2.574677,-0.017104,0.647517,0.395840
2026-01-04T15:41:35.503505,-9.284151,2.498106,-3.048455,-0.070860,0.761137,0.367740
2026-01-04T15:41:35.512505,-10.016355,2.134397,-2.809173,-0.091629,0.775798,0.349414
2026-01-04T15:41:35.522505,-10.231709,1.928615,-2.598605,-0.084299,0.570548,0.315206
2026-01-04T15:41:35.531505,-9.939785,1.871187,-2.364108,0.000000,0.337197,0.320093
2026-01-04T15:41:35.541505,-9.379864,2.110469,-2.330609,0.059864,0.197920,0.327423
2026-01-04T15:41:35.551505,-8.776873,2.287538,-2.464607,0.105068,0.182037,0.298102
2026-01-04T15:41:35.560505,-8.705088,2.545963,-2.603390,0.149051,0.315206,0.301767
2026-01-04T15:41:35.570505,-8.776873,2.603390,-2.316252,0.081855,0.381179,0.291993
2026-01-04T15:41:35.580505,-8.877371,2.790031,-2.756531,0.010995,0.340862,0.266337
2026-01-04T15:41:35.589505,-9.303294,2.852244,-3.326023,-0.032986,0.449596,0.276111
2026-01-04T15:41:35.599505,-9.930213,2.804388,-3.326023,-0.109955,0.521678,0.241902
2026-01-04T15:41:35.608505,-10.322636,2.660818,-2.919243,-0.201585,0.426383,0.212581
2026-01-04T15:41:35.618505,-10.265208,2.191825,-2.555534,-0.215024,0.280997,0.248011
2026-01-04T15:41:35.628505,-9.628718,2.057827,-2.617747,-0.067195,0.087964,0.259006
2026-01-04T15:41:35.637505,-8.896514,2.359323,-2.651247,0.091629,-0.004886,0.265115
2026-01-04T15:41:35.647505,-8.685946,2.723032,-3.048455,0.161268,0.138055,0.266337
2026-01-04T15:41:35.656505,-8.910871,3.125026,-3.000599,0.166155,0.313984,0.215024
2026-01-04T15:41:35.666505,-9.255437,3.302095,-2.885744,0.075747,0.355523,0.162490
2026-01-04T15:41:35.676505,-9.446863,3.263810,-3.464807,-0.073303,0.318871,0.168598
2026-01-04T15:41:35.685505,-9.408578,3.125026,-3.574876,-0.183259,0.267558,0.119729
2026-01-04T15:41:35.695505,-9.355936,2.947957,-3.704089,-0.300545,0.244346,0.074525
2026-01-04T15:41:35.705505,-9.466006,2.488535,-3.713660,-0.326201,0.279776,0.090408
2026-01-04T15:41:35.714505,-9.576076,2.364108,-3.369094,-0.213802,0.276111,0.054977
2026-01-04T15:41:35.724505,-9.614361,2.158325,-2.727817,-0.136833,0.200363,0.065973
2026-01-04T15:41:35.733505,-9.413364,2.163111,-2.842673,0.021991,0.102625,0.085521
2026-01-04T15:41:35.743505,-9.217152,2.536391,-3.287738,0.189368,0.101403,0.078190
2026-01-04T15:41:35.753505,-9.303294,3.005385,-3.431307,0.226020,0.166155,0.052534
2026-01-04T15:41:35.762505,-9.384650,3.345165,-3.053241,0.174707,0.191811,0.018325
2026-01-04T15:41:35.772505,-9.365507,3.522234,-3.871586,0.111177,0.172263,0.018325
2026-01-04T15:41:35.781505,-9.221938,3.479164,-4.455435,-0.067195,0.129503,0.004886
2026-01-04T15:41:35.791505,-9.183653,3.192025,-4.144368,-0.245567,0.158824,-0.031764
2026-01-04T15:41:35.801505,-9.499505,2.799602,-3.330809,-0.254119,0.222354,-0.081855
2026-01-04T15:41:35.810505,-9.571290,2.397608,-3.134597,-0.234572,0.219911,-0.059864
2026-01-04T15:41:35.820505,-9.600004,2.105683,-3.278166,-0.140498,0.156381,-0.035430
2026-01-04T15:41:35.830505,-9.523433,2.263610,-3.349951,0.096516,0.127059,-0.057421
2026-01-04T15:41:35.839505,-9.461220,2.799602,-3.455235,0.250454,0.108733,-0.046425
2026-01-04T15:41:35.849505,-9.236295,3.187239,-3.302095,0.276111,0.085521,-0.050090
2026-01-04T15:41:35.858505,-9.159724,3.383451,-3.235096,0.228463,0.107512,-0.040317
2026-01-04T15:41:35.868505,-9.183653,3.498306,-3.699303,0.107512,0.142942,-0.043982
2026-01-04T15:41:35.878505,-9.360722,3.359522,-4.407579,-0.094073,0.208915,-0.036651
2026-01-04T15:41:35.887505,-9.781858,3.034099,-4.220939,-0.199142,0.224798,-0.069638
2026-01-04T15:41:35.897505,-9.925428,2.723032,-3.584448,-0.272445,0.106290,-0.089186
2026-01-04T15:41:35.906505,-9.801001,2.277967,-3.570091,-0.251676,-0.024434,-0.078190
2026-01-04T15:41:35.916505,-9.638289,2.124826,-3.254238,-0.078190,-0.059864,-0.090408
2026-01-04T15:41:35.926505,-9.571290,2.435893,-3.239881,0.095294,-0.063529,-0.096516
2026-01-04T15:41:35.935505,-9.619146,2.818745,-3.316452,0.227241,-0.096516,-0.083077
2026-01-04T15:41:35.945505,-9.623932,3.062812,-3.268595,0.261450,-0.084299,-0.034208
2026-01-04T15:41:35.955505,-9.461220,3.139383,-3.550948,0.233350,-0.102625,-0.008552
2026-01-04T15:41:35.964505,-9.245866,3.321237,-4.063012,0.171042,-0.163711,0.008552
2026-01-04T15:41:35.974505,-9.078368,3.440878,-4.086941,0.048869,-0.151494,0.009773
2026-01-04T15:41:35.983505,-9.241080,3.225524,-3.723231,-0.080634,-0.061086,-0.030543
2026-01-04T15:41:35.993505,-9.446863,2.909672,-3.694518,-0.173485,-0.028099,-0.053756
2026-01-04T15:41:36.003505,-9.580861,2.560320,-3.584448,-0.227241,-0.108733,-0.103847
2026-01-04T15:41:36.012505,-9.552147,2.120040,-3.517449,-0.254119,-0.180816,-0.158824
2026-01-04T15:41:36.022505,-9.379864,1.928615,-3.354737,-0.182037,-0.224798,-0.213802
2026-01-04T15:41:36.031505,-9.236295,2.273181,-3.455235,-0.031764,-0.216246,-0.233350
2026-01-04T15:41:36.041505,-9.322436,2.813959,-3.536591,0.051312,-0.193033,-0.200363
2026-01-04T15:41:36.051505,-9.772287,3.402593,-4.244867,0.111177,-0.134390,-0.145385
2026-01-04T15:41:36.060505,-11.686545,4.747360,-8.231309,0.307876,0.313984,-0.068416
2026-01-04T15:41:36.070505,-16.587046,6.589833,-8.197810,0.456927,1.292590,-0.078190
2026-01-04T15:41:36.080505,-20.544773,5.369493,-5.833701,0.068416,1.533271,0.030543
2026-01-04T15:41:36.089505,-18.329021,3.603590,-4.713860,-0.361632,-0.569326,0.296880
2026-01-04T15:41:36.099505,-11.389835,1.655833,-1.081555,-0.293215,-2.315178,0.498465
2026-01-04T15:41:36.108505,-5.441278,0.818345,-2.986242,0.085521,-2.478890,0.631634
2026-01-04T15:41:36.118505,-2.287538,2.785245,-7.542176,0.570548,-1.943772,0.459370
2026-01-04T15:41:36.128505,-3.019742,3.775874,-3.876372,0.660956,-0.182037,0.284663
2026-01-04T15:41:36.137505,-7.159325,2.708675,-0.880558,0.152716,1.302364,0.266337
2026-01-04T15:41:36.147505,-10.399207,2.488535,-1.880758,0.321315,0.919962,0.183259
2026-01-04T15:41:36.156505,-11.978469,3.091526,-2.383251,0.382401,0.197920,0.470366
2026-01-04T15:41:36.166505,-11.964113,3.287738,-3.335594,0.267558,-0.310319,0.416610
2026-01-04T15:41:36.176505,-11.050054,3.282952,-3.943371,0.130725,-0.507018,0.489913
2026-01-04T15:41:36.185505,-9.762716,3.483949,-4.278366,0.089186,-0.855211,0.472809
2026-01-04T15:41:36.195505,-8.671589,2.928814,-3.704089,-0.078190,-0.757472,0.533896
2026-01-04T15:41:36.205505,-8.762516,2.536391,-3.507877,0.010995,-0.463035,0.492357
2026-01-04T15:41:36.214505,-8.901300,2.402393,-2.196611,0.067195,-0.317649,0.445931
2026-01-04T15:41:36.224505,-8.733802,2.622533,-3.364308,0.211359,-0.474031,0.427605
2026-01-04T15:41:36.233505,-9.049655,3.536591,-6.202196,0.321315,-0.290771,0.411723
2026-01-04T15:41:36.243505,-10.346564,3.833301,-4.412364,0.083077,0.096516,0.250454
2026-01-04T15:41:36.253505,-11.236694,3.369094,-2.019542,-0.032986,0.046425,0.136833
2026-01-04T15:41:36.262505,-11.112268,3.584448,-4.120440,0.113620,-0.160046,0.299323
2026-01-04T15:41:36.272505,-10.983055,3.536591,-4.699503,0.054977,-0.164933,0.317649
2026-01-04T15:41:36.281505,-10.303494,3.129811,-2.742174,0.072082,-0.302989,0.207694
2026-01-04T15:41:36.291505,-9.537790,3.416950,-3.440878,0.307876,-0.372627,0.306654
2026-01-04T15:41:36.301505,-9.432506,3.881158,-4.125226,0.312762,-0.157603,0.302989
2026-01-04T15:41:36.310505,-10.054640,3.909872,-3.594019,0.186924,0.064751,0.219911
2026-01-04T15:41:36.320505,-10.662417,3.862015,-3.292523,0.078190,0.080634,0.254119
2026-01-04T15:41:36.330505,-10.676774,3.632304,-3.632304,-0.061086,-0.096516,0.252898
2026-01-04T15:41:36.339505,-10.341779,3.144168,-3.799802,-0.086742,-0.184481,0.254119
2026-01-04T15:41:36.349505,-10.183852,3.067598,-3.421736,-0.054977,-0.215024,0.249232
2026-01-04T15:41:36.358505,-9.963713,3.005385,-2.522035,0.086742,-0.207694,0.189368
2026-01-04T15:41:36.368505,-9.958927,3.584448,-2.833101,0.335975,-0.206472,0.239459
2026-01-04T15:41:36.378505,-10.169496,4.230510,-4.067798,0.401949,-0.153938,0.274889
2026-01-04T15:41:36.387505,-10.796415,4.388436,-3.785445,0.337197,-0.147829,0.244346
2026-01-04T15:41:36.397505,-10.810772,4.240081,-1.751546,0.218689,-0.293215,0.202807
2026-01-04T15:41:36.406505,-10.112068,3.986442,-3.215953,0.128281,-0.497244,0.267558
2026-01-04T15:41:36.416505,-9.657432,3.943371,-4.699503,0.021991,-0.510683,0.252898
2026-01-04T15:41:36.426505,-9.863214,3.412165,-3.335594,-0.249232,-0.404392,0.195476
2026-01-04T15:41:36.435505,-10.006784,2.708675,-1.220339,-0.182037,-0.426383,0.114842
2026-01-04T15:41:36.445505,-9.978070,2.598605,-3.014956,0.078190,-0.409279,0.219911
2026-01-04T15:41:36.455505,-10.131210,2.885744,-4.254438,0.207694,-0.458148,0.171042
2026-01-04T15:41:36.464505,-10.021141,3.268595,-2.134397,0.316428,-0.586430,0.031764
2026-01-04T15:41:36.474505,-9.834500,3.847658,-2.813959,0.430049,-0.559552,0.076969
2026-01-04T15:41:36.483505,-9.585647,4.254438,-4.402793,0.350636,-0.537561,0.020769
2026-01-04T15:41:36.493505,-9.427721,4.039084,-2.569891,0.090408,-0.586430,-0.090408
2026-01-04T15:41:36.503505,-9.274580,3.464807,-1.775474,0.019547,-0.602312,-0.129503
2026-01-04T15:41:36.512505,-9.198010,3.345165,-3.019742,0.036651,-0.531452,-0.108733
2026-01-04T15:41:36.522505,-9.427721,3.192025,-2.158325,0.064751,-0.515570,-0.193033
2026-01-04T15:41:36.531505,-9.690931,3.225524,-2.148754,0.161268,-0.548556,-0.191811
2026-01-04T15:41:36.541505,-9.791430,3.254238,-2.598605,0.086742,-0.579100,-0.194255
2026-01-04T15:41:36.551505,-9.571290,2.971885,-2.833101,0.034208,-0.610865,-0.294436
2026-01-04T15:41:36.560505,-9.255437,3.043670,-2.818745,-0.014660,-0.616973,-0.323758
2026-01-04T15:41:36.570505,-9.121439,2.914457,-2.392822,-0.101403,-0.547335,-0.362853
2026-01-04T15:41:36.580505,-9.226723,2.718246,-2.005185,0.010995,-0.463035,-0.370184
2026-01-04T15:41:36.589505,-9.518648,2.995813,-2.593819,0.189368,-0.469144,-0.333532
2026-01-04T15:41:36.599505,-9.729216,3.192025,-1.651047,0.228463,-0.552222,-0.340862
2026-01-04T15:41:36.608505,-9.686145,3.096312,-0.636490,0.277332,-0.649960,-0.333532
2026-01-04T15:41:36.618505,-9.365507,3.292523,-1.856830,0.372627,-0.713490,-0.306654
2026-01-04T15:41:36.628505,-9.083154,3.330809,-2.464607,0.194255,-0.753807,-0.346971
2026-01-04T15:41:36.637505,-8.882157,2.804388,-1.741974,-0.046425,-0.775798,-0.445931
2026-01-04T15:41:36.647505,-8.748159,2.617747,-1.689332,-0.064751,-0.698829,-0.470366
2026-01-04T15:41:36.656505,-9.145367,2.407179,-1.722832,-0.144164,-0.568104,-0.487470
2026-01-04T15:41:36.666505,-9.451649,1.737189,-1.220339,-0.172263,-0.540004,-0.499687
2026-01-04T15:41:36.676505,-9.671788,1.598405,-0.736989,0.026878,-0.652403,-0.464257
2026-01-04T15:41:36.685505,-9.623932,1.785045,-1.162911,0.289550,-0.711046,-0.421496
2026-01-04T15:41:36.695505,-9.657432,2.124826,-1.325623,0.481361,-0.726929,-0.390953
2026-01-04T15:41:36.705505,-9.552147,2.703889,-1.473978,0.605978,-0.828333,-0.401949
2026-01-04T15:41:36.714505,-8.958727,3.206382,-1.775474,0.593760,-0.922406,-0.441044
2026-01-04T15:41:36.724505,-8.585447,3.168097,-1.612762,0.302989,-0.902858,-0.538783
2026-01-04T15:41:36.733505,-8.508877,3.168097,-2.057827,0.128281,-0.774576,-0.667064
2026-01-04T15:41:36.743505,-8.925228,3.254238,-1.268195,0.001221,-0.603534,-0.734259
2026-01-04T15:41:36.753505,-9.389435,2.579462,-0.823130,-0.277332,-0.565661,-0.728151
2026-01-04T15:41:36.762505,-9.757930,1.550549,-1.497906,-0.382401,-0.637743,-0.654847
2026-01-04T15:41:36.772505,-9.973284,0.856630,-0.105284,-0.216246,-0.752585,-0.675616
2026-01-04T15:41:36.781505,-9.753144,0.492921,0.516849,0.100181,-0.927293,-0.625525
2026-01-04T15:41:36.791505,-9.135796,0.904486,0.454636,0.499687,-1.120326,-0.579100
2026-01-04T15:41:36.801505,-8.585447,2.086541,-0.717846,0.780685,-1.166752,-0.576656
2026-01-04T15:41:36.810505,-8.891728,3.158525,-2.048256,0.773355,-1.003040,-0.624304
2026-01-04T15:41:36.820505,-9.614361,3.522234,-0.555134,0.433714,-0.934623,-0.737925
2026-01-04T15:41:36.830505,-10.001998,3.359522,-0.392422,0.166155,-1.070235,-0.807563
2026-01-04T15:41:36.839505,-10.097711,2.699103,-1.220339,-0.107512,-1.132543,-0.806341
2026-01-04T15:41:36.849505,-9.949356,1.435693,-0.416351,-0.361632,-1.199739,-0.901636
2026-01-04T15:41:36.858505,-9.308079,0.248853,1.148554,-0.285884,-1.386663,-0.965166
2026-01-04T15:41:36.868505,-8.149953,-0.071784,2.512463,-0.086742,-1.596801,-0.918741
2026-01-04T15:41:36.878505,-6.963113,-0.100498,1.526620,0.109955,-1.622457,-0.858876
2026-01-04T15:41:36.887505,-6.824330,0.593420,0.129212,0.359188,-1.365894,-0.867428
2026-01-04T15:41:36.897505,-7.786244,1.306481,0.368494,0.399505,-1.005483,-0.901636
2026-01-04T15:41:36.906505,-9.375078,1.488335,-0.086141,0.306654,-0.810007,-0.941954
2026-01-04T15:41:36.916505,-10.523633,1.469193,0.311066,0.193033,-0.927293,-1.015257
2026-01-04T15:41:36.926505,-10.590632,1.004985,0.330209,0.062308,-1.257160,-1.070235
2026-01-04T15:41:36.935505,-9.341579,0.459421,0.234496,0.026878,-1.600466,-1.122770
2026-01-04T15:41:36.945505,-7.843672,0.392422,0.066999,0.096516,-1.721417,-1.196073
2026-01-04T15:41:36.955505,-7.034898,0.387637,1.048056,0.064751,-1.541823,-1.274264
2026-01-04T15:41:36.964505,-6.757331,0.052642,1.990828,-0.003665,-1.282816,-1.337794
2026-01-04T15:41:36.974505,-7.326822,0.162711,1.091127,0.046425,-1.064127,-1.362229
2026-01-04T15:41:36.983505,-8.269594,0.325423,1.718046,0.001221,-0.901636,-1.385442
2026-01-04T15:41:36.993505,-9.020941,0.435493,2.220539,0.006108,-0.941954,-1.392772
2026-01-04T15:41:37.003505,-8.518448,0.435493,1.473978,0.058643,-1.194852,-1.365894
2026-01-04T15:41:37.012505,-7.259823,0.449850,1.205982,0.024434,-1.364672,-1.307251
2026-01-04T15:41:37.022505,-5.804987,0.612562,1.095912,0.040317,-1.332907,-1.258382
2026-01-04T15:41:37.031505,-4.771288,0.693918,0.646062,-0.113620,-1.088561,-1.120326
2026-01-04T15:41:37.041505,-4.646861,0.430708,0.497707,-0.403170,-0.687834,-0.927293
2026-01-04T15:41:37.051505,-5.479563,0.459421,0.693918,-0.502131,-0.239459,-0.745255
2026-01-04T15:41:37.060505,-6.752545,1.086341,1.028913,-0.480139,0.035430,-0.544891
2026-01-04T15:41:37.070505,-7.862815,1.497906,0.899701,-0.568104,0.064751,-0.293215
2026-01-04T15:41:37.080505,-8.106882,1.383051,0.942772,-0.681725,0.014660,-0.089186
2026-01-04T15:41:37.089505,-8.011170,1.196411,0.823130,-0.664621,0.045204,0.059864
2026-01-04T15:41:37.099505,-7.800601,0.870987,0.646062,-0.642630,0.129503,0.189368
2026-01-04T15:41:37.108505,-7.958527,0.387637,0.866201,-0.647517,0.280997,0.310319
2026-01-04T15:41:37.118505,-8.446663,0.119641,0.866201,-0.538783,0.433714,0.384845
2026-01-04T15:41:37.128505,-9.001798,-0.043070,1.225125,-0.399505,0.464257,0.415388
2026-01-04T15:41:37.137505,-9.016155,-0.315852,2.163111,-0.420275,0.366519,0.448374
2026-01-04T15:41:37.147505,-8.815158,-0.885344,1.741974,-0.444709,0.272445,0.480139
2026-01-04T15:41:37.156505,-8.504091,-1.229910,1.196411,-0.312762,0.243124,0.482583
2026-01-04T15:41:37.166505,-8.226524,-1.038485,1.607976,-0.138055,0.238237,0.505796
2026-01-04T15:41:37.176505,-8.054240,-0.574277,2.297109,-0.015882,0.250454,0.588873
2026-01-04T15:41:37.185505,-7.987241,-0.066999,2.115255,0.109955,0.273667,0.649960
2026-01-04T15:41:37.195505,-7.733602,0.674775,2.206182,0.144164,0.302989,0.723264
2026-01-04T15:41:37.205505,-7.499106,1.110269,1.852044,0.019547,0.335975,0.813672
2026-01-04T15:41:37.214505,-7.312465,1.383051,1.100698,-0.172263,0.431270,0.885754
2026-01-04T15:41:37.224505,-7.403393,1.493121,0.516849,-0.459370,0.610865,0.919962
2026-01-04T15:41:37.233505,-7.939385,0.818345,0.397208,-0.833220,0.825889,0.927293
2026-01-04T15:41:37.243505,-8.791230,-0.588634,0.760917,-1.060461,1.000597,0.939510
2026-01-04T15:41:37.253505,-9.887142,-1.694118,1.363908,-0.850324,1.091005,0.927293
2026-01-04T15:41:37.262505,-10.490134,-1.832902,1.402194,-0.282219,0.992044,0.902858
2026-01-04T15:41:37.272505,-10.092925,-0.937986,0.899701,0.260228,0.698829,0.907745
2026-01-04T15:41:37.281505,-8.772087,0.397208,0.440279,0.461814,0.412944,0.913854
2026-01-04T15:41:37.291505,-7.398607,1.359123,0.555134,0.340862,0.367740,0.866206
2026-01-04T15:41:37.301505,-6.541976,1.919043,0.808774,0.006108,0.575434,0.807563
2026-01-04T15:41:37.310505,-6.393621,1.761117,0.411565,-0.408057,0.934623,0.769690
2026-01-04T15:41:37.320505,-7.097111,1.368694,0.301495,-0.741590,1.285260,0.741590
2026-01-04T15:41:37.330505,-8.087740,0.617348,0.526420,-0.937067,1.511280,0.748920
2026-01-04T15:41:37.339505,-9.322436,0.138783,0.181854,-0.882089,1.573588,0.797789
2026-01-04T15:41:37.349505,-10.533205,0.004785,-0.196211,-0.566882,1.546710,0.822224
2026-01-04T15:41:37.358505,-11.155338,0.210568,0.574277,-0.232128,1.413541,0.786794
2026-01-04T15:41:37.368505,-11.356336,0.478564,-0.043070,0.023212,1.144761,0.757472
2026-01-04T15:41:37.378505,-10.753344,0.937986,-0.315852,0.215024,0.849102,0.695164
2026-01-04T15:41:37.387505,-9.442077,1.416550,0.272781,0.180816,0.607199,0.579100
2026-01-04T15:41:37.397505,-7.982456,1.521835,0.229710,-0.028099,0.498465,0.546113
2026-01-04T15:41:37.406505,-6.924828,1.550549,-0.133998,-0.238237,0.587652,0.526565
2026-01-04T15:41:37.416505,-6.623332,1.741974,-0.521635,-0.428827,0.871093,0.511904
2026-01-04T15:41:37.426505,-7.441678,1.598405,-0.583848,-0.621860,1.276708,0.560774
2026-01-04T15:41:37.435505,-9.250652,1.115055,-0.780060,-0.682947,1.633453,0.561995
2026-01-04T15:41:37.445505,-11.236694,0.531206,-1.359123,-0.537561,1.727526,0.536339
2026-01-04T15:41:37.455505,-12.476177,0.248853,-0.890130,-0.294436,1.446528,0.521678
2026-01-04T15:41:37.464505,-12.102896,0.253639,-0.287138,0.014660,0.923628,0.478918
2026-01-04T15:41:37.474505,-10.475777,0.799202,-0.521635,0.298102,0.458148,0.453261
2026-01-04T15:41:37.483505,-8.470592,1.641476,-0.564706,0.395840,0.260228,0.417831
2026-01-04T15:41:37.493505,-6.991827,2.373680,-0.607776,0.307876,0.348193,0.373849
2026-01-04T15:41:37.503505,-6.474977,2.766102,-0.736989,0.079412,0.662177,0.378736
2026-01-04T15:41:37.512505,-7.183253,2.828316,-1.383051,-0.278554,1.119104,0.412944
2026-01-04T15:41:37.522505,-8.762516,2.196611,-1.488335,-0.565661,1.524719,0.398284
2026-01-04T15:41:37.531505,-10.585847,1.531406,-1.488335,-0.623082,1.613905,0.355523
2026-01-04T15:41:37.541505,-11.691331,0.928415,-1.895115,-0.535117,1.367116,0.367740
2026-01-04T15:41:37.551505,-11.734402,0.545563,-1.871187,-0.390953,0.970053,0.376292
2026-01-04T15:41:37.560505,-10.724630,0.425922,-1.363908,-0.164933,0.596204,0.337197
2026-01-04T15:41:37.570505,-9.178867,1.019342,-1.220339,0.098960,0.353080,0.310319
2026-01-04T15:41:37.580505,-7.872386,1.751546,-1.545763,0.235793,0.357966,0.304210
2026-01-04T15:41:37.589505,-7.264609,2.325823,-1.674975,0.195476,0.598647,0.283441
2026-01-04T15:41:37.599505,-7.613961,2.885744,-1.584048,0.052534,0.905302,0.257785
2026-01-04T15:41:37.608505,-8.705088,3.014956,-1.880758,-0.125838,1.178969,0.267558
2026-01-04T15:41:37.618505,-10.021141,2.794816,-2.129612,-0.296880,1.314581,0.280997
2026-01-04T15:41:37.628505,-10.997412,2.373680,-2.340180,-0.370184,1.194852,0.262671
2026-01-04T15:41:37.637505,-11.121839,1.962114,-2.598605,-0.365297,0.882089,0.279776
2026-01-04T15:41:37.647505,-10.461420,1.660618,-2.608176,-0.307876,0.565661,0.299323
2026-01-04T15:41:37.656505,-9.499505,1.540977,-2.053041,-0.185702,0.397062,0.270002
2026-01-04T15:41:37.666505,-8.571090,1.727617,-2.258824,-0.084299,0.390953,0.265115
2026-01-04T15:41:37.676505,-8.054240,1.823330,-2.330609,-0.069638,0.480139,0.273667
2026-01-04T15:41:37.685505,-7.896314,1.875972,-2.072184,-0.080634,0.599869,0.243124
2026-01-04T15:41:37.695505,-8.245666,2.263610,-2.522035,-0.052534,0.756251,0.224798
2026-01-04T15:41:37.705505,-9.178867,2.517249,-3.091526,-0.046425,0.954171,0.207694
2026-01-04T15:41:37.714505,-10.418349,2.545963,-2.933600,-0.072082,1.051909,0.197920
2026-01-04T15:41:37.724505,-11.011769,2.421536,-2.809173,-0.075747,0.842993,0.226020
2026-01-04T15:41:37.733505,-10.681560,2.220539,-2.483749,-0.079412,0.432492,0.279776
2026-01-04T15:41:37.743505,-9.738787,2.124826,-2.402393,-0.070860,0.161268,0.305432
2026-01-04T15:41:37.753505,-9.064012,2.053041,-2.603390,-0.046425,0.184481,0.317649
2026-01-04T15:41:37.762505,-8.743373,2.129612,-2.756531,-0.007330,0.311541,0.295658
2026-01-04T15:41:37.772505,-8.733802,2.335394,-2.488535,0.029321,0.375071,0.274889
2026-01-04T15:41:37.781505,-8.839086,2.684746,-2.545963,0.048869,0.377514,0.280997
2026-01-04T15:41:37.791505,-9.332008,2.957528,-3.828516,0.073303,0.464257,0.265115
2026-01-04T15:41:37.801505,-10.102497,3.086741,-4.000799,0.018325,0.548556,0.235793
2026-01-04T15:41:37.810505,-10.801201,2.804388,-3.254238,-0.118507,0.448374,0.208915
2026-01-04T15:41:37.820505,-10.681560,2.287538,-3.144168,-0.157603,0.180816,0.237015
2026-01-04T15:41:37.830505,-9.791430,1.942971,-2.876172,-0.114842,-0.113620,0.249232
2026-01-04T15:41:37.839505,-8.848657,1.880758,-3.062812,-0.041538,-0.227241,0.234572
2026-01-04T15:41:37.849505,-8.360522,2.005185,-2.952743,0.052534,-0.048869,0.228463
2026-01-04T15:41:37.858505,-8.484948,2.225325,-2.866601,0.127059,0.182037,0.191811
2026-01-04T15:41:37.868505,-8.685946,2.598605,-3.172882,0.162490,0.217467,0.174707
2026-01-04T15:41:37.878505,-8.944370,2.938386,-3.579662,0.155159,0.194255,0.184481
2026-01-04T15:41:37.887505,-9.422935,3.062812,-3.651447,0.128281,0.274889,0.163711
2026-01-04T15:41:37.897505,-9.925428,3.182454,-3.924229,0.075747,0.309097,0.135612
2026-01-04T15:41:37.906505,-10.423135,3.282952,-4.359722,0.021991,0.233350,0.136833
2026-01-04T15:41:37.916505,-10.494919,2.943171,-3.589233,-0.063529,0.070860,0.141720
2026-01-04T15:41:37.926505,-9.887142,2.306680,-2.928814,-0.158824,-0.164933,0.144164
2026-01-04T15:41:37.935505,-9.078368,1.962114,-2.823530,-0.113620,-0.283441,0.164933
2026-01-04T15:41:37.945505,-8.518448,1.995614,-2.909672,0.046425,-0.162490,0.131946
2026-01-04T15:41:37.955505,-8.432306,2.335394,-3.704089,0.173485,0.015882,0.080634
2026-01-04T15:41:37.964505,-8.628518,2.794816,-3.823730,0.179594,0.113620,0.046425
2026-01-04T15:41:37.974505,-8.997012,3.062812,-3.550948,0.125838,0.180816,0.013439
2026-01-04T15:41:37.983505,-9.241080,3.115455,-3.704089,0.025656,0.208915,0.002443
2026-01-04T15:41:37.993505,-9.623932,3.077169,-4.307080,-0.095294,0.197920,-0.015882
2026-01-04T15:41:38.003505,-10.092925,2.756531,-3.728017,-0.156381,0.211359,-0.028099
2026-01-04T15:41:38.012505,-10.174281,2.421536,-3.507877,-0.149051,0.091629,-0.047647
2026-01-04T15:41:38.022505,-9.958927,2.325823,-3.909872,-0.037873,-0.074525,-0.023212
2026-01-04T15:41:38.031505,-9.647860,2.493321,-3.091526,0.111177,-0.131946,-0.004886
2026-01-04T15:41:38.041505,-9.446863,2.742174,-2.770888,0.186924,-0.150272,-0.006108
2026-01-04T15:41:38.051505,-9.131011,3.024527,-3.177668,0.238237,-0.138055,0.031764
2026-01-04T15:41:38.060505,-9.140582,3.249453,-3.287738,0.204028,-0.106290,0.045204
2026-01-04T15:41:38.070505,-9.164510,3.230310,-3.359522,0.070860,-0.076969,0.050090
2026-01-04T15:41:38.080505,-9.336793,3.048455,-3.354737,-0.029321,-0.053756,0.045204
2026-01-04T15:41:38.089505,-9.580861,2.976671,-3.996013,-0.079412,0.006108,0.042760
2026-01-04T15:41:38.099505,-9.882357,2.775674,-4.077369,-0.136833,0.017104,0.039095
2026-01-04T15:41:38.108505,-9.896714,2.373680,-3.622733,-0.155159,-0.092851,0.023212
2026-01-04T15:41:38.118505,-9.710074,2.187039,-3.450450,-0.061086,-0.184481,0.070860
2026-01-04T15:41:38.128505,-9.355936,2.507678,-3.775874,0.091629,-0.243124,0.076969
2026-01-04T15:41:38.137505,-9.116654,2.823530,-3.708875,0.186924,-0.256563,0.063529
2026-01-04T15:41:38.147505,-9.260223,3.254238,-3.091526,0.226020,-0.168598,0.085521
2026-01-04T15:41:38.156505,-9.777073,3.364308,-3.479164,0.172263,-0.047647,0.113620
2026-01-04T15:41:38.166505,-10.035497,3.148954,-3.527020,0.086742,-0.087964,0.117286
2026-01-04T15:41:38.176505,-9.934999,3.043670,-3.565305,0.023212,-0.215024,0.128281
2026-01-04T15:41:38.185505,-9.485148,2.952743,-3.885943,0.002443,-0.290771,0.125838
2026-01-04T15:41:38.195505,-9.049655,2.943171,-4.039084,-0.031764,-0.257785,0.087964
2026-01-04T15:41:38.205505,-8.858229,2.895315,-4.015156,-0.096516,-0.164933,0.048869
2026-01-04T15:41:38.214505,-8.906085,2.689532,-3.814159,-0.156381,-0.075747,-0.003665
2026-01-04T15:41:38.224505,-9.035298,2.416750,-3.919443,-0.206472,-0.004886,-0.046425
2026-01-04T15:41:38.233505,-9.982855,2.876172,-5.809773,-0.107512,0.182037,-0.123394
2026-01-04T15:41:38.243505,-12.648460,3.948157,-8.293523,0.018325,0.773355,-0.164933
2026-01-04T15:41:38.253505,-16.687544,4.278366,-4.465006,0.073303,1.396437,-0.279776
2026-01-04T15:41:38.262505,-17.678173,3.201596,-3.656232,-0.078190,0.768468,-0.051312
2026-01-04T15:41:38.272505,-14.026726,2.675175,-1.952543,-0.118507,-1.042135,0.118507
2026-01-04T15:41:38.281505,-8.738588,2.134397,-1.660618,0.149051,-1.826486,0.177150
2026-01-04T15:41:38.291505,-5.737988,3.464807,-7.331608,0.483805,-1.434311,0.331088
2026-01-04T15:41:38.301505,-5.201996,4.646861,-4.398007,0.568104,-0.481361,0.051312
2026-01-04T15:41:38.310505,-7.063612,3.148954,-0.899701,-0.009773,0.518013,0.130725
2026-01-04T15:41:38.320505,-8.781658,1.923829,-2.627319,-0.123394,0.322536,0.271224
2026-01-04T15:41:38.330505,-9.805787,2.043470,-1.885544,0.272445,-0.007330,0.265115
2026-01-04T15:41:38.339505,-11.222337,2.541177,-2.770888,0.507018,0.053756,0.343306
2026-01-04T15:41:38.349505,-11.729616,3.086741,-4.613361,0.438601,-0.162490,0.382401
2026-01-04T15:41:38.358505,-10.863414,3.244667,-4.517649,0.282219,-0.704938,0.332310
2026-01-04T15:41:38.368505,-9.456434,3.388236,-4.393222,0.211359,-0.871093,0.339641
2026-01-04T15:41:38.378505,-8.595018,3.211167,-3.589233,0.058643,-0.582765,0.327423
2026-01-04T15:41:38.387505,-8.121239,2.900100,-2.952743,0.010995,-0.434935,0.256563
2026-01-04T15:41:38.397505,-8.097311,3.220739,-3.445664,0.091629,-0.276111,0.300545
2026-01-04T15:41:38.406505,-9.255437,3.412165,-5.063212,0.003665,0.112399,0.338419
2026-01-04T15:41:38.416505,-10.935199,3.311666,-3.546163,-0.045204,0.250454,0.256563
2026-01-04T15:41:38.426505,-11.949756,3.560520,-1.253839,0.070860,0.043982,0.259006
2026-01-04T15:41:38.435505,-12.098111,3.531806,-3.713660,0.195476,-0.078190,0.379958
2026-01-04T15:41:38.445505,-11.519047,3.632304,-5.412564,0.134390,-0.289550,0.373849
2026-01-04T15:41:38.455505,-10.102497,3.483949,-3.646661,0.045204,-0.571769,0.255341
2026-01-04T15:41:38.464505,-9.327222,3.460021,-3.814159,0.098960,-0.438601,0.299323
2026-01-04T15:41:38.474505,-9.442077,3.560520,-4.063012,0.046425,-0.123394,0.251676
2026-01-04T15:41:38.483505,-9.997212,3.354737,-3.828516,-0.102625,-0.021991,0.227241
2026-01-04T15:41:38.493505,-10.777272,3.014956,-2.938386,-0.107512,0.026878,0.270002
2026-01-04T15:41:38.503505,-11.131410,3.005385,-3.407379,0.019547,-0.076969,0.301767
2026-01-04T15:41:38.512505,-11.021340,3.196810,-3.225524,0.150272,-0.296880,0.326201
2026-01-04T15:41:38.522505,-10.810772,3.450450,-2.770888,0.290771,-0.355523,0.334754
2026-01-04T15:41:38.531505,-10.542776,3.818944,-2.928814,0.349414,-0.364075,0.340862
2026-01-04T15:41:38.541505,-9.978070,3.952942,-3.220739,0.262671,-0.476474,0.337197
2026-01-04T15:41:38.551505,-9.595218,4.163511,-2.790031,0.217467,-0.496022,0.299323
2026-01-04T15:41:38.560505,-9.662217,4.086941,-4.063012,0.100181,-0.349414,0.332310
2026-01-04T15:41:38.570505,-10.313065,3.579662,-3.464807,-0.058643,-0.326201,0.289550
2026-01-04T15:41:38.580505,-10.609775,2.852244,-2.455035,-0.075747,-0.375071,0.305432
2026-01-04T15:41:38.589505,-10.619346,2.718246,-2.450250,0.168598,-0.519235,0.301767
2026-01-04T15:41:38.599505,-10.217352,2.871387,-4.063012,0.219911,-0.601091,0.312762
2026-01-04T15:41:38.608505,-9.896714,2.981456,-2.632104,0.238237,-0.641408,0.177150
2026-01-04T15:41:38.618505,-9.437292,3.503092,-1.785045,0.365297,-0.645073,0.084299
2026-01-04T15:41:38.628505,-9.288937,4.101297,-3.067598,0.210137,-0.609643,0.092851
2026-01-04T15:41:38.637505,-9.446863,4.067798,-2.574677,-0.010995,-0.555887,-0.034208
2026-01-04T15:41:38.647505,-10.016355,4.235296,-1.828116,0.004886,-0.463035,-0.025656
2026-01-04T15:41:38.656505,-10.432706,4.163511,-2.723032,-0.039095,-0.549778,-0.028099
2026-01-04T15:41:38.666505,-10.140782,3.546163,-3.153740,-0.166155,-0.778242,-0.096516
2026-01-04T15:41:38.676505,-9.485148,2.904886,-2.129612,-0.173485,-0.904080,-0.186924
2026-01-04T15:41:38.685505,-8.786444,2.675175,-2.268395,-0.124616,-0.856432,-0.200363
2026-01-04T15:41:38.695505,-8.623732,2.502892,-2.952743,-0.096516,-0.681725,-0.173485
2026-01-04T15:41:38.705505,-9.260223,2.440679,-2.263610,0.046425,-0.524122,-0.179594
2026-01-04T15:41:38.714505,-9.978070,2.656033,-1.727617,0.173485,-0.508239,-0.105068
2026-01-04T15:41:38.724505,-10.576275,2.813959,-2.368894,0.338419,-0.605978,-0.035430
2026-01-04T15:41:38.733505,-10.992627,3.589233,-1.933400,0.536339,-0.778242,-0.006108
2026-01-04T15:41:38.743505,-10.681560,4.010370,-2.076970,0.540004,-1.012814,0.007330
2026-01-04T15:41:38.753505,-9.743573,3.871586,-2.593819,0.354301,-1.221730,-0.057421
2026-01-04T15:41:38.762505,-8.800801,3.517449,-2.210968,0.091629,-1.231504,-0.218689
2026-01-04T15:41:38.772505,-8.264809,3.072384,-1.617548,-0.102625,-1.066570,-0.309097
2026-01-04T15:41:38.781505,-8.111668,2.493321,-0.995414,-0.134390,-0.924849,-0.351858
2026-01-04T15:41:38.791505,-8.283951,2.014756,-1.043270,-0.078190,-0.784350,-0.333532
2026-01-04T15:41:38.801505,-9.174081,1.689332,-1.617548,0.078190,-0.586430,-0.316428
2026-01-04T15:41:38.810505,-10.313065,1.818545,-1.172483,0.289550,-0.533896,-0.315206
2026-01-04T15:41:38.820505,-11.131410,2.550748,-1.938186,0.558330,-0.669508,-0.271224
2026-01-04T15:41:38.830505,-11.073982,3.115455,-2.172682,0.621860,-0.919962,-0.321315
2026-01-04T15:41:38.839505,-9.978070,2.947957,-1.612762,0.361632,-1.186300,-0.436157
2026-01-04T15:41:38.849505,-8.647660,2.732603,-0.315852,0.202807,-1.235169,-0.569326
2026-01-04T15:41:38.858505,-7.676174,3.005385,-1.043270,0.233350,-1.034805,-0.604756
2026-01-04T15:41:38.868505,-7.886743,3.139383,-1.024128,0.111177,-0.728151,-0.614530
2026-01-04T15:41:38.878505,-8.796015,2.646461,-0.172283,-0.010995,-0.531452,-0.645073
2026-01-04T15:41:38.887505,-9.480363,2.249253,-0.148355,0.039095,-0.543669,-0.609643
2026-01-04T15:41:38.897505,-9.815358,1.938186,-0.445065,0.070860,-0.635299,-0.582765
2026-01-04T15:41:38.906505,-10.040283,1.837687,-0.641276,0.217467,-0.676838,-0.560774
2026-01-04T15:41:38.916505,-9.944570,2.182254,-0.918843,0.383623,-0.806341,-0.563217
2026-01-04T15:41:38.926505,-9.647860,2.488535,-0.799202,0.353080,-0.948062,-0.603534
2026-01-04T15:41:38.935505,-9.298508,2.790031,-0.808774,0.298102,-0.970053,-0.691499
2026-01-04T15:41:38.945505,-9.092725,2.880958,-0.411565,0.133168,-0.955393,-0.752585
2026-01-04T15:41:38.955505,-8.906085,2.708675,-0.177068,-0.024434,-0.974940,-0.781907
2026-01-04T15:41:38.964505,-8.910871,2.196611,1.148554,-0.064751,-1.003040,-0.755029
2026-01-04T15:41:38.974505,-8.939585,1.560120,1.225125,-0.045204,-1.000597,-0.691499
2026-01-04T15:41:38.983505,-8.906085,0.961914,-0.234496,0.112399,-0.978605,-0.658512
2026-01-04T15:41:38.993505,-8.685946,0.837487,-0.205782,0.206472,-1.082452,-0.670729
2026-01-04T15:41:39.003505,-8.322237,1.387837,-0.646062,0.368962,-1.134987,-0.729372
2026-01-04T15:41:39.012505,-8.767302,2.397608,-1.923829,0.481361,-0.924849,-0.827111
2026-01-04T15:41:39.022505,-9.623932,2.627319,0.100498,0.116064,-0.811228,-1.023809
2026-01-04T15:41:39.031505,-9.781858,1.962114,0.401994,-0.232128,-0.976162,-1.148426
2026-01-04T15:41:39.041505,-9.413364,1.555334,-0.660419,-0.379958,-1.065348,-1.214399
2026-01-04T15:41:39.051505,-9.073583,0.856630,0.626919,-0.425162,-1.092226,-1.307251
2026-01-04T15:41:39.060505,-8.748159,0.334995,1.402194,-0.249232,-1.088561,-1.268155
2026-01-04T15:41:39.070505,-8.513662,0.076570,1.942971,-0.074525,-1.100778,-1.226617
2026-01-04T15:41:39.080505,-7.987241,0.334995,1.703689,0.167377,-1.165530,-1.204625
2026-01-04T15:41:39.089505,-7.379464,1.019342,1.957328,0.313984,-1.185078,-1.154535
2026-01-04T15:41:39.099505,-7.030112,1.718046,1.483550,0.237015,-1.111774,-1.123991
2026-01-04T15:41:39.108505,-7.178467,2.234896,1.268195,0.018325,-0.934623,-1.099557
2026-01-04T15:41:39.118505,-8.054240,1.942971,1.684547,-0.318871,-0.687834,-1.128878
2026-01-04T15:41:39.128505,-8.839086,0.401994,1.024128,-0.748920,-0.652403,-1.141096
2026-01-04T15:41:39.137505,-9.097511,-1.588834,0.387637,-0.847880,-0.822224,-1.175304
2026-01-04T15:41:39.147505,-8.858229,-2.689532,0.985842,-0.519235,-0.971275,-1.242499
2026-01-04T15:41:39.156505,-8.322237,-2.493321,1.842473,0.054977,-1.042135,-1.254716
2026-01-04T15:41:39.166505,-7.609175,-1.368694,1.081555,0.613308,-1.123991,-1.192408
2026-01-04T15:41:39.176505,-6.843472,0.287138,1.560120,0.885754,-1.083674,-1.099557
2026-01-04T15:41:39.185505,-6.159125,1.564905,2.225325,0.880867,-0.977384,-1.003040
2026-01-04T15:41:39.195505,-5.881557,2.378465,1.502692,0.668286,-0.756251,-0.851545
2026-01-04T15:41:39.205505,-6.120840,2.761317,0.909272,0.304210,-0.478918,-0.764803
2026-01-04T15:41:39.214505,-6.623332,2.770888,1.411765,-0.081855,-0.240680,-0.708603
2026-01-04T15:41:39.224505,-7.111468,2.244467,2.000399,-0.486248,-0.119729,-0.626747
2026-01-04T15:41:39.233505,-7.360322,1.210768,1.421336,-0.796568,-0.072082,-0.531452
2026-01-04T15:41:39.243505,-7.341179,0.205782,0.641276,-0.967610,-0.041538,-0.419053
2026-01-04T15:41:39.253505,-7.427321,-0.899701,0.732203,-1.006705,0.029321,-0.283441
2026-01-04T15:41:39.262505,-7.647461,-1.483550,1.205982,-0.797789,0.129503,-0.119729
2026-01-04T15:41:39.272505,-8.169096,-1.100698,1.143769,-0.356745,0.213802,0.040317
2026-01-04T15:41:39.281505,-8.513662,0.205782,1.038485,0.042760,0.215024,0.201585
2026-01-04T15:41:39.291505,-8.599804,1.430907,1.129412,0.178372,0.153938,0.326201
2026-01-04T15:41:39.301505,-8.336593,1.976471,1.268195,0.007330,0.129503,0.427605
2026-01-04T15:41:39.310505,-8.092526,1.689332,2.076970,-0.361632,0.206472,0.488692
2026-01-04T15:41:39.320505,-8.049455,0.770488,2.062613,-0.660956,0.350636,0.537561
2026-01-04T15:41:39.330505,-8.173882,-0.105284,1.100698,-0.753807,0.431270,0.596204
2026-01-04T15:41:39.339505,-7.977670,-0.727418,1.052841,-0.731816,0.412944,0.651182
2026-01-04T15:41:39.349505,-7.580461,-1.014556,1.665404,-0.642630,0.389731,0.711046
2026-01-04T15:41:39.358505,-7.436892,-0.990628,1.464407,-0.537561,0.480139,0.768468
2026-01-04T15:41:39.368505,-7.743173,-0.875773,1.368694,-0.469144,0.656069,0.805120
2026-01-04T15:41:39.378505,-8.666803,-0.741775,1.804188,-0.375071,0.813672,0.813672
2026-01-04T15:41:39.387505,-9.638289,-0.406779,1.952543,-0.259006,0.842993,0.825889
2026-01-04T15:41:39.397505,-10.131210,-0.167497,1.052841,-0.119729,0.708603,0.834441
2026-01-04T15:41:39.406505,-9.863214,0.244067,0.669990,0.015882,0.489913,0.829554
2026-01-04T15:41:39.416505,-9.154939,0.708275,0.947557,0.070860,0.339641,0.801455
2026-01-04T15:41:39.426505,-8.250452,1.057627,0.746560,-0.015882,0.321315,0.801455
2026-01-04T15:41:39.435505,-7.556533,1.115055,0.526420,-0.245567,0.438601,0.823446
2026-01-04T15:41:39.445505,-7.269395,0.684347,0.516849,-0.513126,0.668286,0.811228
2026-01-04T15:41:39.455505,-7.724031,0.191425,0.244067,-0.679282,0.927293,0.818559
2026-01-04T15:41:39.464505,-8.642875,-0.267996,0.531206,-0.669508,1.130100,0.830776
2026-01-04T15:41:39.474505,-9.432506,-0.425922,1.249053,-0.482583,1.176526,0.829554
2026-01-04T15:41:39.483505,-9.748359,-0.311066,1.593619,-0.201585,1.017701,0.856432
2026-01-04T15:41:39.493505,-9.236295,0.153140,1.359123,0.074525,0.757472,0.891863
2026-01-04T15:41:39.503505,-8.092526,0.909272,0.976271,0.215024,0.597426,0.884532
2026-01-04T15:41:39.512505,-7.068397,1.502692,0.909272,0.100181,0.634077,0.851545
2026-01-04T15:41:39.522505,-6.790830,1.808973,0.464207,-0.195476,0.862541,0.802676
2026-01-04T15:41:39.531505,-7.245466,1.765903,-0.196211,-0.494800,1.183856,0.758694
2026-01-04T15:41:39.541505,-8.398807,1.579262,-0.416351,-0.734259,1.462411,0.715933
2026-01-04T15:41:39.551505,-9.978070,1.081555,-0.741775,-0.874758,1.605353,0.701273
2026-01-04T15:41:39.560505,-11.365907,0.468993,-0.698704,-0.799011,1.540601,0.698829
2026-01-04T15:41:39.570505,-12.050254,0.095712,-0.693918,-0.526565,1.269377,0.670729
2026-01-04T15:41:39.580505,-11.528619,0.043070,-0.430708,-0.194255,0.841772,0.641408
2026-01-04T15:41:39.589505,-10.126425,0.248853,0.267996,0.072082,0.474031,0.593760
2026-01-04T15:41:39.599505,-8.484948,0.579063,0.363709,0.223576,0.329867,0.548556
2026-01-04T15:41:39.608505,-7.168896,1.182054,0.631705,0.265115,0.393397,0.488692
2026-01-04T15:41:39.618505,-6.431907,1.775474,0.717846,0.153938,0.579100,0.442266
2026-01-04T15:41:39.628505,-6.211767,2.182254,0.239282,-0.083077,0.842993,0.441044
2026-01-04T15:41:39.637505,-6.709474,2.478964,-0.981057,-0.348193,1.188743,0.458148
2026-01-04T15:41:39.647505,-8.039883,2.522035,-1.976471,-0.585208,1.528384,0.461814
2026-01-04T15:41:39.656505,-10.049854,2.191825,-1.794616,-0.784350,1.760513,0.470366
2026-01-04T15:41:39.666505,-12.083754,1.354337,-1.756331,-0.835663,1.777617,0.476474
2026-01-04T15:41:39.676505,-12.801600,0.473778,-1.804188,-0.662177,1.395215,0.476474
2026-01-04T15:41:39.685505,-11.830114,0.033499,-0.837487,-0.344527,0.719599,0.464257
2026-01-04T15:41:39.695505,-9.657432,0.196211,-0.062213,-0.010995,0.188146,0.476474
2026-01-04T15:41:39.705505,-7.757530,0.985842,0.095712,0.279776,0.106290,0.493579
2026-01-04T15:41:39.714505,-6.766902,1.909472,-0.282353,0.452040,0.389731,0.489913
2026-01-04T15:41:39.724505,-6.608976,2.871387,-0.358923,0.410501,0.733038,0.489913
2026-01-04T15:41:39.733505,-7.101897,3.364308,-0.626919,0.164933,0.993266,0.505796
2026-01-04T15:41:39.743505,-8.183453,3.397808,-1.928615,-0.186924,1.241277,0.543669
2026-01-04T15:41:39.753505,-9.762716,2.809173,-2.971885,-0.537561,1.439198,0.527787
2026-01-04T15:41:39.762505,-11.274980,1.966900,-2.699103,-0.707381,1.389107,0.442266
2026-01-04T15:41:39.772505,-11.782258,1.277767,-1.995614,-0.631634,1.018923,0.410501
2026-01-04T15:41:39.781505,-10.954341,0.803988,-1.555334,-0.428827,0.496022,0.442266
2026-01-04T15:41:39.791505,-9.341579,0.746560,-1.359123,-0.164933,0.123394,0.456927
2026-01-04T15:41:39.801505,-8.078169,1.229910,-1.033699,0.122173,0.101403,0.469144
2026-01-04T15:41:39.810505,-7.532605,2.019542,-1.009771,0.335975,0.326201,0.482583
2026-01-04T15:41:39.820505,-7.905885,2.885744,-1.363908,0.426383,0.608421,0.480139
2026-01-04T15:41:39.830505,-8.848657,3.421736,-1.971685,0.348193,0.840550,0.486248
2026-01-04T15:41:39.839505,-9.853643,3.316452,-2.531606,0.123394,0.906523,0.481361
2026-01-04T15:41:39.849505,-10.533205,2.919243,-2.842673,-0.092851,0.746477,0.441044
2026-01-04T15:41:39.858505,-10.403992,2.349751,-2.392822,-0.205250,0.438601,0.412944
2026-01-04T15:41:39.868505,-9.671788,1.966900,-1.971685,-0.223576,0.144164,0.409279
2026-01-04T15:41:39.878505,-8.657232,1.895115,-1.990828,-0.105068,0.006108,0.403170
2026-01-04T15:41:39.887505,-8.011170,2.388036,-1.971685,0.073303,0.081855,0.401949
2026-01-04T15:41:39.897505,-7.953742,2.766102,-1.828116,0.157603,0.287106,0.419053
2026-01-04T15:41:39.906505,-8.408378,2.900100,-2.368894,0.140498,0.492357,0.454483
2026-01-04T15:41:39.916505,-9.308079,2.909672,-2.670390,0.078190,0.610865,0.469144
2026-01-04T15:41:39.926505,-10.193424,2.742174,-2.478964,0.002443,0.612086,0.453261
2026-01-04T15:41:39.935505,-10.485348,2.478964,-2.723032,-0.034208,0.454483,0.448374
2026-01-04T15:41:39.945505,-10.226923,2.215753,-3.034099,-0.064751,0.207694,0.442266
2026-01-04T15:41:39.955505,-9.442077,2.091326,-2.995813,-0.069638,0.003665,0.394618
2026-01-04T15:41:39.964505,-8.705088,2.258824,-2.842673,0.024434,-0.024434,0.333532
2026-01-04T15:41:39.974505,-8.413164,2.612962,-2.483749,0.118507,0.095294,0.302989
2026-01-04T15:41:39.983505,-8.403592,2.857030,-2.459821,0.127059,0.221133,0.277332
2026-01-04T15:41:39.993505,-8.595018,3.010170,-2.622533,0.095294,0.312762,0.287106
2026-01-04T15:41:40.003505,-8.958727,3.158525,-2.589034,0.095294,0.383623,0.278554
2026-01-04T15:41:40.012505,-9.413364,3.503092,-3.536591,0.122173,0.431270,0.240680
2026-01-04T15:41:40.022505,-10.102497,3.550948,-3.962514,0.064751,0.476474,0.215024
2026-01-04T15:41:40.031505,-10.346564,3.029313,-3.330809,-0.113620,0.390953,0.189368
2026-01-04T15:41:40.041505,-10.193424,2.459821,-3.311666,-0.173485,0.178372,0.163711
2026-01-04T15:41:40.051505,-9.657432,2.325823,-2.981456,-0.075747,0.037873,0.150272
2026-01-04T15:41:40.060505,-9.145367,2.431107,-2.287538,0.069638,0.032986,0.105068
2026-01-04T15:41:40.070505,-8.863014,2.828316,-2.804388,0.234572,0.108733,0.113620
2026-01-04T15:41:40.080505,-8.853443,3.383451,-2.842673,0.321315,0.189368,0.112399
2026-01-04T15:41:40.089505,-9.030512,3.646661,-2.861815,0.290771,0.221133,0.083077
2026-01-04T15:41:40.099505,-9.576076,3.823730,-3.440878,0.213802,0.302989,0.083077
2026-01-04T15:41:40.108505,-10.332207,3.766302,-3.239881,0.072082,0.370184,0.042760
2026-01-04T15:41:40.118505,-10.590632,3.493520,-3.512663,-0.047647,0.254119,-0.013439
2026-01-04T15:41:40.128505,-10.413563,3.306880,-3.818944,-0.150272,0.064751,-0.004886
2026-01-04T15:41:40.137505,-10.021141,2.933600,-3.163311,-0.206472,-0.050090,-0.057421
2026-01-04T15:41:40.147505,-9.480363,2.732603,-3.043670,-0.174707,-0.096516,-0.107512
2026-01-04T15:41:40.156505,-9.188438,2.780459,-3.531806,-0.120951,-0.032986,-0.118507
2026-01-04T15:41:40.166505,-9.523433,2.766102,-3.101098,-0.030543,0.149051,-0.161268
2026-01-04T15:41:40.176505,-9.915856,3.029313,-3.034099,0.105068,0.204028,-0.166155
2026-01-04T15:41:40.185505,-10.064211,3.373879,-3.565305,0.129503,0.058643,-0.111177
2026-01-04T15:41:40.195505,-10.250852,3.306880,-3.814159,0.095294,-0.007330,-0.080634
2026-01-04T15:41:40.205505,-10.715059,3.345165,-4.297509,0.183259,0.067195,-0.083077
2026-01-04T15:41:40.214505,-11.102696,3.656232,-4.441078,0.174707,0.057421,-0.074525
2026-01-04T15:41:40.224505,-11.045269,3.507877,-3.622733,0.092851,-0.120951,-0.075747
2026-01-04T15:41:40.233505,-10.150353,3.029313,-3.201596,0.091629,-0.261450,-0.037873
2026-01-04T15:41:40.243505,-9.595218,2.919243,-3.933800,0.161268,-0.219911,0.007330
2026-01-04T15:41:40.253505,-9.695717,3.043670,-3.594019,0.301767,-0.029321,-0.043982
2026-01-04T15:41:40.262505,-10.399207,3.431307,-3.273381,0.437379,0.139277,-0.054977
2026-01-04T15:41:40.272505,-11.102696,3.996013,-4.340580,0.427605,0.139277,0.017104
2026-01-04T15:41:40.281505,-11.332407,4.206582,-4.441078,0.255341,0.003665,0.009773
2026-01-04T15:41:40.291505,-11.619546,4.713860,-5.642275,0.226020,-0.056199,-0.074525
2026-01-04T15:41:40.301505,-13.481162,5.761916,-10.360921,0.156381,0.423940,-0.036651
2026-01-04T15:41:40.310505,-17.079967,5.513063,-3.302095,-0.228463,1.049466,-0.289550
2026-01-04T15:41:40.320505,-16.965113,3.249453,-0.870987,-0.697607,0.376292,-0.133168
2026-01-04T15:41:40.330505,-12.122039,1.713260,-2.344966,-0.608421,-1.174082,0.135612
2026-01-04T15:41:40.339505,-6.666403,1.287338,-5.536991,-0.346971,-1.852143,0.199142
2026-01-04T15:41:40.349505,-3.560520,2.455035,-6.307480,0.035430,-1.447750,0.127059
2026-01-04T15:41:40.358505,-4.244867,3.938585,-0.416351,0.464257,-0.002443,-0.125838
2026-01-04T15:41:40.368505,-8.609375,4.249652,-1.349551,0.393397,1.599244,0.081855
2026-01-04T15:41:40.378505,-12.705888,3.766302,-4.910071,0.156381,1.467297,0.255341
2026-01-04T15:41:40.387505,-13.361521,3.445664,-2.512463,0.085521,-0.019547,0.202807
2026-01-04T15:41:40.397505,-11.724830,2.971885,-1.359123,0.113620,-0.823446,0.403170
2026-01-04T15:41:40.406505,-10.217352,3.168097,-3.474378,0.312762,-0.698829,0.455705
2026-01-04T15:41:40.416505,-9.198010,3.431307,-3.900300,0.240680,-0.564439,0.373849
2026-01-04T15:41:40.426505,-8.824729,3.292523,-3.785445,0.054977,-0.656069,0.406836
2026-01-04T15:41:40.435505,-8.776873,3.273381,-3.962514,0.089186,-0.529009,0.409279
2026-01-04T15:41:40.445505,-9.461220,2.986242,-2.660818,0.000000,-0.267558,0.428827
2026-01-04T15:41:40.455505,-9.590432,2.976671,-2.158325,0.103847,-0.475253,0.324980
2026-01-04T15:41:40.464505,-9.580861,3.613162,-4.881358,0.197920,-0.483805,0.478918
2026-01-04T15:41:40.474505,-10.571490,3.871586,-5.800201,0.039095,-0.210137,0.419053
2026-01-04T15:41:40.483505,-11.303693,3.416950,-2.402393,-0.023212,-0.285884,0.260228
2026-01-04T15:41:40.493505,-11.131410,3.282952,-0.617348,0.102625,-0.536339,0.345749
2026-01-04T15:41:40.503505,-10.394421,3.249453,-5.005784,0.289550,-0.533896,0.431270
2026-01-04T15:41:40.512505,-9.982855,3.488735,-4.661218,0.174707,-0.551000,0.376292
2026-01-04T15:41:40.522505,-9.437292,3.292523,-1.344766,0.133168,-0.626747,0.244346
2026-01-04T15:41:40.531505,-9.236295,3.780659,-3.172882,0.362853,-0.439822,0.372627
2026-01-04T15:41:40.541505,-10.250852,4.393222,-4.651647,0.233350,-0.123394,0.351858
2026-01-04T15:41:40.551505,-11.322836,3.732803,-2.632104,-0.015882,-0.009773,0.251676
2026-01-04T15:41:40.560505,-11.318050,3.278166,-2.033899,0.043982,-0.321315,0.344527
2026-01-04T15:41:40.570505,-10.150353,3.316452,-3.125026,0.105068,-0.676838,0.361632
2026-01-04T15:41:40.580505,-9.207581,3.369094,-3.656232,0.182037,-0.647517,0.317649
2026-01-04T15:41:40.589505,-9.226723,3.895515,-2.622533,0.256563,-0.415388,0.256563
2026-01-04T15:41:40.599505,-9.753144,3.972085,-2.330609,0.199142,-0.232128,0.244346
2026-01-04T15:41:40.608505,-10.145567,3.814159,-3.091526,0.202807,-0.251676,0.278554
2026-01-04T15:41:40.618505,-10.202995,3.967299,-3.086741,0.190589,-0.342084,0.256563
2026-01-04T15:41:40.628505,-10.059426,3.828516,-3.192025,0.141720,-0.393397,0.229685
2026-01-04T15:41:40.637505,-9.686145,3.728017,-2.804388,0.065973,-0.465479,0.185702
2026-01-04T15:41:40.647505,-9.269794,3.503092,-2.589034,0.014660,-0.443488,0.152716
2026-01-04T15:41:40.656505,-9.044869,3.469592,-2.847458,0.086742,-0.359188,0.092851
2026-01-04T15:41:40.666505,-9.049655,3.412165,-3.105883,-0.006108,-0.223576,0.078190
2026-01-04T15:41:40.676505,-9.212367,2.928814,-2.445464,-0.047647,-0.216246,0.014660
2026-01-04T15:41:40.685505,-9.274580,3.077169,-1.799402,0.123394,-0.265115,-0.019547
2026-01-04T15:41:40.695505,-9.399007,3.311666,-2.043470,0.179594,-0.246789,0.015882
2026-01-04T15:41:40.705505,-9.504291,3.527020,-2.833101,0.255341,-0.240680,-0.025656
2026-01-04T15:41:40.714505,-9.643075,4.010370,-2.737389,0.288328,-0.261450,-0.035430
2026-01-04T15:41:40.724505,-9.657432,4.067798,-2.522035,0.178372,-0.333532,-0.035430
2026-01-04T15:41:40.733505,-9.288937,3.680161,-2.301895,0.058643,-0.430049,-0.050090
2026-01-04T15:41:40.743505,-8.920442,3.440878,-2.244467,-0.046425,-0.455705,-0.059864
2026-01-04T15:41:40.753505,-8.896514,3.139383,-1.584048,-0.012217,-0.383623,-0.113620
2026-01-04T15:41:40.762505,-9.068797,3.101098,-2.024327,0.072082,-0.306654,-0.086742
2026-01-04T15:41:40.772505,-9.375078,3.153740,-2.215753,0.141720,-0.327423,-0.117286
2026-01-04T15:41:40.781505,-9.638289,3.306880,-2.076970,0.206472,-0.397062,-0.118507
2026-01-04T15:41:40.791505,-9.824929,3.785445,-1.473978,0.329867,-0.474031,-0.122173
2026-01-04T15:41:40.801505,-9.676574,4.077369,-2.115255,0.301767,-0.532674,-0.095294
2026-01-04T15:41:40.810505,-9.561719,3.924229,-2.976671,0.160046,-0.555887,-0.108733
2026-01-04T15:41:40.820505,-9.427721,3.579662,-2.076970,-0.073303,-0.608421,-0.189368
2026-01-04T15:41:40.830505,-9.131011,2.919243,-1.641476,-0.240680,-0.654847,-0.217467
2026-01-04T15:41:40.839505,-8.939585,2.435893,-1.459621,-0.179594,-0.604756,-0.243124
2026-01-04T15:41:40.849505,-9.020941,2.383251,-1.383051,-0.065973,-0.551000,-0.255341
2026-01-04T15:41:40.858505,-9.265009,2.239681,-1.751546,0.050090,-0.520457,-0.227241
2026-01-04T15:41:40.868505,-9.786644,2.478964,-1.339980,0.191811,-0.527787,-0.202807
2026-01-04T15:41:40.878505,-10.289137,3.038884,-0.952343,0.436157,-0.560774,-0.149051
2026-01-04T15:41:40.887505,-10.681560,3.680161,-1.330409,0.592539,-0.720820,-0.035430
2026-01-04T15:41:40.897505,-10.657631,4.043870,-1.134197,0.570548,-0.951727,0.025656
2026-01-04T15:41:40.906505,-10.135996,4.168296,-1.052841,0.533896,-1.145982,0.054977
2026-01-04T15:41:40.916505,-9.456434,4.311866,-1.938186,0.366519,-1.252273,0.078190
2026-01-04T15:41:40.926505,-9.245866,3.847658,-1.220339,0.144164,-1.226617,0.013439
2026-01-04T15:41:40.935505,-9.322436,3.359522,0.296710,0.032986,-1.196073,-0.029321
2026-01-04T15:41:40.945505,-9.250652,2.780459,-0.880558,-0.004886,-1.200960,0.013439
2026-01-04T15:41:40.955505,-9.499505,2.364108,-0.870987,0.065973,-1.187521,-0.006108
2026-01-04T15:41:40.964505,-9.724431,2.182254,-0.315852,0.212581,-1.222951,0.015882
2026-01-04T15:41:40.974505,-9.509077,2.158325,-0.923629,0.428827,-1.354898,0.061086
2026-01-04T15:41:40.983505,-9.064012,2.670390,-0.507278,0.629191,-1.466076,0.034208
2026-01-04T15:41:40.993505,-8.604590,3.431307,-0.722632,0.742811,-1.455080,-0.031764
2026-01-04T15:41:41.003505,-8.417949,3.809373,-1.909472,0.547335,-1.330464,-0.128281
2026-01-04T15:41:41.012505,-8.370093,3.383451,-1.229910,0.108733,-1.209512,-0.320093
2026-01-04T15:41:41.022505,-8.245666,3.062812,-0.703489,-0.054977,-1.115439,-0.438601
2026-01-04T15:41:41.031505,-8.461020,3.201596,0.062213,-0.052534,-0.972497,-0.460592
2026-01-04T15:41:41.041505,-8.930013,2.665604,0.540777,-0.094073,-0.835663,-0.469144
2026-01-04T15:41:41.051505,-9.389435,1.990828,0.397208,-0.034208,-0.845437,-0.436157
2026-01-04T15:41:41.060505,-9.040083,1.722832,0.062213,0.174707,-1.004262,-0.428827
2026-01-04T15:41:41.070505,-8.432306,1.785045,0.334995,0.348193,-1.097113,-0.409279
2026-01-04T15:41:41.080505,-7.939385,2.196611,-0.459421,0.557108,-1.015257,-0.436157
2026-01-04T15:41:41.089505,-8.006384,3.058027,-1.076770,0.610865,-0.846659,-0.543669
2026-01-04T15:41:41.099505,-8.719445,3.369094,0.373280,0.274889,-0.667064,-0.670729
2026-01-04T15:41:41.108505,-9.480363,3.282952,0.114855,0.078190,-0.560774,-0.722042
2026-01-04T15:41:41.118505,-9.906285,3.268595,-0.626919,-0.030543,-0.620638,-0.752585
2026-01-04T15:41:41.128505,-9.690931,2.397608,0.751346,-0.239459,-0.803898,-0.801455
2026-01-04T15:41:41.137505,-8.796015,1.325623,1.339980,-0.215024,-0.945619,-0.795346
2026-01-04T15:41:41.147505,-7.709674,0.856630,1.201196,-0.068416,-0.987158,-0.806341
2026-01-04T15:41:41.156505,-7.192824,1.201196,0.512064,0.158824,-0.825889,-0.824667
2026-01-04T15:41:41.166505,-7.901100,2.292324,0.244067,0.389731,-0.488692,-0.896749
2026-01-04T15:41:41.176505,-9.025726,2.622533,1.818545,0.163711,-0.328645,-0.928514
2026-01-04T15:41:41.185505,-9.767501,2.493321,0.780060,-0.031764,-0.438601,-0.911410
2026-01-04T15:41:41.195505,-10.064211,2.598605,-0.177068,0.012217,-0.481361,-0.966388
2026-01-04T15:41:41.205505,-10.030712,2.024327,1.316052,-0.259006,-0.591317,-1.012814
2026-01-04T15:41:41.214505,-9.279366,0.961914,1.215553,-0.321315,-0.816115,-1.003040
2026-01-04T15:41:41.224505,-8.403592,0.904486,1.019342,-0.025656,-0.831998,-1.016479
2026-01-04T15:41:41.233505,-7.738388,0.947557,1.856830,0.050090,-0.764803,-1.056796
2026-01-04T15:41:41.243505,-7.417750,1.076770,1.536192,0.094073,-0.668286,-1.042135
2026-01-04T15:41:41.253505,-7.599604,1.794616,1.507478,0.207694,-0.511904,-1.055574
2026-01-04T15:41:41.262505,-8.054240,2.282752,2.388036,0.084299,-0.394618,-1.059240
2026-01-04T15:41:41.272505,-8.791230,2.325823,0.918843,-0.059864,-0.272445,-1.038470
2026-01-04T15:41:41.281505,-10.083354,1.885544,-0.373280,-0.307876,-0.153938,-1.088561
2026-01-04T15:41:41.291505,-10.959127,0.478564,1.316052,-0.618195,-0.285884,-1.200960
2026-01-04T15:41:41.301505,-10.628917,-0.717846,1.095912,-0.471587,-0.625525,-1.242499
2026-01-04T15:41:41.310505,-9.513862,-0.928415,1.473978,-0.156381,-0.919962,-1.292590
2026-01-04T15:41:41.320505,-8.126025,-0.894915,2.565105,0.065973,-1.045801,-1.314581
2026-01-04T15:41:41.330505,-7.173682,-0.066999,2.316252,0.356745,-1.001818,-1.292590
2026-01-04T15:41:41.339505,-6.465406,1.416550,2.378465,0.478918,-0.891863,-1.276708
2026-01-04T15:41:41.349505,-6.250052,2.545963,2.478964,0.262671,-0.745255,-1.221730
2026-01-04T15:41:41.358505,-6.302694,2.761317,2.584248,-0.219911,-0.521678,-1.130100
2026-01-04T15:41:41.368505,-6.809973,2.325823,2.038684,-0.696386,-0.299323,-1.023809
2026-01-04T15:41:41.378505,-7.255038,1.258624,1.359123,-0.974940,-0.152716,-0.894306
2026-01-04T15:41:41.387505,-7.795816,-0.368494,0.689132,-1.186300,-0.081855,-0.692721
2026-01-04T15:41:41.397505,-8.360522,-1.660618,0.780060,-0.941954,0.001221,-0.569326
2026-01-04T15:41:41.406505,-8.977870,-1.435693,0.885344,-0.321315,0.019547,-0.448374
2026-01-04T15:41:41.416505,-9.159724,-0.411565,0.727418,0.096516,-0.085521,-0.289550
2026-01-04T15:41:41.426505,-8.614161,0.684347,0.952343,0.265115,-0.208915,-0.160046
2026-01-04T15:41:41.435505,-7.728816,1.799402,1.540977,0.259006,-0.240680,-0.046425
2026-01-04T15:41:41.445505,-7.082754,2.589034,1.646261,-0.030543,-0.147829,0.080634
2026-01-04T15:41:41.455505,-6.685546,2.488535,1.316052,-0.441044,0.059864,0.178372
2026-01-04T15:41:41.464505,-6.910471,1.952543,1.497906,-0.817337,0.331088,0.250454
2026-01-04T15:41:41.474505,-7.781459,1.019342,1.852044,-1.116661,0.561995,0.299323
2026-01-04T15:41:41.483505,-8.915657,-0.052642,2.282752,-1.268155,0.673173,0.353080
2026-01-04T15:41:41.493505,-9.858429,-1.062413,1.990828,-1.142317,0.632856,0.394618
2026-01-04T15:41:41.503505,-10.102497,-1.521835,1.268195,-0.772133,0.421496,0.445931
2026-01-04T15:41:41.512505,-9.547362,-1.229910,1.526620,-0.379958,0.142942,0.497244
2026-01-04T15:41:41.522505,-8.484948,-0.435493,1.957328,-0.138055,-0.030543,0.582765
2026-01-04T15:41:41.531505,-7.508677,0.387637,1.148554,-0.012217,-0.013439,0.679282
2026-01-04T15:41:41.541505,-7.073183,1.148554,0.181854,-0.030543,0.194255,0.740368
2026-01-04T15:41:41.551505,-7.298108,1.411765,0.655633,-0.282219,0.546113,0.759916
2026-01-04T15:41:41.560505,-8.379664,1.057627,0.918843,-0.602312,0.927293,0.783129
2026-01-04T15:41:41.570505,-9.920642,0.497707,1.225125,-0.706160,1.108109,0.794124
2026-01-04T15:41:41.580505,-10.762916,-0.306281,1.727617,-0.610865,0.928514,0.801455
2026-01-04T15:41:41.589505,-10.423135,-0.808774,1.713260,-0.360410,0.547335,0.856432
2026-01-04T15:41:41.599505,-9.265009,-0.598205,1.373480,0.018325,0.245567,0.877202
2026-01-04T15:41:41.608505,-7.934599,0.334995,1.201196,0.254119,0.129503,0.879645
2026-01-04T15:41:41.618505,-6.757331,1.263410,1.330409,0.194255,0.202807,0.880867
2026-01-04T15:41:41.628505,-6.202196,1.861615,1.091127,-0.103847,0.449596,0.880867
2026-01-04T15:41:41.637505,-6.494120,1.966900,0.674775,-0.537561,0.790459,0.869871
2026-01-04T15:41:41.647505,-7.585247,1.584048,0.550349,-0.961501,1.110552,0.861319
2026-01-04T15:41:41.656505,-9.040083,0.784845,0.631705,-1.182634,1.325577,0.867428
2026-01-04T15:41:41.666505,-10.327422,-0.100498,1.033699,-1.115439,1.331685,0.857654
2026-01-04T15:41:41.676505,-10.858628,-0.885344,1.182054,-0.805120,1.082452,0.860098
2026-01-04T15:41:41.685505,-10.403992,-1.177268,1.167697,-0.343306,0.713490,0.873537
2026-01-04T15:41:41.695505,-9.312865,-0.617348,1.028913,0.131946,0.450818,0.841772
2026-01-04T15:41:41.705505,-8.130811,0.497707,0.468993,0.482583,0.377514,0.774576
2026-01-04T15:41:41.714505,-7.336394,1.885544,0.100498,0.520457,0.488692,0.707381
2026-01-04T15:41:41.724505,-7.211967,2.847458,0.000000,0.218689,0.729372,0.652403
2026-01-04T15:41:41.733505,-7.566105,2.847458,-0.244067,-0.251676,0.985936,0.640186
2026-01-04T15:41:41.743505,-8.269594,2.407179,-0.177068,-0.667064,1.182634,0.657290
2026-01-04T15:41:41.753505,-9.183653,1.612762,-0.114855,-0.856432,1.279151,0.680503
2026-01-04T15:41:41.762505,-9.954142,0.760917,0.167497,-0.792902,1.246164,0.715933
2026-01-04T15:41:41.772505,-10.188638,0.062213,0.703489,-0.574213,1.089783,0.723264
2026-01-04T15:41:41.781505,-9.777073,-0.066999,0.574277,-0.226020,0.872315,0.712268
2026-01-04T15:41:41.791505,-8.949156,0.435493,0.057427,0.142942,0.719599,0.689055
2026-01-04T15:41:41.801505,-8.212167,1.359123,0.052642,0.335975,0.696386,0.618195
2026-01-04T15:41:41.810505,-7.762316,2.268395,-0.593420,0.329867,0.795346,0.551000
2026-01-04T15:41:41.820505,-7.714460,2.938386,-1.119840,0.123394,0.976162,0.525343
2026-01-04T15:41:41.830505,-8.197810,3.105883,-1.512263,-0.233350,1.183856,0.507018
2026-01-04T15:41:41.839505,-9.284151,2.828316,-1.880758,-0.486248,1.359785,0.504574
2026-01-04T15:41:41.849505,-10.485348,2.354537,-1.325623,-0.602312,1.409876,0.480139
2026-01-04T15:41:41.858505,-11.140982,1.445264,-0.617348,-0.625525,1.249830,0.461814
2026-01-04T15:41:41.868505,-10.959127,0.636490,-0.397208,-0.463035,0.941954,0.471587
2026-01-04T15:41:41.878505,-10.155139,0.416351,-0.387637,-0.149051,0.651182,0.455705
2026-01-04T15:41:41.887505,-8.805587,0.851844,-0.459421,0.161268,0.481361,0.421496
2026-01-04T15:41:41.897505,-7.771887,1.785045,-0.282353,0.346971,0.471587,0.412944
2026-01-04T15:41:41.906505,-7.355536,2.603390,-0.698704,0.384845,0.667064,0.425162
2026-01-04T15:41:41.916505,-7.747959,3.220739,-1.272981,0.266337,0.977384,0.427605
2026-01-04T15:41:41.926505,-8.843872,3.349951,-1.842473,0.054977,1.208291,0.410501
2026-01-04T15:41:41.935505,-9.992427,3.062812,-1.660618,-0.157603,1.215621,0.388510
2026-01-04T15:41:41.945505,-10.829915,2.656033,-1.497906,-0.289550,1.042135,0.375071
2026-01-04T15:41:41.955505,-10.906485,2.129612,-1.320838,-0.323758,0.797789,0.372627
2026-01-04T15:41:41.964505,-10.346564,1.684547,-1.287338,-0.301767,0.572991,0.389731
2026-01-04T15:41:41.974505,-9.413364,1.627119,-1.741974,-0.166155,0.421496,0.395840
2026-01-04T15:41:41.983505,-8.829515,1.923829,-1.966900,0.013439,0.422718,0.389731
2026-01-04T15:41:41.993505,-8.614161,2.234896,-1.670190,0.095294,0.526565,0.382401
2026-01-04T15:41:42.003505,-8.652446,2.244467,-1.646261,0.109955,0.605978,0.388510
2026-01-04T15:41:42.012505,-8.973084,2.383251,-1.469193,0.128281,0.648738,0.384845
2026-01-04T15:41:42.022505,-9.494720,2.502892,-1.153340,0.131946,0.663399,0.367740
2026-01-04T15:41:42.031505,-9.829715,2.723032,-1.708475,0.152716,0.630412,0.386066
2026-01-04T15:41:42.041505,-9.987641,3.000599,-2.033899,0.147829,0.538783,0.415388
2026-01-04T15:41:42.051505,-9.944570,3.235096,-2.306680,0.084299,0.417831,0.419053
2026-01-04T15:41:42.060505,-9.772287,3.263810,-2.967100,0.056199,0.350636,0.405614
2026-01-04T15:41:42.070505,-9.614361,3.134597,-2.670390,-0.051312,0.326201,0.404392
2026-01-04T15:41:42.080505,-9.399007,2.632104,-1.837687,-0.189368,0.252898,0.370184
2026-01-04T15:41:42.089505,-8.896514,2.321037,-1.713260,-0.167377,0.185702,0.353080
2026-01-04T15:41:42.099505,-8.508877,2.244467,-2.048256,-0.091629,0.208915,0.349414
2026-01-04T15:41:42.108505,-8.293523,2.407179,-2.086541,-0.035430,0.276111,0.305432
2026-01-04T15:41:42.118505,-8.609375,2.861815,-2.402393,0.054977,0.431270,0.273667
2026-01-04T15:41:42.128505,-9.571290,3.077169,-2.641676,0.073303,0.660956,0.282219
2026-01-04T15:41:42.137505,-10.437492,3.139383,-3.072384,0.003665,0.678060,0.282219
2026-01-04T15:41:42.147505,-10.667203,3.235096,-3.479164,0.020769,0.412944,0.266337
2026-01-04T15:41:42.156505,-10.269994,3.206382,-2.847458,0.003665,0.136833,0.257785
2026-01-04T15:41:42.166505,-9.523433,2.991028,-2.364108,-0.084299,0.004886,0.235793
2026-01-04T15:41:42.176505,-8.853443,2.976671,-2.641676,-0.056199,0.010995,0.183259
2026-01-04T15:41:42.185505,-8.547162,3.096312,-2.632104,-0.048869,0.120951,0.135612
2026-01-04T15:41:42.195505,-8.484948,2.904886,-2.268395,-0.135612,0.237015,0.111177
2026-01-04T15:41:42.205505,-8.796015,2.852244,-2.048256,-0.138055,0.339641,0.098960
2026-01-04T15:41:42.214505,-9.255437,2.924029,-2.325823,-0.047647,0.448374,0.097738
2026-01-04T15:41:42.224505,-9.868000,3.067598,-3.268595,-0.023212,0.518013,0.114842
2026-01-04T15:41:42.233505,-10.466206,3.259024,-4.197010,0.006108,0.455705,0.091629
2026-01-04T15:41:42.243505,-10.609775,3.416950,-3.326023,0.030543,0.249232,0.063529
2026-01-04T15:41:42.253505,-10.078568,3.273381,-2.182254,-0.047647,0.003665,0.087964
2026-01-04T15:41:42.262505,-9.269794,3.019742,-2.483749,0.007330,-0.095294,0.111177
2026-01-04T15:41:42.272505,-8.834301,3.373879,-2.713460,0.151494,-0.010995,0.096516
2026-01-04T15:41:42.281505,-8.700302,3.651447,-2.775674,0.083077,0.103847,0.084299
2026-01-04T15:41:42.291505,-8.973084,3.455235,-2.952743,-0.083077,0.189368,0.081855
2026-01-04T15:41:42.301505,-9.552147,3.024527,-2.507678,-0.186924,0.252898,0.070860
2026-01-04T15:41:42.310505,-9.949356,2.665604,-2.234896,-0.096516,0.245567,0.057421
2026-01-04T15:41:42.320505,-10.049854,2.938386,-3.225524,0.074525,0.145385,0.086742
2026-01-04T15:41:42.330505,-10.121639,3.464807,-4.163511,0.189368,0.059864,0.096516
2026-01-04T15:41:42.339505,-10.112068,3.751945,-3.273381,0.205250,-0.025656,0.091629
2026-01-04T15:41:42.349505,-9.877571,3.780659,-2.593819,0.120951,-0.152716,0.118507
2026-01-04T15:41:42.358505,-9.332008,3.742374,-2.857030,0.106290,-0.246789,0.150272
2026-01-04T15:41:42.368505,-9.025726,3.751945,-3.038884,0.070860,-0.200363,0.146607
2026-01-04T15:41:42.378505,-8.896514,3.670589,-2.909672,-0.043982,-0.111177,0.101403
2026-01-04T15:41:42.387505,-9.193224,3.340380,-2.746960,-0.122173,-0.020769,0.095294
2026-01-04T15:41:42.397505,-9.504291,3.182454,-2.785245,-0.114842,0.068416,0.098960
2026-01-04T15:41:42.406505,-9.781858,2.914457,-3.182454,-0.101403,0.039095,0.086742
2026-01-04T15:41:42.416505,-9.844072,2.780459,-3.388236,-0.090408,-0.058643,0.080634
2026-01-04T15:41:42.426505,-10.025926,2.742174,-3.148954,0.040317,-0.057421,0.050090
2026-01-04T15:41:42.435505,-9.973284,3.043670,-2.665604,0.205250,-0.122173,0.030543
2026-01-04T15:41:42.445505,-9.614361,3.474378,-2.790031,0.238237,-0.301767,0.045204
2026-01-04T15:41:42.455505,-9.198010,3.713660,-3.014956,0.173485,-0.359188,0.062308
2026-01-04T15:41:42.464505,-9.217152,3.895515,-2.790031,0.127059,-0.272445,0.024434
2026-01-04T15:41:42.474505,-9.384650,4.182653,-2.617747,0.135612,-0.194255,0.029321
2026-01-04T15:41:42.483505,-10.030712,4.259224,-2.794816,0.039095,-0.155159,0.086742
2026-01-04T15:41:42.493505,-10.313065,3.785445,-3.225524,-0.119729,-0.243124,0.138055
2026-01-04T15:41:42.503505,-9.949356,3.201596,-3.512663,-0.129503,-0.397062,0.156381
2026-01-04T15:41:42.512505,-9.647860,2.928814,-3.522234,-0.061086,-0.442266,0.163711
2026-01-04T15:41:42.522505,-9.394221,2.775674,-3.077169,0.036651,-0.394618,0.125838
2026-01-04T15:41:42.531505,-9.078368,2.947957,-3.072384,0.134390,-0.343306,0.089186
2026-01-04T15:41:42.541505,-9.001798,3.163311,-3.077169,0.161268,-0.290771,0.047647
2026-01-04T15:41:42.551505,-9.035298,3.249453,-2.967100,0.095294,-0.194255,-0.034208
2026-01-04T15:41:42.560505,-9.126225,3.330809,-3.014956,0.009773,-0.101403,-0.119729
2026-01-04T15:41:42.570505,-9.346365,3.244667,-3.101098,-0.124616,-0.034208,-0.195476
2026-01-04T15:41:42.580505,-9.446863,2.967100,-3.550948,-0.250454,0.006108,-0.280997
2026-01-04T15:41:42.589505,-9.480363,2.885744,-3.211167,-0.215024,0.047647,-0.334754
2026-01-04T15:41:42.599505,-9.623932,2.976671,-2.833101,-0.098960,0.078190,-0.331088
2026-01-04T15:41:42.608505,-9.772287,3.182454,-2.172682,0.085521,0.092851,-0.279776
2026-01-04T15:41:42.618505,-10.231709,3.771088,-2.569891,0.309097,0.108733,-0.189368
2026-01-04T15:41:42.628505,-11.499905,4.417150,-4.527220,0.481361,0.289550,-0.123394
2026-01-04T15:41:42.637505,-13.840085,5.359922,-4.924428,0.461814,0.616973,-0.081855
2026-01-04T15:41:42.647505,-15.491133,5.283352,-2.770888,0.384845,0.548556,-0.008552
2026-01-04T15:41:42.656505,-14.400006,5.053641,-1.919043,0.065973,-0.466700,0.229685
2026-01-04T15:41:42.666505,-11.222337,4.096512,-3.393022,-0.095294,-1.185078,0.365297
2026-01-04T15:41:42.676505,-8.953942,3.996013,-5.670989,0.075747,-1.034805,0.448374
2026-01-04T15:41:42.685505,-7.996813,3.871586,-2.488535,-0.095294,-0.783129,0.342084
2026-01-04T15:41:42.695505,-7.566105,2.545963,-1.000199,-0.163711,-0.648738,0.359188
2026-01-04T15:41:42.705505,-7.709674,2.043470,-2.665604,0.245567,-0.354301,0.543669
2026-01-04T15:41:42.714505,-8.389236,2.861815,-2.612962,0.458148,-0.241902,0.434935
2026-01-04T15:41:42.724505,-9.231509,3.278166,-1.957328,0.570548,-0.091629,0.334754
2026-01-04T15:41:42.733505,-10.475777,4.235296,-3.378665,0.596204,0.042760,0.415388
2026-01-04T15:41:42.743505,-10.916056,4.575076,-3.852444,0.256563,-0.127059,0.316428
2026-01-04T15:41:42.753505,-10.614561,4.292723,-1.933400,-0.013439,-0.415388,0.246789
2026-01-04T15:41:42.762505,-9.791430,3.933800,-2.493321,-0.106290,-0.430049,0.335975
2026-01-04T15:41:42.772505,-9.365507,3.416950,-4.039084,-0.240680,-0.343306,0.337197
2026-01-04T15:41:42.781505,-9.729216,2.794816,-2.703889,-0.160046,-0.178372,0.234572
2026-01-04T15:41:42.791505,-10.389635,2.656033,-2.857030,0.078190,0.023212,0.296880
2026-01-04T15:41:42.801505,-10.758130,3.321237,-3.364308,0.309097,-0.138055,0.262671
2026-01-04T15:41:42.810505,-10.772487,4.235296,-2.445464,0.443488,-0.233350,0.210137
2026-01-04T15:41:42.820505,-10.935199,4.785645,-3.369094,0.377514,-0.029321,0.255341
2026-01-04T15:41:42.830505,-10.849057,4.852644,-3.436093,0.228463,-0.153938,0.186924
2026-01-04T15:41:42.839505,-10.327422,4.613361,-2.364108,-0.020769,-0.344527,0.193033
2026-01-04T15:41:42.849505,-10.346564,4.015156,-2.660818,-0.097738,-0.075747,0.194255
2026-01-04T15:41:42.858505,-10.786844,3.862015,-3.493520,-0.004886,0.006108,0.185702
2026-01-04T15:41:42.868505,-11.035697,3.584448,-1.885544,-0.112399,-0.156381,0.202807
2026-01-04T15:41:42.878505,-10.777272,3.048455,-2.254038,0.008552,-0.219911,0.265115
2026-01-04T15:41:42.887505,-10.341779,3.594019,-3.445664,0.300545,-0.276111,0.290771
2026-01-04T15:41:42.897505,-9.944570,4.259224,-2.962314,0.311541,-0.337197,0.232128
2026-01-04T15:41:42.906505,-9.968498,4.450650,-2.799602,0.267558,-0.193033,0.188146
2026-01-04T15:41:42.916505,-10.389635,4.622933,-3.077169,0.152716,-0.056199,0.178372
2026-01-04T15:41:42.926505,-10.269994,4.182653,-1.890329,-0.028099,-0.202807,0.114842
2026-01-04T15:41:42.935505,-9.824929,4.139583,-1.292124,0.063529,-0.370184,0.119729
2026-01-04T15:41:42.945505,-9.686145,4.345365,-3.402593,0.098960,-0.206472,0.183259
2026-01-04T15:41:42.955505,-10.246066,4.110869,-3.273381,-0.006108,-0.135612,0.123394
2026-01-04T15:41:42.964505,-10.389635,3.574876,-1.153340,-0.032986,-0.239459,0.090408
2026-01-04T15:41:42.974505,-9.891928,3.306880,-2.129612,0.061086,-0.378736,0.112399
2026-01-04T15:41:42.983505,-9.571290,3.378665,-2.933600,0.123394,-0.349414,0.048869
2026-01-04T15:41:42.993505,-9.561719,3.637090,-2.148754,0.142942,-0.280997,0.007330
2026-01-04T15:41:43.003505,-9.753144,3.952942,-1.847259,0.188146,-0.324980,0.004886
2026-01-04T15:41:43.012505,-9.786644,4.307080,-2.756531,0.162490,-0.324980,0.043982
2026-01-04T15:41:43.022505,-10.059426,4.125226,-2.708675,0.023212,-0.350636,0.017104
2026-01-04T15:41:43.031505,-10.011569,3.747160,-1.560120,0.001221,-0.443488,-0.019547
2026-01-04T15:41:43.041505,-9.600004,3.670589,-1.919043,0.094073,-0.533896,0.003665
2026-01-04T15:41:43.051505,-9.250652,3.469592,-2.282752,0.065973,-0.576656,-0.052534
2026-01-04T15:41:43.060505,-9.016155,3.287738,-1.593619,0.080634,-0.561995,-0.131946
2026-01-04T15:41:43.070505,-9.016155,3.622733,-1.627119,0.175929,-0.532674,-0.167377
2026-01-04T15:41:43.080505,-9.011369,3.766302,-2.426322,0.094073,-0.471587,-0.178372
2026-01-04T15:41:43.089505,-9.303294,3.761517,-2.368894,0.046425,-0.432492,-0.217467
2026-01-04T15:41:43.099505,-9.729216,3.885943,-1.191625,0.070860,-0.444709,-0.212581
2026-01-04T15:41:43.108505,-9.810572,3.622733,-1.191625,0.014660,-0.525343,-0.182037
2026-01-04T15:41:43.118505,-9.753144,3.235096,-1.971685,0.032986,-0.557108,-0.175929
2026-01-04T15:41:43.128505,-9.638289,3.139383,-1.038485,0.138055,-0.656069,-0.227241
2026-01-04T15:41:43.137505,-9.059226,3.239881,-1.765903,0.196698,-0.810007,-0.234572
2026-01-04T15:41:43.147505,-8.398807,3.316452,-1.789831,0.157603,-0.813672,-0.327423
2026-01-04T15:41:43.156505,-8.283951,3.345165,-1.986042,0.084299,-0.674395,-0.444709
2026-01-04T15:41:43.166505,-8.561519,3.215953,-1.517049,-0.073303,-0.486248,-0.513126
2026-01-04T15:41:43.176505,-9.016155,2.761317,-1.191625,-0.183259,-0.395840,-0.549778
2026-01-04T15:41:43.185505,-9.403792,2.364108,-0.918843,-0.106290,-0.403170,-0.533896
2026-01-04T15:41:43.195505,-9.442077,2.220539,-0.497707,0.012217,-0.526565,-0.504574
2026-01-04T15:41:43.205505,-9.131011,2.215753,-0.885344,0.168598,-0.635299,-0.466700
2026-01-04T15:41:43.214505,-9.154939,2.727817,-0.736989,0.383623,-0.616973,-0.472809
2026-01-04T15:41:43.224505,-9.384650,3.479164,-0.306281,0.498465,-0.593760,-0.492357
2026-01-04T15:41:43.233505,-9.269794,3.866801,-1.646261,0.432492,-0.664621,-0.475253
2026-01-04T15:41:43.243505,-8.920442,3.885943,-1.713260,0.193033,-0.780685,-0.552222
2026-01-04T15:41:43.253505,-8.456235,3.445664,-1.100698,-0.112399,-0.800233,-0.631634
2026-01-04T15:41:43.262505,-8.480163,2.885744,-1.038485,-0.243124,-0.659734,-0.685390
2026-01-04T15:41:43.272505,-8.815158,2.416750,-0.258424,-0.280997,-0.542448,-0.717155
2026-01-04T15:41:43.281505,-9.035298,1.971685,0.483350,-0.243124,-0.610865,-0.717155
2026-01-04T15:41:43.291505,-8.973084,1.694118,0.607776,-0.065973,-0.689055,-0.681725
2026-01-04T15:41:43.301505,-8.939585,1.646261,-0.244067,0.087964,-0.676838,-0.629191
2026-01-04T15:41:43.310505,-9.040083,1.852044,-1.172483,0.208915,-0.687834,-0.614530
2026-01-04T15:41:43.320505,-9.389435,2.411965,-1.033699,0.351858,-0.722042,-0.636521
2026-01-04T15:41:43.330505,-9.523433,2.852244,-0.751346,0.346971,-0.753807,-0.652403
2026-01-04T15:41:43.339505,-9.379864,2.766102,-1.244267,0.217467,-0.877202,-0.684168
2026-01-04T15:41:43.349505,-8.834301,2.751745,-0.827916,0.063529,-0.967610,-0.774576
2026-01-04T15:41:43.358505,-8.571090,2.536391,0.760917,-0.083077,-0.915075,-0.864984
2026-01-04T15:41:43.368505,-8.585447,1.780260,0.430708,-0.206472,-0.796568,-0.885754
2026-01-04T15:41:43.378505,-8.973084,1.004985,0.588634,-0.291993,-0.730594,-0.902858
2026-01-04T15:41:43.387505,-9.379864,0.593420,1.938186,-0.160046,-0.802676,-0.913854
2026-01-04T15:41:43.397505,-9.188438,0.708275,0.813559,0.224798,-0.976162,-0.806341
2026-01-04T15:41:43.406505,-9.044869,1.263410,-0.105284,0.470366,-1.084896,-0.709825
2026-01-04T15:41:43.416505,-9.183653,1.646261,0.478564,0.657290,-1.055574,-0.682947
2026-01-04T15:41:43.426505,-9.303294,2.440679,0.282353,0.753807,-1.043357,-0.642630
2026-01-04T15:41:43.435505,-9.068797,2.986242,-0.445065,0.566882,-1.148426,-0.680503
2026-01-04T15:41:43.445505,-8.772087,2.986242,-0.177068,0.217467,-1.150869,-0.786794
2026-01-04T15:41:43.455505,-8.226524,2.134397,1.004985,-0.205250,-1.091005,-0.919962
2026-01-04T15:41:43.464505,-7.929814,1.603191,-0.703489,-0.395840,-1.036027,-1.055574
2026-01-04T15:41:43.474505,-8.059026,1.229910,-0.311066,-0.557108,-0.808785,-1.196073
2026-01-04T15:41:43.483505,-8.719445,0.421136,0.435493,-0.770911,-0.607199,-1.287703
2026-01-04T15:41:43.493505,-9.671788,-0.090927,-0.105284,-0.643851,-0.557108,-1.304807
2026-01-04T15:41:43.503505,-9.939785,-0.200997,2.268395,-0.414166,-0.755029,-1.302364
2026-01-04T15:41:43.512505,-8.906085,-0.574277,4.627718,-0.251676,-1.180191,-1.198517
2026-01-04T15:41:43.522505,-6.977470,-0.827916,3.235096,0.086742,-1.445306,-1.027475
2026-01-04T15:41:43.531505,-5.804987,-0.023928,0.947557,0.494800,-1.317025,-0.929736
2026-01-04T15:41:43.541505,-5.632704,1.373480,1.564905,0.645073,-0.984714,-0.907745
2026-01-04T15:41:43.551505,-6.360122,2.440679,1.622333,0.480139,-0.626747,-0.862541
2026-01-04T15:41:43.560505,-7.527819,2.593819,0.698704,0.074525,-0.410501,-0.824667
2026-01-04T15:41:43.570505,-8.437092,1.598405,0.937986,-0.434935,-0.393397,-0.816115
2026-01-04T15:41:43.580505,-8.819944,0.234496,0.789631,-0.662177,-0.465479,-0.803898
2026-01-04T15:41:43.589505,-8.599804,-0.655633,0.339780,-0.515570,-0.565661,-0.805120
2026-01-04T15:41:43.599505,-7.925028,-0.976271,0.602991,-0.306654,-0.707381,-0.751364
2026-01-04T15:41:43.608505,-7.168896,-0.784845,1.780260,-0.074525,-0.691499,-0.647517
2026-01-04T15:41:43.618505,-6.518048,0.047856,1.196411,0.234572,-0.561995,-0.535117
2026-01-04T15:41:43.628505,-6.336194,1.148554,0.818345,0.372627,-0.373849,-0.393397
2026-01-04T15:41:43.637505,-6.570690,1.962114,1.249053,0.237015,-0.130725,-0.274889
2026-01-04T15:41:43.647505,-7.183253,2.402393,1.569691,-0.014660,0.112399,-0.145385
2026-01-04T15:41:43.656505,-7.987241,2.407179,1.560120,-0.257785,0.228463,-0.035430
2026-01-04T15:41:43.666505,-8.350950,2.172682,1.459621,-0.461814,0.223576,0.067195
2026-01-04T15:41:43.676505,-8.465806,1.761117,1.239482,-0.637743,0.196698,0.180816
2026-01-04T15:41:43.685505,-8.417949,1.076770,1.167697,-0.811228,0.204028,0.287106
2026-01-04T15:41:43.695505,-8.532805,0.382851,1.091127,-0.926071,0.271224,0.377514
2026-01-04T15:41:43.705505,-8.738588,-0.406779,0.918843,-0.894306,0.375071,0.437379
2026-01-04T15:41:43.714505,-8.891728,-1.129412,0.937986,-0.764803,0.414166,0.477696
2026-01-04T15:41:43.724505,-8.958727,-1.387837,1.612762,-0.543669,0.367740,0.520457
2026-01-04T15:41:43.733505,-8.748159,-1.014556,1.641476,-0.271224,0.294436,0.555887
2026-01-04T15:41:43.743505,-8.657232,-0.277567,1.071984,-0.068416,0.295658,0.599869
2026-01-04T15:41:43.753505,-8.796015,0.244067,1.048056,0.030543,0.366519,0.594982
2026-01-04T15:41:43.762505,-9.102297,0.612562,1.464407,0.029321,0.447153,0.586430
2026-01-04T15:41:43.772505,-9.446863,0.827916,1.627119,-0.001221,0.478918,0.575434
2026-01-04T15:41:43.781505,-9.537790,0.760917,1.268195,0.018325,0.428827,0.547335
2026-01-04T15:41:43.791505,-9.035298,0.775274,1.167697,-0.018325,0.295658,0.536339
2026-01-04T15:41:43.801505,-8.111668,0.775274,1.512263,-0.146607,0.205250,0.540004
2026-01-04T15:41:43.810505,-7.326822,0.808774,1.311266,-0.278554,0.266337,0.553443
2026-01-04T15:41:43.820505,-6.881757,1.052841,0.756131,-0.445931,0.450818,0.586430
2026-01-04T15:41:43.830505,-7.006184,0.981057,0.363709,-0.706160,0.685390,0.658512
2026-01-04T15:41:43.839505,-7.805387,0.607776,0.780060,-0.897971,0.934623,0.733038
2026-01-04T15:41:43.849505,-8.997012,0.066999,1.402194,-0.845437,1.111774,0.781907
2026-01-04T15:41:43.858505,-10.174281,-0.320638,1.339980,-0.581543,1.100778,0.828333
2026-01-04T15:41:43.868505,-10.729416,-0.497707,1.268195,-0.210137,0.900415,0.858876
2026-01-04T15:41:43.878505,-10.298708,-0.129212,1.325623,0.182037,0.619417,0.841772
2026-01-04T15:41:43.887505,-9.241080,0.818345,0.914058,0.431270,0.383623,0.805120
2026-01-04T15:41:43.897505,-8.025527,1.737189,0.449850,0.417831,0.313984,0.761137
2026-01-04T15:41:43.906505,-7.106683,2.354537,0.090927,0.130725,0.417831,0.713490
2026-01-04T15:41:43.916505,-6.881757,2.349751,-0.066999,-0.333532,0.681725,0.674395
2026-01-04T15:41:43.926505,-7.633104,1.785045,0.071784,-0.753807,1.071457,0.634077
2026-01-04T15:41:43.935505,-9.174081,0.818345,0.224925,-0.933401,1.370781,0.592539
2026-01-04T15:41:43.945505,-10.614561,-0.028713,0.550349,-0.851545,1.393994,0.603534
2026-01-04T15:41:43.955505,-11.332407,-0.502492,0.727418,-0.520457,1.149648,0.634077
2026-01-04T15:41:43.964505,-10.786844,-0.306281,0.397208,-0.023212,0.750142,0.663399
2026-01-04T15:41:43.974505,-9.399007,0.655633,0.387637,0.351858,0.395840,0.700051
2026-01-04T15:41:43.983505,-7.824529,1.540977,0.430708,0.497244,0.312762,0.700051
2026-01-04T15:41:43.993505,-7.063612,2.455035,-0.129212,0.447153,0.508239,0.668286
2026-01-04T15:41:44.003505,-7.144968,3.062812,-0.459421,0.161268,0.842993,0.614530
2026-01-04T15:41:44.012505,-8.020741,3.048455,-0.914058,-0.298102,1.160643,0.566882
2026-01-04T15:41:44.022505,-9.322436,2.421536,-1.306481,-0.706160,1.381776,0.546113
2026-01-04T15:41:44.031505,-10.882557,1.569691,-0.861416,-0.901636,1.437976,0.515570
2026-01-04T15:41:44.041505,-11.696116,0.622133,-0.282353,-0.814894,1.244943,0.509461
2026-01-04T15:41:44.051505,-11.322836,0.129212,-0.215354,-0.464257,0.833220,0.552222
2026-01-04T15:41:44.060505,-9.920642,0.229710,-0.287138,-0.024434,0.443488,0.588873
2026-01-04T15:41:44.070505,-8.494520,0.823130,-0.215354,0.324980,0.327423,0.596204
2026-01-04T15:41:44.080505,-7.628318,1.746760,-0.483350,0.505796,0.463035,0.568104
2026-01-04T15:41:44.089505,-7.513462,2.550748,-0.545563,0.481361,0.682947,0.526565
2026-01-04T15:41:44.099505,-8.035098,3.153740,-0.411565,0.285884,0.913854,0.485026
2026-01-04T15:41:44.108505,-8.781658,3.378665,-1.024128,-0.017104,1.083674,0.472809
2026-01-04T15:41:44.118505,-9.580861,3.177668,-1.411765,-0.321315,1.089783,0.463035
2026-01-04T15:41:44.128505,-10.011569,2.684746,-1.406979,-0.532674,0.957836,0.466700
2026-01-04T15:41:44.137505,-10.269994,2.110469,-1.325623,-0.591317,0.839328,0.487470
2026-01-04T15:41:44.147505,-10.150353,1.507478,-1.239482,-0.503352,0.729372,0.496022
2026-01-04T15:41:44.156505,-9.901499,1.119840,-1.182054,-0.315206,0.614530,0.505796
2026-01-04T15:41:44.166505,-9.580861,1.014556,-1.220339,-0.019547,0.557108,0.481361
2026-01-04T15:41:44.176505,-9.207581,1.311266,-1.435693,0.290771,0.522900,0.438601
2026-01-04T15:41:44.185505,-8.896514,1.957328,-1.339980,0.455705,0.474031,0.404392
2026-01-04T15:41:44.195505,-8.676374,2.703889,-1.225125,0.458148,0.463035,0.376292
2026-01-04T15:41:44.205505,-8.403592,3.220739,-1.263410,0.324980,0.525343,0.362853
2026-01-04T15:41:44.214505,-8.384450,3.522234,-1.574477,0.080634,0.613308,0.371405
2026-01-04T15:41:44.224505,-8.685946,3.431307,-1.880758,-0.166155,0.701273,0.383623
2026-01-04T15:41:44.233505,-9.226723,3.038884,-1.808973,-0.357966,0.781907,0.395840
2026-01-04T15:41:44.243505,-9.887142,2.550748,-1.842473,-0.444709,0.816115,0.390953
2026-01-04T15:41:44.253505,-10.250852,1.928615,-2.215753,-0.389731,0.755029,0.387288
2026-01-04T15:41:44.262505,-10.293922,1.607976,-2.325823,-0.218689,0.569326,0.377514
2026-01-04T15:41:44.272505,-9.796215,1.540977,-1.966900,-0.006108,0.365297,0.362853
2026-01-04T15:41:44.281505,-9.059226,1.899901,-1.923829,0.217467,0.233350,0.349414
2026-01-04T15:41:44.291505,-8.413164,2.679961,-1.617548,0.361632,0.230907,0.324980
2026-01-04T15:41:44.301505,-8.231309,3.268595,-1.617548,0.323758,0.366519,0.326201
2026-01-04T15:41:44.310505,-8.327022,3.436093,-1.804188,0.164933,0.537561,0.344527
2026-01-04T15:41:44.320505,-8.767302,3.397808,-1.890329,0.014660,0.619417,0.329867
2026-01-04T15:41:44.330505,-9.308079,3.278166,-1.832902,-0.083077,0.658512,0.310319
2026-01-04T15:41:44.339505,-9.939785,3.101098,-2.622533,-0.149051,0.712268,0.316428
2026-01-04T15:41:44.349505,-10.523633,2.991028,-3.895515,-0.144164,0.665842,0.288328
2026-01-04T15:41:44.358505,-10.729416,2.986242,-3.617947,-0.096516,0.456927,0.232128
