Timestamp,Acceleration_X,Acceleration_Y,Acceleration_Z,Gyro_X,Gyro_Y,Gyro_Z
2026-03-04T19:05:47.439692,0.507278,-9.839286,1.990828,0.036651,-0.042760,0.017104
2026-03-04T19:05:47.449692,0.579063,-9.805787,2.033899,0.035430,-0.047647,0.014660
2026-03-04T19:05:47.458692,0.607776,-9.777073,2.091326,0.035430,-0.051312,0.014660
2026-03-04T19:05:47.468692,0.545563,-9.820143,2.110469,0.029321,-0.048869,0.017104
2026-03-04T19:05:47.477692,0.574277,-9.839286,2.120040,0.030543,-0.046425,0.017104
2026-03-04T19:05:47.487692,0.631705,-9.820143,2.076970,0.031764,-0.043982,0.015882
2026-03-04T19:05:47.497692,0.526420,-9.853643,2.072184,0.029321,-0.042760,0.014660
2026-03-04T19:05:47.506692,0.516849,-9.839286,2.024327,0.030543,-0.041538,0.015882
2026-03-04T19:05:47.516692,0.555134,-9.872786,2.076970,0.030543,-0.045204,0.015882
2026-03-04T19:05:47.526692,0.564706,-9.781858,2.115255,0.026878,-0.045204,0.013439
2026-03-04T19:05:47.535692,0.612562,-9.810572,2.139183,0.026878,-0.043982,0.015882
2026-03-04T19:05:47.545692,0.545563,-9.791430,2.153540,0.026878,-0.042760,0.015882
2026-03-04T19:05:47.554692,0.574277,-9.848857,2.072184,0.024434,-0.042760,0.014660
2026-03-04T19:05:47.564692,0.583848,-9.796215,2.076970,0.023212,-0.042760,0.017104
2026-03-04T19:05:47.574692,0.521635,-9.858429,2.105683,0.020769,-0.045204,0.018325
2026-03-04T19:05:47.583692,0.574277,-9.853643,2.076970,0.019547,-0.046425,0.018325
2026-03-04T19:05:47.593692,0.555134,-9.882357,2.105683,0.019547,-0.045204,0.017104
2026-03-04T19:05:47.602692,0.559920,-9.848857,2.086541,0.018325,-0.046425,0.018325
2026-03-04T19:05:47.612692,0.559920,-9.868000,2.076970,0.017104,-0.046425,0.017104
2026-03-04T19:05:47.622692,0.579063,-9.834500,2.100898,0.021991,-0.043982,0.015882
2026-03-04T19:05:47.631692,0.545563,-9.872786,2.100898,0.020769,-0.041538,0.015882
2026-03-04T19:05:47.641692,0.545563,-9.815358,2.076970,0.025656,-0.041538,0.015882
2026-03-04T19:05:47.651692,0.574277,-9.829715,2.072184,0.030543,-0.043982,0.017104
2026-03-04T19:05:47.660692,0.550349,-9.848857,2.043470,0.030543,-0.045204,0.014660
2026-03-04T19:05:47.670692,0.540777,-9.829715,2.062613,0.036651,-0.048869,0.017104
2026-03-04T19:05:47.679692,0.526420,-9.829715,2.153540,0.037873,-0.050090,0.018325
2026-03-04T19:05:47.689692,0.579063,-9.743573,2.048256,0.025656,-0.046425,0.019547
2026-03-04T19:05:47.699692,0.569491,-9.805787,2.148754,0.029321,-0.050090,0.015882
2026-03-04T19:05:47.708692,0.550349,-9.824929,2.115255,0.021991,-0.050090,0.018325
2026-03-04T19:05:47.718692,0.550349,-9.906285,2.153540,0.024434,-0.050090,0.017104
2026-03-04T19:05:47.727692,0.598205,-9.896714,2.148754,0.023212,-0.048869,0.017104
2026-03-04T19:05:47.737692,0.617348,-9.829715,2.062613,0.025656,-0.040317,0.015882
2026-03-04T19:05:47.747692,0.607776,-9.786644,2.105683,0.020769,-0.039095,0.017104
2026-03-04T19:05:47.756692,0.555134,-9.829715,2.100898,0.023212,-0.039095,0.015882
2026-03-04T19:05:47.766692,0.579063,-9.844072,2.033899,0.024434,-0.040317,0.014660
2026-03-04T19:05:47.776692,0.540777,-9.858429,2.043470,0.028099,-0.043982,0.017104
2026-03-04T19:05:47.785692,0.612562,-9.848857,2.110469,0.029321,-0.047647,0.018325
2026-03-04T19:05:47.795692,0.526420,-9.815358,2.120040,0.030543,-0.048869,0.015882
2026-03-04T19:05:47.804692,0.569491,-9.839286,2.110469,0.030543,-0.048869,0.015882
2026-03-04T19:05:47.814692,0.607776,-9.824929,2.110469,0.026878,-0.048869,0.015882
2026-03-04T19:05:47.824692,0.598205,-9.848857,2.158325,0.023212,-0.047647,0.017104
2026-03-04T19:05:47.833692,0.564706,-9.896714,2.110469,0.024434,-0.047647,0.015882
2026-03-04T19:05:47.843692,0.598205,-9.824929,2.139183,0.025656,-0.043982,0.018325
2026-03-04T19:05:47.852692,0.602991,-9.810572,2.110469,0.023212,-0.045204,0.019547
2026-03-04T19:05:47.862692,0.545563,-9.848857,2.143969,0.020769,-0.047647,0.017104
2026-03-04T19:05:47.872692,0.612562,-9.829715,2.167897,0.020769,-0.045204,0.010995
2026-03-04T19:05:47.881692,0.593420,-9.863214,2.120040,0.019547,-0.043982,0.014660
2026-03-04T19:05:47.891692,0.583848,-9.810572,2.072184,0.018325,-0.046425,0.019547
2026-03-04T19:05:47.901692,0.574277,-9.891928,2.124826,0.019547,-0.045204,0.018325
2026-03-04T19:05:47.910692,0.569491,-9.834500,2.086541,0.023212,-0.043982,0.017104
2026-03-04T19:05:47.920692,0.607776,-9.901499,2.048256,0.025656,-0.043982,0.014660
2026-03-04T19:05:47.929692,0.593420,-9.839286,2.067398,0.029321,-0.046425,0.014660
2026-03-04T19:05:47.939692,0.598205,-9.786644,2.105683,0.029321,-0.042760,0.015882
2026-03-04T19:05:47.949692,0.564706,-9.872786,2.158325,0.028099,-0.045204,0.015882
2026-03-04T19:05:47.958692,0.569491,-9.839286,2.091326,0.024434,-0.046425,0.015882
2026-03-04T19:05:47.968692,0.574277,-9.848857,2.096112,0.021991,-0.046425,0.017104
2026-03-04T19:05:47.977692,0.555134,-9.815358,2.172682,0.020769,-0.048869,0.017104
2026-03-04T19:05:47.987692,0.569491,-9.863214,2.148754,0.018325,-0.046425,0.015882
2026-03-04T19:05:47.997692,0.564706,-9.848857,2.134397,0.020769,-0.041538,0.014660
2026-03-04T19:05:48.006692,0.521635,-9.863214,2.081755,0.024434,-0.042760,0.013439
2026-03-04T19:05:48.016692,0.555134,-9.834500,2.072184,0.025656,-0.042760,0.012217
2026-03-04T19:05:48.026692,0.579063,-9.863214,2.067398,0.025656,-0.045204,0.014660
2026-03-04T19:05:48.035692,0.540777,-9.872786,2.115255,0.021991,-0.045204,0.015882
2026-03-04T19:05:48.045692,0.574277,-9.872786,2.163111,0.026878,-0.045204,0.013439
2026-03-04T19:05:48.054692,0.593420,-9.844072,2.072184,0.025656,-0.043982,0.013439
2026-03-04T19:05:48.064692,0.564706,-9.791430,2.091326,0.024434,-0.046425,0.017104
2026-03-04T19:05:48.074692,0.574277,-9.839286,2.053041,0.026878,-0.046425,0.015882
2026-03-04T19:05:48.083692,0.602991,-9.786644,2.062613,0.024434,-0.043982,0.015882
2026-03-04T19:05:48.093692,0.607776,-9.901499,2.091326,0.024434,-0.046425,0.015882
2026-03-04T19:05:48.102692,0.545563,-9.815358,2.043470,0.025656,-0.050090,0.017104
2026-03-04T19:05:48.112692,0.531206,-9.872786,2.129612,0.025656,-0.046425,0.017104
2026-03-04T19:05:48.122692,0.598205,-9.786644,2.153540,0.025656,-0.047647,0.017104
2026-03-04T19:05:48.131692,0.588634,-9.872786,2.072184,0.026878,-0.048869,0.015882
2026-03-04T19:05:48.141692,0.598205,-9.810572,2.096112,0.028099,-0.050090,0.015882
2026-03-04T19:05:48.151692,0.569491,-9.791430,2.053041,0.030543,-0.047647,0.015882
2026-03-04T19:05:48.160692,0.540777,-9.815358,2.091326,0.028099,-0.046425,0.015882
2026-03-04T19:05:48.170692,0.535992,-9.834500,2.086541,0.030543,-0.046425,0.017104
2026-03-04T19:05:48.179692,0.564706,-9.820143,2.100898,0.030543,-0.047647,0.015882
2026-03-04T19:05:48.189692,0.569491,-9.824929,2.100898,0.029321,-0.048869,0.015882
2026-03-04T19:05:48.199692,0.598205,-9.858429,2.143969,0.031764,-0.046425,0.014660
2026-03-04T19:05:48.208692,0.569491,-9.882357,2.129612,0.034208,-0.043982,0.015882
2026-03-04T19:05:48.218692,0.622133,-9.853643,2.124826,0.036651,-0.043982,0.017104
2026-03-04T19:05:48.227692,0.598205,-9.734002,2.177468,0.037873,-0.042760,0.014660
2026-03-04T19:05:48.237692,0.526420,-9.829715,2.163111,0.030543,-0.041538,0.013439
2026-03-04T19:05:48.247692,0.602991,-9.810572,2.129612,0.025656,-0.041538,0.015882
2026-03-04T19:05:48.256692,0.535992,-9.863214,2.163111,0.024434,-0.043982,0.014660
2026-03-04T19:05:48.266692,0.598205,-9.858429,2.210968,0.020769,-0.045204,0.018325
2026-03-04T19:05:48.276692,0.574277,-9.839286,2.210968,0.018325,-0.045204,0.018325
2026-03-04T19:05:48.285692,0.602991,-9.853643,2.182254,0.019547,-0.042760,0.014660
2026-03-04T19:05:48.295692,0.579063,-9.829715,2.139183,0.018325,-0.039095,0.015882
2026-03-04T19:05:48.304692,0.593420,-9.863214,2.038684,0.020769,-0.037873,0.019547
2026-03-04T19:05:48.314692,0.555134,-9.882357,2.096112,0.020769,-0.040317,0.017104
2026-03-04T19:05:48.324692,0.531206,-9.820143,2.076970,0.023212,-0.041538,0.015882
2026-03-04T19:05:48.333692,0.598205,-9.777073,2.024327,0.021991,-0.045204,0.018325
2026-03-04T19:05:48.343692,0.588634,-9.834500,2.115255,0.023212,-0.045204,0.017104
2026-03-04T19:05:48.352692,0.555134,-9.796215,2.115255,0.025656,-0.047647,0.017104
2026-03-04T19:05:48.362692,0.555134,-9.834500,2.158325,0.024434,-0.045204,0.015882
2026-03-04T19:05:48.372692,0.669990,-9.863214,2.072184,0.021991,-0.043982,0.014660
2026-03-04T19:05:48.381692,0.612562,-9.820143,2.153540,0.020769,-0.046425,0.015882
2026-03-04T19:05:48.391692,0.660419,-9.896714,2.129612,0.021991,-0.045204,0.015882
2026-03-04T19:05:48.401692,0.588634,-9.829715,2.105683,0.025656,-0.042760,0.015882
2026-03-04T19:05:48.410692,0.579063,-9.762716,2.177468,0.020769,-0.046425,0.015882
2026-03-04T19:05:48.420692,0.545563,-9.820143,2.158325,0.015882,-0.046425,0.017104
2026-03-04T19:05:48.429692,0.574277,-9.791430,2.067398,0.004886,-0.045204,0.019547
2026-03-04T19:05:48.439692,0.574277,-9.844072,2.172682,0.007330,-0.048869,0.021991
2026-03-04T19:05:48.449692,0.564706,-9.834500,2.129612,0.006108,-0.046425,0.019547
2026-03-04T19:05:48.458692,0.588634,-9.824929,2.153540,0.008552,-0.043982,0.019547
2026-03-04T19:05:48.468692,0.617348,-9.858429,2.134397,0.008552,-0.041538,0.018325
2026-03-04T19:05:48.477692,0.579063,-9.844072,2.076970,0.010995,-0.040317,0.018325
2026-03-04T19:05:48.487692,0.569491,-9.805787,2.072184,0.015882,-0.041538,0.015882
2026-03-04T19:05:48.497692,0.579063,-9.868000,2.091326,0.023212,-0.041538,0.012217
2026-03-04T19:05:48.506692,0.540777,-9.877571,2.029113,0.029321,-0.045204,0.017104
2026-03-04T19:05:48.516692,0.535992,-9.848857,2.096112,0.035430,-0.046425,0.013439
2026-03-04T19:05:48.526692,0.569491,-9.815358,2.048256,0.039095,-0.051312,0.014660
2026-03-04T19:05:48.535692,0.569491,-9.734002,2.081755,0.029321,-0.048869,0.014660
2026-03-04T19:05:48.545692,0.631705,-9.877571,2.187039,0.032986,-0.052534,0.010995
2026-03-04T19:05:48.554692,0.598205,-9.858429,2.158325,0.025656,-0.050090,0.015882
2026-03-04T19:05:48.564692,0.617348,-9.863214,2.158325,0.026878,-0.046425,0.015882
2026-03-04T19:05:48.574692,0.555134,-9.839286,2.105683,0.026878,-0.046425,0.017104
2026-03-04T19:05:48.583692,0.598205,-9.820143,2.143969,0.025656,-0.045204,0.014660
2026-03-04T19:05:48.593692,0.569491,-9.815358,2.158325,0.023212,-0.046425,0.014660
2026-03-04T19:05:48.602692,0.646062,-9.844072,2.120040,0.021991,-0.046425,0.015882
2026-03-04T19:05:48.612692,0.622133,-9.844072,2.177468,0.019547,-0.046425,0.017104
2026-03-04T19:05:48.622692,0.612562,-9.810572,2.153540,0.017104,-0.043982,0.017104
2026-03-04T19:05:48.631692,0.598205,-9.853643,2.129612,0.018325,-0.041538,0.014660
2026-03-04T19:05:48.641692,0.540777,-9.863214,2.124826,0.018325,-0.041538,0.017104
2026-03-04T19:05:48.651692,0.602991,-9.767501,2.115255,0.018325,-0.040317,0.017104
2026-03-04T19:05:48.660692,0.574277,-9.848857,2.120040,0.019547,-0.042760,0.017104
2026-03-04T19:05:48.670692,0.540777,-9.844072,2.076970,0.024434,-0.040317,0.017104
2026-03-04T19:05:48.679692,0.588634,-9.820143,2.134397,0.025656,-0.042760,0.018325
2026-03-04T19:05:48.689692,0.650847,-9.824929,2.100898,0.026878,-0.043982,0.018325
2026-03-04T19:05:48.699692,0.531206,-9.810572,2.172682,0.023212,-0.047647,0.015882
2026-03-04T19:05:48.708692,0.545563,-9.844072,2.115255,0.015882,-0.046425,0.018325
2026-03-04T19:05:48.718692,0.598205,-9.853643,2.158325,0.025656,-0.047647,0.018325
2026-03-04T19:05:48.727692,0.569491,-9.853643,2.124826,0.024434,-0.046425,0.018325
2026-03-04T19:05:48.737692,0.593420,-9.810572,2.096112,0.026878,-0.043982,0.018325
2026-03-04T19:05:48.747692,0.540777,-9.791430,2.134397,0.026878,-0.041538,0.018325
2026-03-04T19:05:48.756692,0.526420,-9.853643,2.115255,0.030543,-0.037873,0.015882
2026-03-04T19:05:48.766692,0.535992,-9.872786,2.053041,0.032986,-0.039095,0.017104
2026-03-04T19:05:48.776692,0.617348,-9.858429,2.048256,0.032986,-0.039095,0.015882
2026-03-04T19:05:48.785692,0.631705,-9.872786,2.091326,0.035430,-0.041538,0.018325
2026-03-04T19:05:48.795692,0.607776,-9.839286,2.110469,0.034208,-0.042760,0.017104
2026-03-04T19:05:48.804692,0.598205,-9.868000,2.206182,0.031764,-0.042760,0.015882
2026-03-04T19:05:48.814692,0.574277,-9.796215,2.215753,0.029321,-0.043982,0.019547
2026-03-04T19:05:48.824692,0.612562,-9.858429,2.148754,0.025656,-0.042760,0.017104
2026-03-04T19:05:48.833692,0.598205,-9.834500,2.182254,0.023212,-0.043982,0.018325
2026-03-04T19:05:48.843692,0.550349,-9.791430,2.100898,0.024434,-0.042760,0.019547
2026-03-04T19:05:48.852692,0.559920,-9.887142,2.124826,0.023212,-0.041538,0.018325
2026-03-04T19:05:48.862692,0.607776,-9.829715,2.124826,0.021991,-0.043982,0.018325
2026-03-04T19:05:48.872692,0.583848,-9.820143,2.120040,0.021991,-0.041538,0.018325
2026-03-04T19:05:48.881692,0.579063,-9.872786,2.091326,0.020769,-0.039095,0.015882
2026-03-04T19:05:48.891692,0.617348,-9.839286,2.096112,0.023212,-0.041538,0.017104
2026-03-04T19:05:48.901692,0.569491,-9.834500,2.081755,0.025656,-0.041538,0.018325
2026-03-04T19:05:48.910692,0.574277,-9.829715,2.158325,0.024434,-0.042760,0.018325
2026-03-04T19:05:48.920692,0.641276,-9.839286,2.120040,0.023212,-0.043982,0.017104
2026-03-04T19:05:48.929692,0.617348,-9.801001,2.148754,0.023212,-0.042760,0.015882
2026-03-04T19:05:48.939692,0.579063,-9.777073,2.220539,0.020769,-0.042760,0.015882
2026-03-04T19:05:48.949692,0.650847,-9.887142,2.139183,0.019547,-0.043982,0.014660
2026-03-04T19:05:48.958692,0.569491,-9.872786,2.187039,0.017104,-0.040317,0.019547
2026-03-04T19:05:48.968692,0.569491,-9.796215,2.220539,0.014660,-0.040317,0.019547
2026-03-04T19:05:48.977692,0.631705,-9.810572,2.139183,0.014660,-0.040317,0.017104
2026-03-04T19:05:48.987692,0.579063,-9.820143,2.143969,0.014660,-0.041538,0.019547
2026-03-04T19:05:48.997692,0.636490,-9.829715,2.091326,0.015882,-0.040317,0.017104
2026-03-04T19:05:49.006692,0.559920,-9.820143,2.110469,0.017104,-0.042760,0.017104
2026-03-04T19:05:49.016692,0.636490,-9.848857,2.120040,0.019547,-0.043982,0.018325
2026-03-04T19:05:49.026692,0.540777,-9.829715,2.081755,0.023212,-0.043982,0.017104
2026-03-04T19:05:49.035692,0.574277,-9.824929,2.100898,0.024434,-0.045204,0.015882
2026-03-04T19:05:49.045692,0.588634,-9.824929,2.120040,0.028099,-0.045204,0.018325
2026-03-04T19:05:49.054692,0.588634,-9.882357,2.163111,0.028099,-0.045204,0.017104
2026-03-04T19:05:49.064692,0.555134,-9.820143,2.210968,0.030543,-0.045204,0.010995
2026-03-04T19:05:49.074692,0.559920,-9.829715,2.115255,0.030543,-0.045204,0.014660
2026-03-04T19:05:49.083692,0.607776,-9.820143,2.153540,0.028099,-0.042760,0.017104
2026-03-04T19:05:49.093692,0.564706,-9.824929,2.187039,0.026878,-0.040317,0.018325
2026-03-04T19:05:49.102692,0.569491,-9.791430,2.182254,0.025656,-0.040317,0.017104
2026-03-04T19:05:49.112692,0.564706,-9.877571,2.120040,0.024434,-0.041538,0.018325
2026-03-04T19:05:49.122692,0.583848,-9.796215,2.158325,0.019547,-0.043982,0.018325
2026-03-04T19:05:49.131692,0.531206,-9.829715,2.177468,0.019547,-0.042760,0.015882
2026-03-04T19:05:49.141692,0.555134,-9.781858,2.124826,0.020769,-0.041538,0.015882
2026-03-04T19:05:49.151692,0.598205,-9.863214,2.153540,0.023212,-0.041538,0.015882
2026-03-04T19:05:49.160692,0.564706,-9.863214,2.124826,0.023212,-0.042760,0.017104
2026-03-04T19:05:49.170692,0.531206,-9.858429,2.124826,0.026878,-0.043982,0.014660
2026-03-04T19:05:49.179692,0.550349,-9.872786,2.110469,0.028099,-0.043982,0.015882
2026-03-04T19:05:49.189692,0.602991,-9.853643,2.139183,0.030543,-0.042760,0.014660
2026-03-04T19:05:49.199692,0.602991,-9.868000,2.096112,0.030543,-0.042760,0.015882
2026-03-04T19:05:49.208692,0.588634,-9.796215,2.139183,0.031764,-0.040317,0.015882
2026-03-04T19:05:49.218692,0.593420,-9.844072,2.143969,0.035430,-0.042760,0.018325
2026-03-04T19:05:49.227692,0.665204,-9.777073,2.163111,0.040317,-0.042760,0.014660
2026-03-04T19:05:49.237692,0.550349,-9.906285,2.120040,0.039095,-0.041538,0.015882
2026-03-04T19:05:49.247692,0.655633,-9.891928,2.105683,0.042760,-0.041538,0.015882
2026-03-04T19:05:49.256692,0.535992,-9.848857,2.191825,0.046425,-0.045204,0.012217
2026-03-04T19:05:49.266692,0.550349,-9.844072,2.163111,0.046425,-0.043982,0.013439
2026-03-04T19:05:49.276692,0.602991,-9.834500,2.215753,0.045204,-0.042760,0.015882
2026-03-04T19:05:49.285692,0.593420,-9.829715,2.249253,0.039095,-0.043982,0.013439
2026-03-04T19:05:49.295692,0.564706,-9.848857,2.182254,0.034208,-0.045204,0.015882
2026-03-04T19:05:49.304692,0.540777,-9.858429,2.182254,0.030543,-0.042760,0.015882
2026-03-04T19:05:49.314692,0.564706,-9.815358,2.230110,0.026878,-0.046425,0.017104
2026-03-04T19:05:49.324692,0.564706,-9.824929,2.143969,0.021991,-0.043982,0.018325
2026-03-04T19:05:49.333692,0.559920,-9.815358,2.191825,0.019547,-0.041538,0.017104
2026-03-04T19:05:49.343692,0.564706,-9.839286,2.143969,0.015882,-0.041538,0.015882
2026-03-04T19:05:49.352692,0.617348,-9.839286,2.177468,0.017104,-0.042760,0.017104
2026-03-04T19:05:49.362692,0.583848,-9.796215,2.110469,0.019547,-0.039095,0.012217
2026-03-04T19:05:49.372692,0.559920,-9.839286,2.148754,0.021991,-0.040317,0.014660
2026-03-04T19:05:49.381692,0.598205,-9.863214,2.167897,0.024434,-0.042760,0.017104
2026-03-04T19:05:49.391692,0.593420,-9.815358,2.143969,0.025656,-0.046425,0.018325
2026-03-04T19:05:49.401692,0.588634,-9.834500,2.120040,0.026878,-0.046425,0.017104
2026-03-04T19:05:49.410692,0.569491,-9.767501,2.167897,0.026878,-0.046425,0.015882
2026-03-04T19:05:49.420692,0.564706,-9.868000,2.182254,0.023212,-0.046425,0.015882
2026-03-04T19:05:49.429692,0.535992,-9.815358,2.196611,0.015882,-0.050090,0.017104
2026-03-04T19:05:49.439692,0.540777,-9.844072,2.187039,0.018325,-0.047647,0.015882
2026-03-04T19:05:49.449692,0.555134,-9.810572,2.163111,0.023212,-0.042760,0.015882
2026-03-04T19:05:49.458692,0.607776,-9.801001,2.187039,0.023212,-0.042760,0.015882
2026-03-04T19:05:49.468692,0.579063,-9.844072,2.201396,0.021991,-0.045204,0.018325
2026-03-04T19:05:49.477692,0.555134,-9.887142,2.210968,0.021991,-0.041538,0.017104
2026-03-04T19:05:49.487692,0.583848,-9.868000,2.120040,0.026878,-0.045204,0.015882
2026-03-04T19:05:49.497692,0.579063,-9.848857,2.143969,0.030543,-0.045204,0.017104
2026-03-04T19:05:49.506692,0.641276,-9.824929,2.206182,0.029321,-0.046425,0.015882
2026-03-04T19:05:49.516692,0.574277,-9.834500,2.110469,0.029321,-0.047647,0.018325
2026-03-04T19:05:49.526692,0.516849,-9.848857,2.143969,0.020769,-0.050090,0.019547
2026-03-04T19:05:49.535692,0.607776,-9.829715,2.230110,0.028099,-0.052534,0.021991
2026-03-04T19:05:49.545692,0.545563,-9.872786,2.191825,0.029321,-0.048869,0.018325
2026-03-04T19:05:49.554692,0.646062,-9.872786,2.254038,0.029321,-0.046425,0.019547
2026-03-04T19:05:49.564692,0.564706,-9.805787,2.254038,0.034208,-0.042760,0.018325
2026-03-04T19:05:49.574692,0.535992,-9.815358,2.277967,0.026878,-0.040317,0.017104
2026-03-04T19:05:49.583692,0.559920,-9.762716,2.230110,0.021991,-0.041538,0.019547
2026-03-04T19:05:49.593692,0.540777,-9.805787,2.153540,0.017104,-0.042760,0.015882
2026-03-04T19:05:49.602692,0.559920,-9.848857,2.167897,0.017104,-0.043982,0.017104
2026-03-04T19:05:49.612692,0.550349,-9.810572,2.143969,0.015882,-0.043982,0.019547
2026-03-04T19:05:49.622692,0.622133,-9.815358,2.187039,0.013439,-0.041538,0.020769
2026-03-04T19:05:49.631692,0.516849,-9.781858,2.158325,0.012217,-0.041538,0.020769
2026-03-04T19:05:49.641692,0.550349,-9.863214,2.139183,0.015882,-0.041538,0.019547
2026-03-04T19:05:49.651692,0.588634,-9.839286,2.191825,0.020769,-0.040317,0.017104
2026-03-04T19:05:49.660692,0.564706,-9.772287,2.134397,0.023212,-0.042760,0.015882
2026-03-04T19:05:49.670692,0.593420,-9.911071,2.191825,0.026878,-0.042760,0.014660
2026-03-04T19:05:49.679692,0.593420,-9.853643,2.134397,0.029321,-0.042760,0.014660
2026-03-04T19:05:49.689692,0.579063,-9.829715,2.143969,0.034208,-0.042760,0.014660
2026-03-04T19:05:49.699692,0.617348,-9.824929,2.158325,0.037873,-0.043982,0.013439
2026-03-04T19:05:49.708692,0.607776,-9.824929,2.153540,0.035430,-0.045204,0.012217
2026-03-04T19:05:49.718692,0.593420,-9.858429,2.210968,0.030543,-0.046425,0.012217
2026-03-04T19:05:49.727692,0.574277,-9.791430,2.225325,0.032986,-0.045204,0.013439
2026-03-04T19:05:49.737692,0.579063,-9.786644,2.124826,0.030543,-0.047647,0.014660
2026-03-04T19:05:49.747692,0.559920,-9.791430,2.230110,0.026878,-0.048869,0.014660
2026-03-04T19:05:49.756692,0.569491,-9.791430,2.210968,0.020769,-0.047647,0.015882
2026-03-04T19:05:49.766692,0.607776,-9.853643,2.182254,0.017104,-0.045204,0.017104
2026-03-04T19:05:49.776692,0.564706,-9.805787,2.254038,0.019547,-0.045204,0.017104
2026-03-04T19:05:49.785692,0.598205,-9.786644,2.191825,0.021991,-0.041538,0.015882
2026-03-04T19:05:49.795692,0.602991,-9.824929,2.210968,0.021991,-0.040317,0.015882
2026-03-04T19:05:49.804692,0.598205,-9.858429,2.191825,0.021991,-0.042760,0.017104
2026-03-04T19:05:49.814692,0.555134,-9.767501,2.230110,0.023212,-0.043982,0.015882
2026-03-04T19:05:49.824692,0.598205,-9.791430,2.225325,0.020769,-0.043982,0.015882
2026-03-04T19:05:49.833692,0.646062,-9.844072,2.182254,0.018325,-0.043982,0.017104
2026-03-04T19:05:49.843692,0.602991,-9.839286,2.210968,0.018325,-0.045204,0.017104
2026-03-04T19:05:49.852692,0.612562,-9.877571,2.201396,0.019547,-0.043982,0.015882
2026-03-04T19:05:49.862692,0.569491,-9.834500,2.230110,0.019547,-0.041538,0.019547
2026-03-04T19:05:49.872692,0.626919,-9.839286,2.191825,0.019547,-0.042760,0.017104
2026-03-04T19:05:49.881692,0.593420,-9.848857,2.244467,0.018325,-0.042760,0.015882
2026-03-04T19:05:49.891692,0.602991,-9.844072,2.182254,0.018325,-0.043982,0.017104
2026-03-04T19:05:49.901692,0.564706,-9.868000,2.124826,0.018325,-0.041538,0.017104
2026-03-04T19:05:49.910692,0.622133,-9.801001,2.182254,0.017104,-0.043982,0.017104
2026-03-04T19:05:49.920692,0.583848,-9.801001,2.153540,0.020769,-0.045204,0.020769
2026-03-04T19:05:49.929692,0.598205,-9.805787,2.182254,0.018325,-0.043982,0.015882
2026-03-04T19:05:49.939692,0.617348,-9.839286,2.201396,0.019547,-0.042760,0.015882
2026-03-04T19:05:49.949692,0.531206,-9.877571,2.234896,0.019547,-0.043982,0.017104
2026-03-04T19:05:49.958692,0.574277,-9.839286,2.158325,0.017104,-0.042760,0.017104
2026-03-04T19:05:49.968692,0.602991,-9.805787,2.163111,0.018325,-0.041538,0.017104
2026-03-04T19:05:49.977692,0.626919,-9.801001,2.139183,0.020769,-0.039095,0.014660
2026-03-04T19:05:49.987692,0.598205,-9.844072,2.139183,0.021991,-0.040317,0.015882
2026-03-04T19:05:49.997692,0.579063,-9.829715,2.201396,0.024434,-0.041538,0.015882
2026-03-04T19:05:50.006692,0.607776,-9.805787,2.196611,0.025656,-0.042760,0.014660
2026-03-04T19:05:50.016692,0.583848,-9.762716,2.148754,0.024434,-0.041538,0.014660
2026-03-04T19:05:50.026692,0.550349,-9.834500,2.167897,0.024434,-0.043982,0.015882
2026-03-04T19:05:50.035692,0.583848,-9.834500,2.249253,0.021991,-0.043982,0.014660
2026-03-04T19:05:50.045692,0.598205,-9.820143,2.177468,0.019547,-0.043982,0.017104
2026-03-04T19:05:50.054692,0.569491,-9.844072,2.172682,0.018325,-0.040317,0.017104
2026-03-04T19:05:50.064692,0.564706,-9.815358,2.187039,0.021991,-0.040317,0.014660
2026-03-04T19:05:50.074692,0.612562,-9.815358,2.153540,0.020769,-0.039095,0.015882
2026-03-04T19:05:50.083692,0.550349,-9.829715,2.177468,0.017104,-0.039095,0.017104
2026-03-04T19:05:50.093692,0.607776,-9.791430,2.177468,0.019547,-0.037873,0.018325
2026-03-04T19:05:50.102692,0.622133,-9.839286,2.187039,0.021991,-0.040317,0.015882
2026-03-04T19:05:50.112692,0.612562,-9.820143,2.201396,0.023212,-0.041538,0.017104
2026-03-04T19:05:50.122692,0.583848,-9.777073,2.187039,0.020769,-0.043982,0.015882
2026-03-04T19:05:50.131692,0.583848,-9.824929,2.182254,0.021991,-0.045204,0.015882
2026-03-04T19:05:50.141692,0.602991,-9.844072,2.177468,0.021991,-0.043982,0.014660
2026-03-04T19:05:50.151692,0.559920,-9.853643,2.177468,0.021991,-0.042760,0.013439
2026-03-04T19:05:50.160692,0.579063,-9.824929,2.201396,0.020769,-0.042760,0.014660
2026-03-04T19:05:50.170692,0.550349,-9.839286,2.187039,0.019547,-0.042760,0.015882
2026-03-04T19:05:50.179692,0.583848,-9.853643,2.129612,0.019547,-0.041538,0.015882
2026-03-04T19:05:50.189692,0.559920,-9.820143,2.163111,0.019547,-0.040317,0.017104
2026-03-04T19:05:50.199692,0.579063,-9.805787,2.120040,0.019547,-0.040317,0.017104
2026-03-04T19:05:50.208692,0.588634,-9.801001,2.153540,0.017104,-0.040317,0.017104
2026-03-04T19:05:50.218692,0.569491,-9.868000,2.220539,0.017104,-0.042760,0.015882
2026-03-04T19:05:50.227692,0.588634,-9.839286,2.187039,0.015882,-0.042760,0.017104
2026-03-04T19:05:50.237692,0.622133,-9.858429,2.177468,0.017104,-0.043982,0.018325
2026-03-04T19:05:50.247692,0.564706,-9.734002,2.134397,0.019547,-0.041538,0.014660
2026-03-04T19:05:50.256692,0.574277,-9.810572,2.148754,0.019547,-0.042760,0.015882
2026-03-04T19:05:50.266692,0.526420,-9.844072,2.115255,0.024434,-0.043982,0.017104
2026-03-04T19:05:50.276692,0.574277,-9.858429,2.134397,0.025656,-0.043982,0.017104
2026-03-04T19:05:50.285692,0.598205,-9.858429,2.158325,0.026878,-0.042760,0.017104
2026-03-04T19:05:50.295692,0.574277,-9.834500,2.182254,0.026878,-0.042760,0.017104
2026-03-04T19:05:50.304692,0.555134,-9.844072,2.201396,0.024434,-0.043982,0.015882
2026-03-04T19:05:50.314692,0.607776,-9.777073,2.254038,0.020769,-0.043982,0.014660
2026-03-04T19:05:50.324692,0.569491,-9.791430,2.225325,0.017104,-0.042760,0.014660
2026-03-04T19:05:50.333692,0.593420,-9.772287,2.210968,0.015882,-0.043982,0.017104
2026-03-04T19:05:50.343692,0.607776,-9.858429,2.172682,0.013439,-0.041538,0.017104
2026-03-04T19:05:50.352692,0.559920,-9.872786,2.143969,0.015882,-0.040317,0.018325
2026-03-04T19:05:50.362692,0.559920,-9.820143,2.153540,0.013439,-0.039095,0.017104
2026-03-04T19:05:50.372692,0.579063,-9.863214,2.134397,0.014660,-0.041538,0.015882
2026-03-04T19:05:50.381692,0.607776,-9.844072,2.110469,0.019547,-0.042760,0.017104
2026-03-04T19:05:50.391692,0.593420,-9.810572,2.134397,0.021991,-0.040317,0.018325
2026-03-04T19:05:50.401692,0.583848,-9.767501,2.172682,0.023212,-0.041538,0.017104
2026-03-04T19:05:50.410692,0.550349,-9.801001,2.153540,0.024434,-0.043982,0.015882
2026-03-04T19:05:50.420692,0.612562,-9.781858,2.172682,0.025656,-0.046425,0.017104
2026-03-04T19:05:50.429692,0.559920,-9.829715,2.210968,0.028099,-0.046425,0.017104
2026-03-04T19:05:50.439692,0.602991,-9.791430,2.230110,0.026878,-0.045204,0.020769
2026-03-04T19:05:50.449692,0.550349,-9.810572,2.177468,0.021991,-0.043982,0.021991
2026-03-04T19:05:50.458692,0.559920,-9.829715,2.172682,0.020769,-0.041538,0.017104
2026-03-04T19:05:50.468692,0.564706,-9.767501,2.239681,0.019547,-0.041538,0.015882
2026-03-04T19:05:50.477692,0.588634,-9.824929,2.206182,0.015882,-0.041538,0.017104
2026-03-04T19:05:50.487692,0.569491,-9.820143,2.196611,0.015882,-0.042760,0.018325
2026-03-04T19:05:50.497692,0.617348,-9.748359,2.244467,0.014660,-0.041538,0.015882
2026-03-04T19:05:50.506692,0.574277,-9.781858,2.167897,0.012217,-0.041538,0.015882
2026-03-04T19:05:50.516692,0.559920,-9.848857,2.153540,0.014660,-0.040317,0.017104
2026-03-04T19:05:50.526692,0.607776,-9.858429,2.096112,0.018325,-0.040317,0.015882
2026-03-04T19:05:50.535692,0.617348,-9.820143,2.134397,0.020769,-0.037873,0.017104
2026-03-04T19:05:50.545692,0.593420,-9.839286,2.076970,0.021991,-0.042760,0.017104
2026-03-04T19:05:50.554692,0.545563,-9.872786,2.167897,0.026878,-0.043982,0.014660
2026-03-04T19:05:50.564692,0.574277,-9.810572,2.182254,0.030543,-0.043982,0.017104
2026-03-04T19:05:50.574692,0.622133,-9.791430,2.244467,0.028099,-0.043982,0.018325
2026-03-04T19:05:50.583692,0.598205,-9.810572,2.172682,0.026878,-0.042760,0.015882
2026-03-04T19:05:50.593692,0.617348,-9.824929,2.239681,0.023212,-0.042760,0.018325
2026-03-04T19:05:50.602692,0.602991,-9.791430,2.239681,0.020769,-0.043982,0.018325
2026-03-04T19:05:50.612692,0.617348,-9.777073,2.225325,0.019547,-0.041538,0.018325
2026-03-04T19:05:50.622692,0.569491,-9.824929,2.143969,0.018325,-0.040317,0.018325
2026-03-04T19:05:50.631692,0.555134,-9.844072,2.234896,0.015882,-0.041538,0.019547
2026-03-04T19:05:50.641692,0.569491,-9.887142,2.163111,0.015882,-0.041538,0.017104
2026-03-04T19:05:50.651692,0.559920,-9.805787,2.143969,0.017104,-0.041538,0.019547
2026-03-04T19:05:50.660692,0.617348,-9.824929,2.210968,0.017104,-0.041538,0.018325
2026-03-04T19:05:50.670692,0.540777,-9.853643,2.177468,0.018325,-0.040317,0.015882
2026-03-04T19:05:50.679692,0.569491,-9.848857,2.187039,0.018325,-0.042760,0.018325
2026-03-04T19:05:50.689692,0.593420,-9.824929,2.220539,0.018325,-0.041538,0.015882
2026-03-04T19:05:50.699692,0.617348,-9.791430,2.129612,0.019547,-0.041538,0.015882
2026-03-04T19:05:50.708692,0.593420,-9.858429,2.196611,0.020769,-0.042760,0.018325
2026-03-04T19:05:50.718692,0.588634,-9.858429,2.182254,0.021991,-0.041538,0.017104
2026-03-04T19:05:50.727692,0.555134,-9.757930,2.158325,0.023212,-0.040317,0.015882
2026-03-04T19:05:50.737692,0.540777,-9.767501,2.206182,0.024434,-0.042760,0.014660
2026-03-04T19:05:50.747692,0.588634,-9.863214,2.191825,0.023212,-0.045204,0.014660
2026-03-04T19:05:50.756692,0.617348,-9.834500,2.206182,0.023212,-0.045204,0.015882
2026-03-04T19:05:50.766692,0.631705,-9.853643,2.187039,0.023212,-0.043982,0.018325
2026-03-04T19:05:50.776692,0.564706,-9.863214,2.215753,0.020769,-0.043982,0.018325
2026-03-04T19:05:50.785692,0.569491,-9.834500,2.239681,0.019547,-0.042760,0.018325
2026-03-04T19:05:50.795692,0.574277,-9.791430,2.239681,0.014660,-0.042760,0.018325
2026-03-04T19:05:50.804692,0.646062,-9.810572,2.163111,0.014660,-0.042760,0.017104
2026-03-04T19:05:50.814692,0.593420,-9.820143,2.177468,0.014660,-0.042760,0.018325
2026-03-04T19:05:50.824692,0.564706,-9.848857,2.187039,0.018325,-0.041538,0.017104
2026-03-04T19:05:50.833692,0.626919,-9.834500,2.210968,0.018325,-0.043982,0.020769
2026-03-04T19:05:50.843692,0.574277,-9.824929,2.134397,0.020769,-0.042760,0.018325
2026-03-04T19:05:50.852692,0.540777,-9.848857,2.249253,0.023212,-0.045204,0.015882
2026-03-04T19:05:50.862692,0.602991,-9.762716,2.201396,0.023212,-0.045204,0.014660
2026-03-04T19:05:50.872692,0.602991,-9.815358,2.206182,0.021991,-0.043982,0.018325
2026-03-04T19:05:50.881692,0.669990,-9.844072,2.201396,0.023212,-0.042760,0.017104
2026-03-04T19:05:50.891692,0.569491,-9.839286,2.172682,0.019547,-0.042760,0.020769
2026-03-04T19:05:50.901692,0.564706,-9.753144,2.187039,0.015882,-0.045204,0.020769
2026-03-04T19:05:50.910692,0.564706,-9.801001,2.234896,0.010995,-0.043982,0.018325
2026-03-04T19:05:50.920692,0.579063,-9.824929,2.187039,0.009773,-0.040317,0.019547
2026-03-04T19:05:50.929692,0.631705,-9.805787,2.230110,0.008552,-0.043982,0.021991
2026-03-04T19:05:50.939692,0.607776,-9.786644,2.187039,0.009773,-0.041538,0.020769
2026-03-04T19:05:50.949692,0.550349,-9.877571,2.129612,0.008552,-0.037873,0.017104
2026-03-04T19:05:50.958692,0.574277,-9.820143,2.143969,0.009773,-0.040317,0.018325
2026-03-04T19:05:50.968692,0.617348,-9.844072,2.081755,0.014660,-0.041538,0.017104
2026-03-04T19:05:50.977692,0.550349,-9.810572,2.091326,0.017104,-0.039095,0.014660
2026-03-04T19:05:50.987692,0.550349,-9.882357,2.096112,0.023212,-0.041538,0.014660
2026-03-04T19:05:50.997692,0.559920,-9.858429,2.158325,0.028099,-0.047647,0.015882
2026-03-04T19:05:51.006692,0.559920,-9.834500,2.120040,0.030543,-0.048869,0.018325
2026-03-04T19:05:51.016692,0.545563,-9.839286,2.177468,0.030543,-0.048869,0.017104
2026-03-04T19:05:51.026692,0.579063,-9.801001,2.277967,0.028099,-0.050090,0.014660
2026-03-04T19:05:51.035692,0.593420,-9.805787,2.201396,0.024434,-0.045204,0.017104
2026-03-04T19:05:51.045692,0.550349,-9.796215,2.215753,0.018325,-0.045204,0.015882
2026-03-04T19:05:51.054692,0.555134,-9.858429,2.187039,0.017104,-0.040317,0.017104
2026-03-04T19:05:51.064692,0.569491,-9.834500,2.177468,0.020769,-0.037873,0.014660
2026-03-04T19:05:51.074692,0.574277,-9.824929,2.210968,0.020769,-0.040317,0.014660
2026-03-04T19:05:51.083692,0.593420,-9.877571,2.124826,0.021991,-0.040317,0.015882
2026-03-04T19:05:51.093692,0.612562,-9.791430,2.153540,0.021991,-0.040317,0.014660
2026-03-04T19:05:51.102692,0.612562,-9.844072,2.201396,0.023212,-0.042760,0.019547
2026-03-04T19:05:51.112692,0.588634,-9.887142,2.196611,0.023212,-0.042760,0.017104
2026-03-04T19:05:51.122692,0.588634,-9.839286,2.187039,0.021991,-0.043982,0.017104
2026-03-04T19:05:51.131692,0.540777,-9.796215,2.182254,0.023212,-0.042760,0.015882
2026-03-04T19:05:51.141692,0.598205,-9.844072,2.177468,0.019547,-0.043982,0.015882
2026-03-04T19:05:51.151692,0.593420,-9.815358,2.254038,0.017104,-0.043982,0.015882
2026-03-04T19:05:51.160692,0.569491,-9.815358,2.220539,0.015882,-0.043982,0.017104
2026-03-04T19:05:51.170692,0.607776,-9.805787,2.201396,0.015882,-0.045204,0.017104
2026-03-04T19:05:51.179692,0.579063,-9.815358,2.230110,0.013439,-0.042760,0.018325
2026-03-04T19:05:51.189692,0.579063,-9.791430,2.158325,0.013439,-0.040317,0.017104
2026-03-04T19:05:51.199692,0.583848,-9.834500,2.191825,0.010995,-0.039095,0.017104
2026-03-04T19:05:51.208692,0.598205,-9.805787,2.148754,0.012217,-0.039095,0.017104
2026-03-04T19:05:51.218692,0.598205,-9.820143,2.148754,0.015882,-0.040317,0.015882
2026-03-04T19:05:51.227692,0.602991,-9.791430,2.158325,0.017104,-0.040317,0.015882
2026-03-04T19:05:51.237692,0.598205,-9.820143,2.158325,0.020769,-0.042760,0.017104
2026-03-04T19:05:51.247692,0.555134,-9.805787,2.100898,0.021991,-0.043982,0.014660
2026-03-04T19:05:51.256692,0.631705,-9.858429,2.167897,0.023212,-0.045204,0.015882
2026-03-04T19:05:51.266692,0.617348,-9.753144,2.148754,0.024434,-0.045204,0.014660
2026-03-04T19:05:51.276692,0.559920,-9.810572,2.210968,0.024434,-0.045204,0.017104
2026-03-04T19:05:51.285692,0.588634,-9.772287,2.206182,0.023212,-0.046425,0.017104
2026-03-04T19:05:51.295692,0.579063,-9.872786,2.187039,0.019547,-0.046425,0.017104
2026-03-04T19:05:51.304692,0.564706,-9.810572,2.191825,0.017104,-0.046425,0.015882
2026-03-04T19:05:51.314692,0.564706,-9.820143,2.182254,0.014660,-0.045204,0.015882
2026-03-04T19:05:51.324692,0.555134,-9.796215,2.177468,0.014660,-0.043982,0.015882
2026-03-04T19:05:51.333692,0.574277,-9.915856,2.158325,0.015882,-0.043982,0.017104
2026-03-04T19:05:51.343692,0.579063,-9.863214,2.196611,0.018325,-0.041538,0.015882
2026-03-04T19:05:51.352692,0.564706,-9.834500,2.110469,0.020769,-0.040317,0.017104
2026-03-04T19:05:51.362692,0.550349,-9.858429,2.163111,0.024434,-0.040317,0.017104
2026-03-04T19:05:51.372692,0.545563,-9.844072,2.129612,0.025656,-0.047647,0.019547
2026-03-04T19:05:51.381692,0.593420,-9.815358,2.167897,0.025656,-0.046425,0.015882
2026-03-04T19:05:51.391692,0.602991,-9.786644,2.215753,0.026878,-0.046425,0.017104
2026-03-04T19:05:51.401692,0.626919,-9.829715,2.225325,0.025656,-0.047647,0.015882
2026-03-04T19:05:51.410692,0.579063,-9.796215,2.230110,0.023212,-0.046425,0.015882
2026-03-04T19:05:51.420692,0.598205,-9.801001,2.201396,0.019547,-0.045204,0.015882
2026-03-04T19:05:51.429692,0.569491,-9.829715,2.143969,0.018325,-0.046425,0.015882
2026-03-04T19:05:51.439692,0.579063,-9.820143,2.115255,0.015882,-0.045204,0.017104
2026-03-04T19:05:51.449692,0.598205,-9.796215,2.124826,0.018325,-0.045204,0.019547
2026-03-04T19:05:51.458692,0.564706,-9.868000,2.196611,0.019547,-0.045204,0.017104
2026-03-04T19:05:51.468692,0.588634,-9.786644,2.196611,0.018325,-0.042760,0.017104
2026-03-04T19:05:51.477692,0.564706,-9.863214,2.210968,0.015882,-0.041538,0.018325
2026-03-04T19:05:51.487692,0.617348,-9.829715,2.230110,0.017104,-0.040317,0.014660
2026-03-04T19:05:51.497692,0.540777,-9.868000,2.158325,0.019547,-0.040317,0.014660
2026-03-04T19:05:51.506692,0.593420,-9.777073,2.187039,0.019547,-0.040317,0.014660
2026-03-04T19:05:51.516692,0.569491,-9.824929,2.115255,0.020769,-0.041538,0.018325
2026-03-04T19:05:51.526692,0.574277,-9.853643,2.139183,0.023212,-0.041538,0.017104
2026-03-04T19:05:51.535692,0.550349,-9.820143,2.129612,0.025656,-0.042760,0.015882
2026-03-04T19:05:51.545692,0.574277,-9.844072,2.100898,0.025656,-0.041538,0.015882
2026-03-04T19:05:51.554692,0.607776,-9.796215,2.158325,0.026878,-0.043982,0.014660
2026-03-04T19:05:51.564692,0.622133,-9.801001,2.182254,0.023212,-0.042760,0.017104
2026-03-04T19:05:51.574692,0.602991,-9.810572,2.215753,0.024434,-0.042760,0.015882
2026-03-04T19:05:51.583692,0.607776,-9.834500,2.182254,0.020769,-0.042760,0.018325
2026-03-04T19:05:51.593692,0.588634,-9.781858,2.201396,0.019547,-0.039095,0.015882
2026-03-04T19:05:51.602692,0.574277,-9.801001,2.148754,0.019547,-0.041538,0.012217
2026-03-04T19:05:51.612692,0.550349,-9.829715,2.172682,0.018325,-0.040317,0.014660
2026-03-04T19:05:51.622692,0.564706,-9.853643,2.187039,0.017104,-0.040317,0.015882
2026-03-04T19:05:51.631692,0.545563,-9.839286,2.177468,0.019547,-0.040317,0.015882
2026-03-04T19:05:51.641692,0.598205,-9.801001,2.148754,0.023212,-0.043982,0.013439
2026-03-04T19:05:51.651692,0.579063,-9.853643,2.163111,0.020769,-0.040317,0.015882
2026-03-04T19:05:51.660692,0.612562,-9.786644,2.167897,0.021991,-0.041538,0.017104
2026-03-04T19:05:51.670692,0.626919,-9.911071,2.167897,0.020769,-0.042760,0.018325
2026-03-04T19:05:51.679692,0.564706,-9.824929,2.187039,0.021991,-0.043982,0.018325
2026-03-04T19:05:51.689692,0.593420,-9.815358,2.191825,0.024434,-0.045204,0.017104
2026-03-04T19:05:51.699692,0.583848,-9.801001,2.220539,0.024434,-0.045204,0.017104
2026-03-04T19:05:51.708692,0.612562,-9.757930,2.206182,0.024434,-0.041538,0.017104
2026-03-04T19:05:51.718692,0.574277,-9.786644,2.167897,0.020769,-0.041538,0.015882
2026-03-04T19:05:51.727692,0.564706,-9.844072,2.215753,0.019547,-0.040317,0.015882
2026-03-04T19:05:51.737692,0.569491,-9.815358,2.177468,0.019547,-0.041538,0.017104
2026-03-04T19:05:51.747692,0.545563,-9.829715,2.187039,0.020769,-0.040317,0.018325
2026-03-04T19:05:51.756692,0.564706,-9.824929,2.177468,0.020769,-0.039095,0.014660
2026-03-04T19:05:51.766692,0.612562,-9.834500,2.177468,0.017104,-0.041538,0.017104
2026-03-04T19:05:51.776692,0.593420,-9.781858,2.163111,0.019547,-0.043982,0.018325
2026-03-04T19:05:51.785692,0.617348,-9.829715,2.215753,0.020769,-0.042760,0.018325
2026-03-04T19:05:51.795692,0.555134,-9.801001,2.215753,0.021991,-0.042760,0.017104
2026-03-04T19:05:51.804692,0.559920,-9.791430,2.225325,0.020769,-0.042760,0.015882
2026-03-04T19:05:51.814692,0.583848,-9.815358,2.148754,0.019547,-0.042760,0.017104
2026-03-04T19:05:51.824692,0.583848,-9.796215,2.143969,0.018325,-0.043982,0.014660
2026-03-04T19:05:51.833692,0.617348,-9.834500,2.201396,0.018325,-0.043982,0.015882
2026-03-04T19:05:51.843692,0.588634,-9.748359,2.172682,0.015882,-0.042760,0.017104
2026-03-04T19:05:51.852692,0.540777,-9.820143,2.167897,0.018325,-0.042760,0.017104
2026-03-04T19:05:51.862692,0.545563,-9.901499,2.220539,0.019547,-0.043982,0.015882
2026-03-04T19:05:51.872692,0.550349,-9.777073,2.182254,0.019547,-0.045204,0.017104
2026-03-04T19:05:51.881692,0.626919,-9.839286,2.163111,0.018325,-0.045204,0.017104
2026-03-04T19:05:51.891692,0.622133,-9.805787,2.139183,0.020769,-0.041538,0.015882
2026-03-04T19:05:51.901692,0.550349,-9.839286,2.143969,0.023212,-0.041538,0.014660
2026-03-04T19:05:51.910692,0.535992,-9.772287,2.153540,0.026878,-0.042760,0.014660
2026-03-04T19:05:51.920692,0.564706,-9.853643,2.120040,0.028099,-0.042760,0.015882
2026-03-04T19:05:51.929692,0.593420,-9.796215,2.187039,0.029321,-0.045204,0.014660
2026-03-04T19:05:51.939692,0.612562,-9.824929,2.210968,0.028099,-0.043982,0.014660
2026-03-04T19:05:51.949692,0.550349,-9.786644,2.230110,0.028099,-0.047647,0.017104
2026-03-04T19:05:51.958692,0.583848,-9.815358,2.201396,0.020769,-0.045204,0.017104
2026-03-04T19:05:51.968692,0.550349,-9.810572,2.254038,0.017104,-0.043982,0.019547
2026-03-04T19:05:51.977692,0.617348,-9.796215,2.191825,0.015882,-0.043982,0.015882
2026-03-04T19:05:51.987692,0.535992,-9.810572,2.225325,0.015882,-0.042760,0.015882
2026-03-04T19:05:51.997692,0.564706,-9.834500,2.158325,0.014660,-0.041538,0.017104
2026-03-04T19:05:52.006692,0.602991,-9.853643,2.196611,0.015882,-0.041538,0.017104
2026-03-04T19:05:52.016692,0.646062,-9.882357,2.177468,0.015882,-0.040317,0.017104
2026-03-04T19:05:52.026692,0.598205,-9.791430,2.124826,0.018325,-0.041538,0.017104
2026-03-04T19:05:52.035692,0.579063,-9.868000,2.091326,0.021991,-0.041538,0.018325
2026-03-04T19:05:52.045692,0.555134,-9.872786,2.153540,0.025656,-0.043982,0.018325
2026-03-04T19:05:52.054692,0.631705,-9.820143,2.230110,0.028099,-0.045204,0.015882
2026-03-04T19:05:52.064692,0.593420,-9.834500,2.215753,0.026878,-0.045204,0.018325
2026-03-04T19:05:52.074692,0.550349,-9.829715,2.153540,0.024434,-0.045204,0.017104
2026-03-04T19:05:52.083692,0.559920,-9.767501,2.196611,0.024434,-0.045204,0.017104
2026-03-04T19:05:52.093692,0.526420,-9.786644,2.225325,0.020769,-0.041538,0.018325
2026-03-04T19:05:52.102692,0.579063,-9.829715,2.206182,0.017104,-0.041538,0.017104
2026-03-04T19:05:52.112692,0.588634,-9.829715,2.134397,0.017104,-0.040317,0.019547
2026-03-04T19:05:52.122692,0.588634,-9.844072,2.210968,0.015882,-0.039095,0.018325
2026-03-04T19:05:52.131692,0.612562,-9.801001,2.191825,0.014660,-0.040317,0.017104
2026-03-04T19:05:52.141692,0.617348,-9.829715,2.220539,0.015882,-0.042760,0.018325
2026-03-04T19:05:52.151692,0.559920,-9.839286,2.191825,0.017104,-0.042760,0.015882
2026-03-04T19:05:52.160692,0.617348,-9.824929,2.134397,0.019547,-0.042760,0.013439
2026-03-04T19:05:52.170692,0.583848,-9.834500,2.129612,0.021991,-0.041538,0.013439
2026-03-04T19:05:52.179692,0.593420,-9.810572,2.105683,0.026878,-0.042760,0.010995
2026-03-04T19:05:52.189692,0.545563,-9.834500,2.120040,0.028099,-0.043982,0.014660
2026-03-04T19:05:52.199692,0.598205,-9.820143,2.153540,0.030543,-0.045204,0.017104
2026-03-04T19:05:52.208692,0.579063,-9.796215,2.163111,0.031764,-0.045204,0.015882
2026-03-04T19:05:52.218692,0.636490,-9.801001,2.254038,0.029321,-0.046425,0.017104
2026-03-04T19:05:52.227692,0.574277,-9.844072,2.191825,0.017104,-0.041538,0.015882
2026-03-04T19:05:52.237692,0.636490,-9.781858,2.254038,0.014660,-0.042760,0.018325
2026-03-04T19:05:52.247692,0.617348,-9.834500,2.254038,0.015882,-0.043982,0.015882
2026-03-04T19:05:52.256692,0.626919,-9.791430,2.163111,0.013439,-0.045204,0.017104
2026-03-04T19:05:52.266692,0.598205,-9.772287,2.268395,0.009773,-0.042760,0.017104
2026-03-04T19:05:52.276692,0.598205,-9.868000,2.172682,0.009773,-0.040317,0.015882
2026-03-04T19:05:52.285692,0.569491,-9.781858,2.124826,0.010995,-0.037873,0.015882
2026-03-04T19:05:52.295692,0.531206,-9.829715,2.134397,0.012217,-0.041538,0.017104
2026-03-04T19:05:52.304692,0.574277,-9.777073,2.124826,0.013439,-0.042760,0.015882
2026-03-04T19:05:52.314692,0.559920,-9.824929,2.177468,0.017104,-0.042760,0.019547
2026-03-04T19:05:52.324692,0.564706,-9.834500,2.148754,0.020769,-0.041538,0.018325
2026-03-04T19:05:52.333692,0.540777,-9.796215,2.163111,0.023212,-0.043982,0.017104
2026-03-04T19:05:52.343692,0.622133,-9.810572,2.187039,0.023212,-0.042760,0.017104
2026-03-04T19:05:52.352692,0.646062,-9.872786,2.172682,0.023212,-0.043982,0.017104
2026-03-04T19:05:52.362692,0.559920,-9.834500,2.210968,0.023212,-0.042760,0.017104
2026-03-04T19:05:52.372692,0.588634,-9.834500,2.182254,0.023212,-0.042760,0.017104
2026-03-04T19:05:52.381692,0.579063,-9.810572,2.201396,0.023212,-0.045204,0.015882
2026-03-04T19:05:52.391692,0.588634,-9.834500,2.196611,0.021991,-0.043982,0.017104
2026-03-04T19:05:52.401692,0.564706,-9.810572,2.239681,0.019547,-0.041538,0.017104
2026-03-04T19:05:52.410692,0.564706,-9.805787,2.196611,0.018325,-0.041538,0.017104
2026-03-04T19:05:52.420692,0.540777,-9.844072,2.153540,0.015882,-0.041538,0.019547
2026-03-04T19:05:52.429692,0.602991,-9.839286,2.153540,0.013439,-0.042760,0.015882
2026-03-04T19:05:52.439692,0.617348,-9.834500,2.182254,0.015882,-0.039095,0.015882
2026-03-04T19:05:52.449692,0.569491,-9.839286,2.158325,0.018325,-0.040317,0.015882
2026-03-04T19:05:52.458692,0.574277,-9.839286,2.115255,0.017104,-0.041538,0.015882
2026-03-04T19:05:52.468692,0.559920,-9.810572,2.143969,0.018325,-0.043982,0.017104
2026-03-04T19:05:52.477692,0.559920,-9.815358,2.158325,0.019547,-0.046425,0.018325
2026-03-04T19:05:52.487692,0.598205,-9.887142,2.239681,0.023212,-0.045204,0.017104
2026-03-04T19:05:52.497692,0.631705,-9.805787,2.177468,0.024434,-0.041538,0.017104
2026-03-04T19:05:52.506692,0.521635,-9.829715,2.215753,0.020769,-0.041538,0.017104
2026-03-04T19:05:52.516692,0.588634,-9.839286,2.201396,0.021991,-0.042760,0.017104
2026-03-04T19:05:52.526692,0.579063,-9.844072,2.220539,0.023212,-0.041538,0.015882
2026-03-04T19:05:52.535692,0.550349,-9.805787,2.129612,0.021991,-0.040317,0.017104
2026-03-04T19:05:52.545692,0.569491,-9.801001,2.244467,0.019547,-0.042760,0.017104
2026-03-04T19:05:52.554692,0.555134,-9.839286,2.191825,0.019547,-0.041538,0.015882
2026-03-04T19:05:52.564692,0.607776,-9.834500,2.153540,0.019547,-0.043982,0.014660
2026-03-04T19:05:52.574692,0.593420,-9.839286,2.182254,0.019547,-0.045204,0.018325
2026-03-04T19:05:52.583692,0.593420,-9.834500,2.234896,0.020769,-0.043982,0.020769
2026-03-04T19:05:52.593692,0.588634,-9.805787,2.230110,0.019547,-0.042760,0.017104
2026-03-04T19:05:52.602692,0.583848,-9.824929,2.182254,0.018325,-0.041538,0.017104
2026-03-04T19:05:52.612692,0.579063,-9.829715,2.177468,0.019547,-0.041538,0.017104
2026-03-04T19:05:52.622692,0.641276,-9.757930,2.172682,0.020769,-0.041538,0.017104
2026-03-04T19:05:52.631692,0.617348,-9.863214,2.191825,0.020769,-0.041538,0.017104
2026-03-04T19:05:52.641692,0.588634,-9.839286,2.215753,0.021991,-0.042760,0.018325
2026-03-04T19:05:52.651692,0.545563,-9.824929,2.201396,0.024434,-0.042760,0.019547
2026-03-04T19:05:52.660692,0.626919,-9.829715,2.182254,0.021991,-0.042760,0.018325
2026-03-04T19:05:52.670692,0.602991,-9.801001,2.210968,0.020769,-0.042760,0.017104
2026-03-04T19:05:52.679692,0.550349,-9.844072,2.210968,0.020769,-0.043982,0.015882
2026-03-04T19:05:52.689692,0.564706,-9.834500,2.220539,0.018325,-0.041538,0.017104
2026-03-04T19:05:52.699692,0.521635,-9.858429,2.215753,0.017104,-0.041538,0.015882
2026-03-04T19:05:52.708692,0.583848,-9.829715,2.158325,0.018325,-0.041538,0.015882
2026-03-04T19:05:52.718692,0.583848,-9.820143,2.177468,0.017104,-0.042760,0.017104
2026-03-04T19:05:52.727692,0.583848,-9.858429,2.191825,0.017104,-0.041538,0.018325
2026-03-04T19:05:52.737692,0.579063,-9.829715,2.148754,0.017104,-0.043982,0.017104
2026-03-04T19:05:52.747692,0.579063,-9.839286,2.249253,0.018325,-0.043982,0.018325
2026-03-04T19:05:52.756692,0.579063,-9.844072,2.215753,0.018325,-0.041538,0.015882
2026-03-04T19:05:52.766692,0.588634,-9.815358,2.115255,0.020769,-0.042760,0.015882
2026-03-04T19:05:52.776692,0.579063,-9.853643,2.148754,0.020769,-0.046425,0.015882
2026-03-04T19:05:52.785692,0.564706,-9.824929,2.148754,0.023212,-0.045204,0.014660
2026-03-04T19:05:52.795692,0.602991,-9.829715,2.167897,0.023212,-0.046425,0.015882
2026-03-04T19:05:52.804692,0.574277,-9.796215,2.249253,0.024434,-0.045204,0.015882
2026-03-04T19:05:52.814692,0.521635,-9.772287,2.244467,0.020769,-0.043982,0.017104
2026-03-04T19:05:52.824692,0.564706,-9.734002,2.244467,0.018325,-0.040317,0.020769
2026-03-04T19:05:52.833692,0.588634,-9.868000,2.143969,0.015882,-0.042760,0.018325
2026-03-04T19:05:52.843692,0.564706,-9.839286,2.148754,0.010995,-0.040317,0.015882
2026-03-04T19:05:52.852692,0.607776,-9.791430,2.139183,0.010995,-0.040317,0.019547
2026-03-04T19:05:52.862692,0.564706,-9.810572,2.139183,0.009773,-0.041538,0.018325
2026-03-04T19:05:52.872692,0.598205,-9.786644,2.158325,0.010995,-0.043982,0.018325
2026-03-04T19:05:52.881692,0.588634,-9.815358,2.230110,0.012217,-0.041538,0.020769
2026-03-04T19:05:52.891692,0.569491,-9.839286,2.187039,0.013439,-0.043982,0.017104
2026-03-04T19:05:52.901692,0.535992,-9.848857,2.196611,0.013439,-0.040317,0.018325
2026-03-04T19:05:52.910692,0.602991,-9.786644,2.139183,0.015882,-0.040317,0.019547
2026-03-04T19:05:52.920692,0.646062,-9.820143,2.210968,0.021991,-0.040317,0.018325
2026-03-04T19:05:52.929692,0.569491,-9.810572,2.124826,0.023212,-0.042760,0.017104
2026-03-04T19:05:52.939692,0.593420,-9.810572,2.191825,0.024434,-0.043982,0.017104
2026-03-04T19:05:52.949692,0.598205,-9.767501,2.177468,0.024434,-0.043982,0.015882
2026-03-04T19:05:52.958692,0.559920,-9.810572,2.177468,0.024434,-0.041538,0.015882
2026-03-04T19:05:52.968692,0.521635,-9.848857,2.172682,0.024434,-0.043982,0.017104
2026-03-04T19:05:52.977692,0.588634,-9.863214,2.191825,0.025656,-0.045204,0.017104
2026-03-04T19:05:52.987692,0.569491,-9.834500,2.177468,0.020769,-0.043982,0.018325
2026-03-04T19:05:52.997692,0.598205,-9.844072,2.201396,0.018325,-0.043982,0.018325
2026-03-04T19:05:53.006692,0.598205,-9.820143,2.230110,0.015882,-0.043982,0.019547
2026-03-04T19:05:53.016692,0.574277,-9.824929,2.177468,0.014660,-0.042760,0.017104
2026-03-04T19:05:53.026692,0.617348,-9.781858,2.196611,0.013439,-0.040317,0.017104
2026-03-04T19:05:53.035692,0.579063,-9.839286,2.091326,0.012217,-0.037873,0.017104
2026-03-04T19:05:53.045692,0.588634,-9.786644,2.096112,0.019547,-0.040317,0.017104
2026-03-04T19:05:53.054692,0.602991,-9.820143,2.062613,0.025656,-0.042760,0.017104
2026-03-04T19:05:53.064692,0.588634,-9.805787,2.177468,0.026878,-0.043982,0.019547
2026-03-04T19:05:53.074692,0.559920,-9.853643,2.196611,0.028099,-0.045204,0.017104
2026-03-04T19:05:53.083692,0.574277,-9.834500,2.201396,0.029321,-0.046425,0.018325
2026-03-04T19:05:53.093692,0.550349,-9.796215,2.244467,0.029321,-0.045204,0.018325
2026-03-04T19:05:53.102692,0.626919,-9.772287,2.239681,0.026878,-0.043982,0.014660
2026-03-04T19:05:53.112692,0.626919,-9.829715,2.254038,0.020769,-0.043982,0.017104
2026-03-04T19:05:53.122692,0.555134,-9.743573,2.187039,0.015882,-0.043982,0.018325
2026-03-04T19:05:53.131692,0.535992,-9.844072,2.234896,0.013439,-0.042760,0.018325
2026-03-04T19:05:53.141692,0.593420,-9.796215,2.177468,0.013439,-0.042760,0.015882
2026-03-04T19:05:53.151692,0.564706,-9.777073,2.167897,0.012217,-0.041538,0.015882
2026-03-04T19:05:53.160692,0.545563,-9.829715,2.177468,0.014660,-0.037873,0.018325
2026-03-04T19:05:53.170692,0.579063,-9.839286,2.148754,0.014660,-0.040317,0.018325
2026-03-04T19:05:53.179692,0.593420,-9.791430,2.110469,0.017104,-0.041538,0.017104
2026-03-04T19:05:53.189692,0.545563,-9.777073,2.129612,0.017104,-0.041538,0.018325
2026-03-04T19:05:53.199692,0.583848,-9.805787,2.172682,0.018325,-0.043982,0.018325
2026-03-04T19:05:53.208692,0.602991,-9.767501,2.134397,0.019547,-0.042760,0.015882
2026-03-04T19:05:53.218692,0.622133,-9.824929,2.139183,0.021991,-0.042760,0.018325
2026-03-04T19:05:53.227692,0.650847,-9.834500,2.201396,0.021991,-0.041538,0.015882
2026-03-04T19:05:53.237692,0.574277,-9.777073,2.172682,0.021991,-0.043982,0.017104
2026-03-04T19:05:53.247692,0.588634,-9.834500,2.177468,0.023212,-0.041538,0.017104
2026-03-04T19:05:53.256692,0.593420,-9.848857,2.153540,0.021991,-0.041538,0.015882
2026-03-04T19:05:53.266692,0.612562,-9.781858,2.143969,0.023212,-0.041538,0.017104
2026-03-04T19:05:53.276692,0.602991,-9.868000,2.143969,0.023212,-0.041538,0.019547
2026-03-04T19:05:53.285692,0.535992,-9.829715,2.196611,0.020769,-0.041538,0.015882
2026-03-04T19:05:53.295692,0.617348,-9.820143,2.191825,0.021991,-0.045204,0.014660
2026-03-04T19:05:53.304692,0.526420,-9.820143,2.220539,0.020769,-0.045204,0.015882
2026-03-04T19:05:53.314692,0.535992,-9.844072,2.182254,0.019547,-0.043982,0.015882
2026-03-04T19:05:53.324692,0.545563,-9.777073,2.206182,0.018325,-0.041538,0.015882
2026-03-04T19:05:53.333692,0.569491,-9.844072,2.234896,0.018325,-0.040317,0.017104
2026-03-04T19:05:53.343692,0.564706,-9.834500,2.187039,0.019547,-0.040317,0.015882
2026-03-04T19:05:53.352692,0.622133,-9.844072,2.196611,0.020769,-0.041538,0.015882
2026-03-04T19:05:53.362692,0.631705,-9.762716,2.210968,0.020769,-0.043982,0.015882
2026-03-04T19:05:53.372692,0.598205,-9.815358,2.158325,0.023212,-0.042760,0.015882
2026-03-04T19:05:53.381692,0.593420,-9.810572,2.177468,0.024434,-0.043982,0.015882
2026-03-04T19:05:53.391692,0.564706,-9.839286,2.234896,0.024434,-0.043982,0.018325
2026-03-04T19:05:53.401692,0.622133,-9.858429,2.215753,0.023212,-0.042760,0.017104
2026-03-04T19:05:53.410692,0.574277,-9.839286,2.187039,0.023212,-0.043982,0.014660
2026-03-04T19:05:53.420692,0.569491,-9.791430,2.153540,0.020769,-0.042760,0.017104
2026-03-04T19:05:53.429692,0.526420,-9.824929,2.153540,0.019547,-0.042760,0.019547
2026-03-04T19:05:53.439692,0.579063,-9.834500,2.225325,0.019547,-0.042760,0.015882
2026-03-04T19:05:53.449692,0.598205,-9.848857,2.225325,0.019547,-0.041538,0.015882
2026-03-04T19:05:53.458692,0.593420,-9.786644,2.177468,0.018325,-0.039095,0.017104
2026-03-04T19:05:53.468692,0.555134,-9.781858,2.177468,0.015882,-0.040317,0.017104
2026-03-04T19:05:53.477692,0.564706,-9.848857,2.158325,0.017104,-0.042760,0.017104
2026-03-04T19:05:53.487692,0.583848,-9.824929,2.139183,0.015882,-0.043982,0.017104
2026-03-04T19:05:53.497692,0.574277,-9.786644,2.201396,0.017104,-0.043982,0.017104
2026-03-04T19:05:53.506692,0.593420,-9.810572,2.148754,0.019547,-0.042760,0.018325
2026-03-04T19:05:53.516692,0.550349,-9.872786,2.182254,0.018325,-0.041538,0.017104
2026-03-04T19:05:53.526692,0.598205,-9.791430,2.206182,0.021991,-0.042760,0.019547
2026-03-04T19:05:53.535692,0.579063,-9.786644,2.158325,0.020769,-0.043982,0.018325
2026-03-04T19:05:53.545692,0.574277,-9.829715,2.110469,0.020769,-0.042760,0.018325
2026-03-04T19:05:53.554692,0.588634,-9.815358,2.100898,0.021991,-0.042760,0.015882
2026-03-04T19:05:53.564692,0.521635,-9.882357,2.134397,0.021991,-0.042760,0.015882
2026-03-04T19:05:53.574692,0.559920,-9.810572,2.148754,0.024434,-0.045204,0.017104
2026-03-04T19:05:53.583692,0.531206,-9.801001,2.139183,0.025656,-0.043982,0.017104
2026-03-04T19:05:53.593692,0.583848,-9.772287,2.234896,0.024434,-0.043982,0.015882
2026-03-04T19:05:53.602692,0.545563,-9.820143,2.220539,0.021991,-0.045204,0.018325
2026-03-04T19:05:53.612692,0.602991,-9.848857,2.187039,0.023212,-0.045204,0.017104
2026-03-04T19:05:53.622692,0.598205,-9.796215,2.148754,0.020769,-0.045204,0.018325
2026-03-04T19:05:53.631692,0.617348,-9.839286,2.230110,0.018325,-0.040317,0.017104
2026-03-04T19:05:53.641692,0.588634,-9.824929,2.120040,0.019547,-0.037873,0.015882
2026-03-04T19:05:53.651692,0.579063,-9.834500,2.143969,0.023212,-0.040317,0.013439
2026-03-04T19:05:53.660692,0.559920,-9.868000,2.220539,0.024434,-0.042760,0.015882
2026-03-04T19:05:53.670692,0.617348,-9.820143,2.234896,0.025656,-0.042760,0.015882
2026-03-04T19:05:53.679692,0.636490,-9.786644,2.244467,0.020769,-0.041538,0.017104
2026-03-04T19:05:53.689692,0.535992,-9.786644,2.225325,0.015882,-0.039095,0.017104
2026-03-04T19:05:53.699692,0.569491,-9.810572,2.210968,0.015882,-0.041538,0.015882
2026-03-04T19:05:53.708692,0.540777,-9.877571,2.158325,0.015882,-0.043982,0.019547
2026-03-04T19:05:53.718692,0.612562,-9.858429,2.206182,0.017104,-0.043982,0.017104
2026-03-04T19:05:53.727692,0.598205,-9.824929,2.167897,0.015882,-0.041538,0.015882
2026-03-04T19:05:53.737692,0.593420,-9.834500,2.167897,0.014660,-0.042760,0.015882
2026-03-04T19:05:53.747692,0.535992,-9.834500,2.148754,0.015882,-0.042760,0.015882
2026-03-04T19:05:53.756692,0.583848,-9.815358,2.201396,0.017104,-0.042760,0.017104
2026-03-04T19:05:53.766692,0.574277,-9.858429,2.182254,0.018325,-0.042760,0.015882
2026-03-04T19:05:53.776692,0.579063,-9.848857,2.139183,0.019547,-0.042760,0.015882
2026-03-04T19:05:53.785692,0.574277,-9.801001,2.196611,0.019547,-0.042760,0.018325
2026-03-04T19:05:53.795692,0.636490,-9.848857,2.167897,0.019547,-0.045204,0.023212
2026-03-04T19:05:53.804692,0.602991,-9.772287,2.167897,0.023212,-0.040317,0.015882
2026-03-04T19:05:53.814692,0.574277,-9.834500,2.177468,0.021991,-0.041538,0.015882
2026-03-04T19:05:53.824692,0.564706,-9.863214,2.163111,0.020769,-0.041538,0.015882
2026-03-04T19:05:53.833692,0.598205,-9.820143,2.187039,0.019547,-0.041538,0.017104
2026-03-04T19:05:53.843692,0.598205,-9.786644,2.148754,0.020769,-0.043982,0.017104
2026-03-04T19:05:53.852692,0.593420,-9.829715,2.143969,0.021991,-0.042760,0.018325
2026-03-04T19:05:53.862692,0.617348,-9.786644,2.172682,0.021991,-0.041538,0.015882
2026-03-04T19:05:53.872692,0.579063,-9.791430,2.177468,0.019547,-0.042760,0.018325
2026-03-04T19:05:53.881692,0.540777,-9.820143,2.220539,0.020769,-0.045204,0.020769
2026-03-04T19:05:53.891692,0.588634,-9.772287,2.182254,0.020769,-0.046425,0.018325
2026-03-04T19:05:53.901692,0.559920,-9.824929,2.163111,0.017104,-0.041538,0.012217
2026-03-04T19:05:53.910692,0.602991,-9.868000,2.177468,0.017104,-0.041538,0.014660
2026-03-04T19:05:53.920692,0.583848,-9.882357,2.148754,0.021991,-0.042760,0.018325
2026-03-04T19:05:53.929692,0.622133,-9.858429,2.139183,0.025656,-0.040317,0.018325
2026-03-04T19:05:53.939692,0.583848,-9.805787,2.167897,0.026878,-0.040317,0.017104
2026-03-04T19:05:53.949692,0.598205,-9.844072,2.201396,0.029321,-0.042760,0.015882
2026-03-04T19:05:53.958692,0.569491,-9.820143,2.196611,0.031764,-0.045204,0.017104
2026-03-04T19:05:53.968692,0.622133,-9.801001,2.187039,0.031764,-0.046425,0.017104
2026-03-04T19:05:53.977692,0.626919,-9.777073,2.239681,0.029321,-0.045204,0.015882
2026-03-04T19:05:53.987692,0.588634,-9.824929,2.225325,0.023212,-0.042760,0.017104
2026-03-04T19:05:53.997692,0.607776,-9.801001,2.220539,0.018325,-0.045204,0.017104
2026-03-04T19:05:54.006692,0.588634,-9.848857,2.163111,0.015882,-0.042760,0.015882
2026-03-04T19:05:54.016692,0.579063,-9.853643,2.220539,0.014660,-0.041538,0.017104
2026-03-04T19:05:54.026692,0.555134,-9.791430,2.143969,0.012217,-0.043982,0.021991
2026-03-04T19:05:54.035692,0.531206,-9.839286,2.148754,0.014660,-0.040317,0.018325
2026-03-04T19:05:54.045692,0.593420,-9.853643,2.139183,0.014660,-0.040317,0.017104
2026-03-04T19:05:54.054692,0.574277,-9.844072,2.148754,0.018325,-0.037873,0.017104
2026-03-04T19:05:54.064692,0.588634,-9.839286,2.163111,0.019547,-0.040317,0.015882
2026-03-04T19:05:54.074692,0.588634,-9.805787,2.177468,0.020769,-0.041538,0.015882
2026-03-04T19:05:54.083692,0.583848,-9.820143,2.067398,0.020769,-0.041538,0.014660
2026-03-04T19:05:54.093692,0.574277,-9.839286,2.124826,0.019547,-0.043982,0.018325
2026-03-04T19:05:54.102692,0.641276,-9.820143,2.182254,0.023212,-0.045204,0.015882
2026-03-04T19:05:54.112692,0.540777,-9.781858,2.239681,0.025656,-0.042760,0.014660
2026-03-04T19:05:54.122692,0.531206,-9.805787,2.230110,0.024434,-0.041538,0.014660
2026-03-04T19:05:54.131692,0.535992,-9.815358,2.225325,0.021991,-0.042760,0.014660
2026-03-04T19:05:54.141692,0.636490,-9.801001,2.215753,0.020769,-0.043982,0.015882
2026-03-04T19:05:54.151692,0.598205,-9.848857,2.182254,0.018325,-0.042760,0.017104
2026-03-04T19:05:54.160692,0.579063,-9.815358,2.191825,0.017104,-0.042760,0.015882
2026-03-04T19:05:54.170692,0.550349,-9.781858,2.234896,0.018325,-0.040317,0.017104
2026-03-04T19:05:54.179692,0.559920,-9.824929,2.158325,0.018325,-0.042760,0.017104
2026-03-04T19:05:54.189692,0.579063,-9.824929,2.143969,0.017104,-0.042760,0.017104
2026-03-04T19:05:54.199692,0.607776,-9.786644,2.191825,0.018325,-0.043982,0.017104
2026-03-04T19:05:54.208692,0.569491,-9.796215,2.134397,0.019547,-0.043982,0.017104
2026-03-04T19:05:54.218692,0.559920,-9.872786,2.182254,0.020769,-0.042760,0.018325
2026-03-04T19:05:54.227692,0.545563,-9.753144,2.163111,0.021991,-0.041538,0.015882
2026-03-04T19:05:54.237692,0.583848,-9.824929,2.139183,0.020769,-0.042760,0.015882
2026-03-04T19:05:54.247692,0.602991,-9.824929,2.167897,0.021991,-0.041538,0.017104
2026-03-04T19:05:54.256692,0.588634,-9.863214,2.177468,0.021991,-0.042760,0.014660
2026-03-04T19:05:54.266692,0.555134,-9.786644,2.163111,0.021991,-0.043982,0.014660
2026-03-04T19:05:54.276692,0.598205,-9.839286,2.201396,0.021991,-0.041538,0.015882
2026-03-04T19:05:54.285692,0.617348,-9.858429,2.158325,0.019547,-0.043982,0.018325
2026-03-04T19:05:54.295692,0.650847,-9.801001,2.191825,0.020769,-0.045204,0.017104
2026-03-04T19:05:54.304692,0.607776,-9.805787,2.158325,0.018325,-0.042760,0.017104
2026-03-04T19:05:54.314692,0.559920,-9.824929,2.191825,0.017104,-0.040317,0.017104
2026-03-04T19:05:54.324692,0.588634,-9.824929,2.215753,0.017104,-0.040317,0.017104
2026-03-04T19:05:54.333692,0.540777,-9.949356,2.263610,0.017104,-0.041538,0.015882
2026-03-04T19:05:54.343692,0.574277,-9.796215,2.139183,0.019547,-0.041538,0.015882
2026-03-04T19:05:54.352692,0.593420,-9.786644,2.158325,0.019547,-0.040317,0.017104
2026-03-04T19:05:54.362692,0.559920,-9.834500,2.134397,0.020769,-0.041538,0.015882
2026-03-04T19:05:54.372692,0.531206,-9.891928,2.158325,0.023212,-0.043982,0.015882
2026-03-04T19:05:54.381692,0.588634,-9.824929,2.134397,0.026878,-0.043982,0.017104
2026-03-04T19:05:54.391692,0.607776,-9.805787,2.225325,0.023212,-0.047647,0.019547
2026-03-04T19:05:54.401692,0.574277,-9.820143,2.201396,0.020769,-0.045204,0.018325
2026-03-04T19:05:54.410692,0.588634,-9.829715,2.263610,0.019547,-0.042760,0.018325
2026-03-04T19:05:54.420692,0.559920,-9.753144,2.191825,0.019547,-0.043982,0.019547
2026-03-04T19:05:54.429692,0.598205,-9.772287,2.206182,0.015882,-0.042760,0.017104
2026-03-04T19:05:54.439692,0.545563,-9.805787,2.210968,0.017104,-0.040317,0.014660
2026-03-04T19:05:54.449692,0.602991,-9.901499,2.148754,0.015882,-0.040317,0.017104
2026-03-04T19:05:54.458692,0.545563,-9.858429,2.187039,0.017104,-0.039095,0.015882
2026-03-04T19:05:54.468692,0.555134,-9.801001,2.105683,0.019547,-0.041538,0.014660
2026-03-04T19:05:54.477692,0.526420,-9.848857,2.129612,0.019547,-0.043982,0.014660
2026-03-04T19:05:54.487692,0.574277,-9.772287,2.182254,0.023212,-0.045204,0.015882
2026-03-04T19:05:54.497692,0.555134,-9.844072,2.172682,0.026878,-0.045204,0.015882
2026-03-04T19:05:54.506692,0.602991,-9.815358,2.172682,0.029321,-0.048869,0.015882
2026-03-04T19:05:54.516692,0.540777,-9.781858,2.210968,0.028099,-0.046425,0.015882
2026-03-04T19:05:54.526692,0.612562,-9.824929,2.172682,0.025656,-0.045204,0.014660
2026-03-04T19:05:54.535692,0.559920,-9.815358,2.196611,0.025656,-0.043982,0.013439
2026-03-04T19:05:54.545692,0.540777,-9.858429,2.230110,0.026878,-0.041538,0.015882
2026-03-04T19:05:54.554692,0.588634,-9.786644,2.187039,0.025656,-0.040317,0.017104
2026-03-04T19:05:54.564692,0.617348,-9.810572,2.191825,0.023212,-0.040317,0.017104
2026-03-04T19:05:54.574692,0.535992,-9.820143,2.249253,0.019547,-0.039095,0.017104
2026-03-04T19:05:54.583692,0.593420,-9.848857,2.215753,0.020769,-0.041538,0.014660
2026-03-04T19:05:54.593692,0.602991,-9.868000,2.120040,0.023212,-0.043982,0.015882
2026-03-04T19:05:54.602692,0.550349,-9.829715,2.143969,0.024434,-0.046425,0.017104
2026-03-04T19:05:54.612692,0.540777,-9.863214,2.167897,0.023212,-0.046425,0.014660
2026-03-04T19:05:54.622692,0.545563,-9.863214,2.230110,0.023212,-0.046425,0.015882
2026-03-04T19:05:54.631692,0.569491,-9.868000,2.167897,0.025656,-0.045204,0.017104
2026-03-04T19:05:54.641692,0.574277,-9.810572,2.263610,0.024434,-0.045204,0.015882
2026-03-04T19:05:54.651692,0.555134,-9.815358,2.230110,0.024434,-0.043982,0.018325
2026-03-04T19:05:54.660692,0.555134,-9.810572,2.177468,0.017104,-0.040317,0.019547
2026-03-04T19:05:54.670692,0.583848,-9.805787,2.206182,0.018325,-0.040317,0.019547
2026-03-04T19:05:54.679692,0.602991,-9.882357,2.225325,0.015882,-0.040317,0.018325
2026-03-04T19:05:54.689692,0.574277,-9.767501,2.210968,0.014660,-0.040317,0.013439
2026-03-04T19:05:54.699692,0.607776,-9.796215,2.172682,0.015882,-0.040317,0.015882
2026-03-04T19:05:54.708692,0.550349,-9.844072,2.072184,0.014660,-0.037873,0.015882
2026-03-04T19:05:54.718692,0.564706,-9.858429,2.148754,0.019547,-0.043982,0.017104
2026-03-04T19:05:54.727692,0.545563,-9.820143,2.234896,0.020769,-0.047647,0.017104
2026-03-04T19:05:54.737692,0.559920,-9.801001,2.215753,0.018325,-0.046425,0.018325
2026-03-04T19:05:54.747692,0.540777,-9.844072,2.254038,0.015882,-0.045204,0.015882
2026-03-04T19:05:54.756692,0.564706,-9.801001,2.187039,0.013439,-0.045204,0.018325
2026-03-04T19:05:54.766692,0.598205,-9.868000,2.201396,0.012217,-0.045204,0.018325
2026-03-04T19:05:54.776692,0.555134,-9.791430,2.172682,0.013439,-0.043982,0.018325
2026-03-04T19:05:54.785692,0.607776,-9.829715,2.196611,0.012217,-0.042760,0.017104
2026-03-04T19:05:54.795692,0.516849,-9.829715,2.139183,0.013439,-0.041538,0.018325
2026-03-04T19:05:54.804692,0.598205,-9.858429,2.177468,0.015882,-0.042760,0.017104
2026-03-04T19:05:54.814692,0.550349,-9.839286,2.177468,0.021991,-0.045204,0.017104
2026-03-04T19:05:54.824692,0.579063,-9.791430,2.081755,0.024434,-0.042760,0.017104
2026-03-04T19:05:54.833692,0.521635,-9.863214,2.177468,0.026878,-0.041538,0.015882
2026-03-04T19:05:54.843692,0.559920,-9.796215,2.167897,0.025656,-0.043982,0.018325
2026-03-04T19:05:54.852692,0.598205,-9.824929,2.210968,0.023212,-0.046425,0.018325
2026-03-04T19:05:54.862692,0.564706,-9.801001,2.201396,0.020769,-0.045204,0.015882
2026-03-04T19:05:54.872692,0.555134,-9.786644,2.225325,0.012217,-0.043982,0.015882
2026-03-04T19:05:54.881692,0.579063,-9.786644,2.230110,0.013439,-0.042760,0.017104
2026-03-04T19:05:54.891692,0.598205,-9.820143,2.206182,0.013439,-0.042760,0.015882
2026-03-04T19:05:54.901692,0.617348,-9.834500,2.163111,0.014660,-0.043982,0.017104
2026-03-04T19:05:54.910692,0.588634,-9.820143,2.139183,0.017104,-0.043982,0.015882
2026-03-04T19:05:54.920692,0.535992,-9.868000,2.124826,0.020769,-0.042760,0.015882
2026-03-04T19:05:54.929692,0.521635,-9.853643,2.124826,0.025656,-0.043982,0.014660
2026-03-04T19:05:54.939692,0.574277,-9.858429,2.139183,0.028099,-0.045204,0.015882
2026-03-04T19:05:54.949692,0.593420,-9.853643,2.191825,0.030543,-0.045204,0.017104
2026-03-04T19:05:54.958692,0.540777,-9.805787,2.201396,0.029321,-0.042760,0.013439
2026-03-04T19:05:54.968692,0.612562,-9.844072,2.187039,0.030543,-0.041538,0.015882
2026-03-04T19:05:54.977692,0.617348,-9.820143,2.177468,0.028099,-0.041538,0.015882
2026-03-04T19:05:54.987692,0.569491,-9.848857,2.249253,0.028099,-0.045204,0.014660
2026-03-04T19:05:54.997692,0.579063,-9.767501,2.225325,0.019547,-0.040317,0.017104
2026-03-04T19:05:55.006692,0.569491,-9.777073,2.215753,0.019547,-0.041538,0.015882
2026-03-04T19:05:55.016692,0.574277,-9.820143,2.191825,0.014660,-0.043982,0.015882
2026-03-04T19:05:55.026692,0.569491,-9.868000,2.220539,0.015882,-0.040317,0.015882
2026-03-04T19:05:55.035692,0.588634,-9.820143,2.182254,0.015882,-0.039095,0.015882
2026-03-04T19:05:55.045692,0.579063,-9.863214,2.196611,0.015882,-0.039095,0.018325
2026-03-04T19:05:55.054692,0.631705,-9.820143,2.206182,0.017104,-0.039095,0.015882
2026-03-04T19:05:55.064692,0.607776,-9.777073,2.191825,0.018325,-0.040317,0.015882
2026-03-04T19:05:55.074692,0.555134,-9.834500,2.187039,0.018325,-0.040317,0.017104
2026-03-04T19:05:55.083692,0.555134,-9.858429,2.153540,0.020769,-0.041538,0.015882
2026-03-04T19:05:55.093692,0.545563,-9.872786,2.220539,0.021991,-0.040317,0.014660
2026-03-04T19:05:55.102692,0.550349,-9.877571,2.191825,0.021991,-0.041538,0.015882
2026-03-04T19:05:55.112692,0.579063,-9.891928,2.215753,0.020769,-0.039095,0.017104
2026-03-04T19:05:55.122692,0.583848,-9.820143,2.201396,0.019547,-0.037873,0.018325
2026-03-04T19:05:55.131692,0.588634,-9.824929,2.215753,0.018325,-0.036651,0.017104
2026-03-04T19:05:55.141692,0.588634,-9.791430,2.177468,0.014660,-0.035430,0.018325
2026-03-04T19:05:55.151692,0.559920,-9.781858,2.153540,0.013439,-0.039095,0.018325
2026-03-04T19:05:55.160692,0.569491,-9.863214,2.220539,0.012217,-0.040317,0.017104
2026-03-04T19:05:55.170692,0.583848,-9.839286,2.148754,0.013439,-0.040317,0.018325
2026-03-04T19:05:55.179692,0.622133,-9.824929,2.187039,0.014660,-0.039095,0.015882
2026-03-04T19:05:55.189692,0.583848,-9.786644,2.158325,0.015882,-0.040317,0.015882
2026-03-04T19:05:55.199692,0.579063,-9.824929,2.110469,0.014660,-0.040317,0.015882
2026-03-04T19:05:55.208692,0.593420,-9.824929,2.148754,0.017104,-0.040317,0.015882
2026-03-04T19:05:55.218692,0.507278,-9.820143,2.110469,0.021991,-0.041538,0.015882
2026-03-04T19:05:55.227692,0.602991,-9.848857,2.167897,0.024434,-0.043982,0.015882
2026-03-04T19:05:55.237692,0.579063,-9.820143,2.182254,0.024434,-0.046425,0.018325
2026-03-04T19:05:55.247692,0.531206,-9.853643,2.254038,0.024434,-0.045204,0.015882
2026-03-04T19:05:55.256692,0.598205,-9.834500,2.187039,0.023212,-0.043982,0.017104
2026-03-04T19:05:55.266692,0.540777,-9.858429,2.182254,0.024434,-0.041538,0.014660
2026-03-04T19:05:55.276692,0.569491,-9.796215,2.191825,0.023212,-0.041538,0.015882
2026-03-04T19:05:55.285692,0.583848,-9.848857,2.225325,0.024434,-0.041538,0.017104
2026-03-04T19:05:55.295692,0.622133,-9.805787,2.191825,0.026878,-0.042760,0.017104
2026-03-04T19:05:55.304692,0.602991,-9.863214,2.134397,0.025656,-0.041538,0.017104
2026-03-04T19:05:55.314692,0.545563,-9.839286,2.148754,0.024434,-0.041538,0.017104
2026-03-04T19:05:55.324692,0.569491,-9.829715,2.172682,0.023212,-0.041538,0.015882
2026-03-04T19:05:55.333692,0.626919,-9.786644,2.206182,0.021991,-0.042760,0.015882
2026-03-04T19:05:55.343692,0.579063,-9.810572,2.249253,0.020769,-0.041538,0.017104
2026-03-04T19:05:55.352692,0.593420,-9.848857,2.230110,0.017104,-0.041538,0.018325
2026-03-04T19:05:55.362692,0.593420,-9.805787,2.206182,0.015882,-0.045204,0.018325
2026-03-04T19:05:55.372692,0.555134,-9.834500,2.234896,0.018325,-0.045204,0.019547
2026-03-04T19:05:55.381692,0.579063,-9.810572,2.158325,0.019547,-0.042760,0.017104
2026-03-04T19:05:55.391692,0.574277,-9.796215,2.191825,0.018325,-0.040317,0.014660
2026-03-04T19:05:55.401692,0.583848,-9.853643,2.172682,0.019547,-0.041538,0.015882
2026-03-04T19:05:55.410692,0.555134,-9.891928,2.220539,0.017104,-0.042760,0.018325
2026-03-04T19:05:55.420692,0.593420,-9.810572,2.201396,0.018325,-0.043982,0.018325
2026-03-04T19:05:55.429692,0.574277,-9.834500,2.196611,0.015882,-0.046425,0.017104
2026-03-04T19:05:55.439692,0.526420,-9.815358,2.215753,0.015882,-0.045204,0.017104
2026-03-04T19:05:55.449692,0.579063,-9.824929,2.225325,0.013439,-0.043982,0.014660
2026-03-04T19:05:55.458692,0.588634,-9.791430,2.230110,0.010995,-0.041538,0.014660
2026-03-04T19:05:55.468692,0.545563,-9.848857,2.139183,0.008552,-0.042760,0.015882
2026-03-04T19:05:55.477692,0.569491,-9.820143,2.167897,0.009773,-0.043982,0.017104
2026-03-04T19:05:55.487692,0.593420,-9.820143,2.187039,0.009773,-0.043982,0.013439
2026-03-04T19:05:55.497692,0.593420,-9.853643,2.139183,0.012217,-0.045204,0.017104
2026-03-04T19:05:55.506692,0.559920,-9.820143,2.167897,0.013439,-0.042760,0.017104
2026-03-04T19:05:55.516692,0.583848,-9.848857,2.172682,0.014660,-0.041538,0.017104
2026-03-04T19:05:55.526692,0.574277,-9.801001,2.163111,0.014660,-0.041538,0.015882
2026-03-04T19:05:55.535692,0.521635,-9.820143,2.148754,0.014660,-0.042760,0.015882
2026-03-04T19:05:55.545692,0.583848,-9.829715,2.120040,0.018325,-0.042760,0.017104
2026-03-04T19:05:55.554692,0.526420,-9.820143,2.153540,0.019547,-0.041538,0.015882
2026-03-04T19:05:55.564692,0.588634,-9.805787,2.158325,0.021991,-0.041538,0.014660
2026-03-04T19:05:55.574692,0.569491,-9.810572,2.187039,0.019547,-0.042760,0.014660
2026-03-04T19:05:55.583692,0.569491,-9.824929,2.143969,0.021991,-0.041538,0.015882
2026-03-04T19:05:55.593692,0.598205,-9.834500,2.163111,0.023212,-0.041538,0.017104
2026-03-04T19:05:55.602692,0.574277,-9.786644,2.158325,0.023212,-0.041538,0.015882
2026-03-04T19:05:55.612692,0.564706,-9.820143,2.201396,0.021991,-0.041538,0.015882
2026-03-04T19:05:55.622692,0.569491,-9.805787,2.191825,0.023212,-0.045204,0.018325
2026-03-04T19:05:55.631692,0.574277,-9.824929,2.177468,0.023212,-0.045204,0.018325
2026-03-04T19:05:55.641692,0.593420,-9.829715,2.201396,0.024434,-0.043982,0.018325
2026-03-04T19:05:55.651692,0.564706,-9.810572,2.177468,0.023212,-0.042760,0.018325
2026-03-04T19:05:55.660692,0.540777,-9.887142,2.172682,0.021991,-0.042760,0.017104
2026-03-04T19:05:55.670692,0.579063,-9.815358,2.129612,0.025656,-0.043982,0.017104
2026-03-04T19:05:55.679692,0.602991,-9.815358,2.167897,0.029321,-0.041538,0.015882
2026-03-04T19:05:55.689692,0.593420,-9.834500,2.110469,0.030543,-0.040317,0.015882
2026-03-04T19:05:55.699692,0.555134,-9.777073,2.134397,0.031764,-0.042760,0.015882
2026-03-04T19:05:55.708692,0.598205,-9.844072,2.148754,0.032986,-0.045204,0.015882
2026-03-04T19:05:55.718692,0.574277,-9.762716,2.254038,0.034208,-0.047647,0.015882
2026-03-04T19:05:55.727692,0.593420,-9.777073,2.249253,0.028099,-0.045204,0.017104
2026-03-04T19:05:55.737692,0.598205,-9.801001,2.187039,0.023212,-0.040317,0.013439
2026-03-04T19:05:55.747692,0.535992,-9.829715,2.139183,0.014660,-0.040317,0.015882
2026-03-04T19:05:55.756692,0.583848,-9.868000,2.220539,0.017104,-0.042760,0.019547
2026-03-04T19:05:55.766692,0.593420,-9.815358,2.167897,0.015882,-0.041538,0.019547
2026-03-04T19:05:55.776692,0.593420,-9.829715,2.230110,0.015882,-0.042760,0.020769
2026-03-04T19:05:55.785692,0.555134,-9.824929,2.177468,0.015882,-0.040317,0.020769
2026-03-04T19:05:55.795692,0.579063,-9.901499,2.153540,0.017104,-0.040317,0.018325
2026-03-04T19:05:55.804692,0.540777,-9.848857,2.167897,0.018325,-0.041538,0.018325
2026-03-04T19:05:55.814692,0.579063,-9.781858,2.191825,0.017104,-0.042760,0.019547
2026-03-04T19:05:55.824692,0.598205,-9.834500,2.143969,0.018325,-0.042760,0.018325
2026-03-04T19:05:55.833692,0.555134,-9.839286,2.177468,0.020769,-0.046425,0.017104
2026-03-04T19:05:55.843692,0.617348,-9.824929,2.187039,0.018325,-0.045204,0.017104
2026-03-04T19:05:55.852692,0.602991,-9.791430,2.210968,0.018325,-0.043982,0.018325
2026-03-04T19:05:55.862692,0.612562,-9.839286,2.129612,0.018325,-0.041538,0.015882
2026-03-04T19:05:55.872692,0.564706,-9.801001,2.234896,0.017104,-0.043982,0.017104
2026-03-04T19:05:55.881692,0.545563,-9.777073,2.220539,0.017104,-0.041538,0.015882
2026-03-04T19:05:55.891692,0.545563,-9.839286,2.177468,0.017104,-0.043982,0.017104
2026-03-04T19:05:55.901692,0.583848,-9.810572,2.105683,0.013439,-0.042760,0.017104
2026-03-04T19:05:55.910692,0.540777,-9.868000,2.134397,0.014660,-0.045204,0.018325
2026-03-04T19:05:55.920692,0.607776,-9.820143,2.158325,0.015882,-0.042760,0.017104
2026-03-04T19:05:55.929692,0.622133,-9.757930,2.124826,0.017104,-0.041538,0.018325
2026-03-04T19:05:55.939692,0.593420,-9.887142,2.139183,0.018325,-0.041538,0.017104
2026-03-04T19:05:55.949692,0.598205,-9.805787,2.177468,0.019547,-0.041538,0.017104
2026-03-04T19:05:55.958692,0.569491,-9.829715,2.187039,0.023212,-0.041538,0.017104
2026-03-04T19:05:55.968692,0.540777,-9.786644,2.129612,0.024434,-0.042760,0.015882
2026-03-04T19:05:55.977692,0.564706,-9.810572,2.163111,0.021991,-0.041538,0.015882
2026-03-04T19:05:55.987692,0.583848,-9.891928,2.167897,0.021991,-0.043982,0.017104
2026-03-04T19:05:55.997692,0.583848,-9.805787,2.129612,0.021991,-0.043982,0.014660
2026-03-04T19:05:56.006692,0.574277,-9.834500,2.220539,0.023212,-0.045204,0.015882
2026-03-04T19:05:56.016692,0.569491,-9.834500,2.167897,0.021991,-0.043982,0.017104
2026-03-04T19:05:56.026692,0.545563,-9.820143,2.177468,0.021991,-0.042760,0.015882
2026-03-04T19:05:56.035692,0.598205,-9.844072,2.139183,0.023212,-0.042760,0.015882
2026-03-04T19:05:56.045692,0.617348,-9.824929,2.201396,0.025656,-0.042760,0.017104
2026-03-04T19:05:56.054692,0.574277,-9.872786,2.153540,0.025656,-0.041538,0.017104
2026-03-04T19:05:56.064692,0.588634,-9.810572,2.134397,0.025656,-0.043982,0.015882
2026-03-04T19:05:56.074692,0.564706,-9.820143,2.177468,0.025656,-0.042760,0.015882
2026-03-04T19:05:56.083692,0.569491,-9.805787,2.225325,0.023212,-0.045204,0.015882
2026-03-04T19:05:56.093692,0.583848,-9.839286,2.158325,0.020769,-0.045204,0.017104
2026-03-04T19:05:56.102692,0.593420,-9.824929,2.172682,0.021991,-0.045204,0.013439
2026-03-04T19:05:56.112692,0.535992,-9.772287,2.201396,0.021991,-0.042760,0.018325
2026-03-04T19:05:56.122692,0.622133,-9.815358,2.215753,0.018325,-0.043982,0.018325
2026-03-04T19:05:56.131692,0.583848,-9.844072,2.196611,0.019547,-0.040317,0.018325
2026-03-04T19:05:56.141692,0.579063,-9.805787,2.158325,0.020769,-0.043982,0.019547
2026-03-04T19:05:56.151692,0.555134,-9.853643,2.210968,0.021991,-0.043982,0.018325
2026-03-04T19:05:56.160692,0.593420,-9.805787,2.196611,0.019547,-0.043982,0.015882
2026-03-04T19:05:56.170692,0.622133,-9.805787,2.182254,0.018325,-0.043982,0.015882
2026-03-04T19:05:56.179692,0.583848,-9.820143,2.143969,0.020769,-0.043982,0.014660
2026-03-04T19:05:56.189692,0.588634,-9.805787,2.153540,0.023212,-0.042760,0.014660
2026-03-04T19:05:56.199692,0.535992,-9.848857,2.206182,0.026878,-0.042760,0.015882
2026-03-04T19:05:56.208692,0.574277,-9.824929,2.153540,0.029321,-0.041538,0.013439
2026-03-04T19:05:56.218692,0.579063,-9.858429,2.196611,0.029321,-0.042760,0.014660
2026-03-04T19:05:56.227692,0.583848,-9.839286,2.249253,0.026878,-0.043982,0.014660
2026-03-04T19:05:56.237692,0.583848,-9.815358,2.273181,0.024434,-0.047647,0.017104
2026-03-04T19:05:56.247692,0.583848,-9.834500,2.254038,0.015882,-0.045204,0.019547
2026-03-04T19:05:56.256692,0.550349,-9.844072,2.244467,0.015882,-0.040317,0.019547
2026-03-04T19:05:56.266692,0.588634,-9.796215,2.249253,0.014660,-0.037873,0.014660
2026-03-04T19:05:56.276692,0.564706,-9.820143,2.187039,0.014660,-0.041538,0.015882
2026-03-04T19:05:56.285692,0.593420,-9.815358,2.139183,0.013439,-0.040317,0.018325
2026-03-04T19:05:56.295692,0.507278,-9.820143,2.143969,0.015882,-0.041538,0.017104
2026-03-04T19:05:56.304692,0.579063,-9.834500,2.148754,0.017104,-0.043982,0.017104
2026-03-04T19:05:56.314692,0.598205,-9.877571,2.196611,0.017104,-0.045204,0.023212
2026-03-04T19:05:56.324692,0.555134,-9.815358,2.182254,0.019547,-0.043982,0.020769
2026-03-04T19:05:56.333692,0.593420,-9.801001,2.234896,0.021991,-0.043982,0.015882
2026-03-04T19:05:56.343692,0.612562,-9.834500,2.191825,0.019547,-0.041538,0.014660
2026-03-04T19:05:56.352692,0.650847,-9.801001,2.239681,0.018325,-0.040317,0.017104
2026-03-04T19:05:56.362692,0.550349,-9.848857,2.230110,0.015882,-0.043982,0.013439
2026-03-04T19:05:56.372692,0.583848,-9.810572,2.196611,0.014660,-0.041538,0.017104
2026-03-04T19:05:56.381692,0.617348,-9.848857,2.225325,0.014660,-0.041538,0.018325
2026-03-04T19:05:56.391692,0.583848,-9.820143,2.187039,0.015882,-0.041538,0.015882
2026-03-04T19:05:56.401692,0.617348,-9.810572,2.196611,0.015882,-0.039095,0.017104
2026-03-04T19:05:56.410692,0.550349,-9.805787,2.134397,0.015882,-0.041538,0.015882
2026-03-04T19:05:56.420692,0.574277,-9.786644,2.110469,0.018325,-0.045204,0.019547
2026-03-04T19:05:56.429692,0.574277,-9.810572,2.153540,0.018325,-0.046425,0.018325
2026-03-04T19:05:56.439692,0.598205,-9.829715,2.220539,0.017104,-0.045204,0.015882
2026-03-04T19:05:56.449692,0.646062,-9.863214,2.124826,0.017104,-0.045204,0.018325
2026-03-04T19:05:56.458692,0.559920,-9.844072,2.172682,0.019547,-0.043982,0.017104
2026-03-04T19:05:56.468692,0.593420,-9.839286,2.134397,0.020769,-0.043982,0.014660
2026-03-04T19:05:56.477692,0.593420,-9.853643,2.167897,0.023212,-0.045204,0.015882
2026-03-04T19:05:56.487692,0.593420,-9.839286,2.177468,0.028099,-0.043982,0.014660
2026-03-04T19:05:56.497692,0.531206,-9.853643,2.268395,0.029321,-0.042760,0.017104
2026-03-04T19:05:56.506692,0.535992,-9.853643,2.206182,0.029321,-0.042760,0.017104
2026-03-04T19:05:56.516692,0.588634,-9.844072,2.225325,0.026878,-0.042760,0.017104
2026-03-04T19:05:56.526692,0.622133,-9.781858,2.177468,0.025656,-0.045204,0.015882
2026-03-04T19:05:56.535692,0.626919,-9.815358,2.201396,0.024434,-0.043982,0.014660
2026-03-04T19:05:56.545692,0.559920,-9.743573,2.206182,0.023212,-0.043982,0.015882
2026-03-04T19:05:56.554692,0.588634,-9.824929,2.206182,0.021991,-0.045204,0.013439
2026-03-04T19:05:56.564692,0.583848,-9.781858,2.163111,0.023212,-0.045204,0.015882
2026-03-04T19:05:56.574692,0.612562,-9.848857,2.110469,0.024434,-0.041538,0.017104
2026-03-04T19:05:56.583692,0.602991,-9.805787,2.148754,0.021991,-0.042760,0.018325
2026-03-04T19:05:56.593692,0.660419,-9.791430,2.201396,0.023212,-0.040317,0.017104
2026-03-04T19:05:56.602692,0.579063,-9.791430,2.182254,0.020769,-0.041538,0.014660
2026-03-04T19:05:56.612692,0.579063,-9.805787,2.148754,0.021991,-0.039095,0.014660
2026-03-04T19:05:56.622692,0.583848,-9.824929,2.177468,0.021991,-0.041538,0.017104
2026-03-04T19:05:56.631692,0.612562,-9.820143,2.153540,0.021991,-0.042760,0.018325
2026-03-04T19:05:56.641692,0.636490,-9.805787,2.191825,0.024434,-0.042760,0.015882
2026-03-04T19:05:56.651692,0.579063,-9.791430,2.143969,0.023212,-0.040317,0.017104
2026-03-04T19:05:56.660692,0.559920,-9.844072,2.081755,0.024434,-0.042760,0.015882
2026-03-04T19:05:56.670692,0.540777,-9.839286,2.143969,0.028099,-0.047647,0.018325
2026-03-04T19:05:56.679692,0.583848,-9.748359,2.158325,0.024434,-0.043982,0.018325
2026-03-04T19:05:56.689692,0.622133,-9.810572,2.244467,0.020769,-0.046425,0.014660
2026-03-04T19:05:56.699692,0.593420,-9.844072,2.254038,0.021991,-0.042760,0.013439
2026-03-04T19:05:56.708692,0.545563,-9.834500,2.182254,0.023212,-0.037873,0.014660
2026-03-04T19:05:56.718692,0.555134,-9.848857,2.201396,0.024434,-0.043982,0.015882
2026-03-04T19:05:56.727692,0.559920,-9.796215,2.191825,0.020769,-0.047647,0.017104
2026-03-04T19:05:56.737692,0.598205,-9.801001,2.206182,0.019547,-0.046425,0.015882
2026-03-04T19:05:56.747692,0.559920,-9.820143,2.206182,0.019547,-0.046425,0.015882
2026-03-04T19:05:56.756692,0.574277,-9.848857,2.244467,0.018325,-0.046425,0.017104
2026-03-04T19:05:56.766692,0.540777,-9.781858,2.263610,0.017104,-0.043982,0.014660
2026-03-04T19:05:56.776692,0.535992,-9.796215,2.254038,0.010995,-0.041538,0.017104
2026-03-04T19:05:56.785692,0.564706,-9.762716,2.277967,0.008552,-0.040317,0.017104
2026-03-04T19:05:56.795692,0.602991,-9.824929,2.153540,0.015882,-0.036651,0.014660
2026-03-04T19:05:56.804692,0.598205,-9.891928,2.110469,0.007330,-0.037873,0.015882
2026-03-04T19:05:56.814692,0.641276,-9.858429,2.225325,0.017104,-0.043982,0.020769
2026-03-04T19:05:56.824692,0.579063,-9.767501,2.124826,0.021991,-0.040317,0.017104
2026-03-04T19:05:56.833692,0.550349,-9.820143,2.163111,0.020769,-0.039095,0.014660
2026-03-04T19:05:56.843692,0.579063,-9.901499,2.086541,0.023212,-0.042760,0.015882
2026-03-04T19:05:56.852692,0.545563,-9.829715,2.139183,0.026878,-0.048869,0.015882
2026-03-04T19:05:56.862692,0.593420,-9.796215,2.220539,0.026878,-0.052534,0.017104
2026-03-04T19:05:56.872692,0.579063,-9.762716,2.277967,0.023212,-0.046425,0.017104
2026-03-04T19:05:56.881692,0.598205,-9.796215,2.220539,0.020769,-0.040317,0.013439
2026-03-04T19:05:56.891692,0.593420,-9.853643,2.277967,0.018325,-0.039095,0.015882
2026-03-04T19:05:56.901692,0.593420,-9.848857,2.234896,0.015882,-0.040317,0.014660
2026-03-04T19:05:56.910692,0.540777,-9.877571,2.158325,0.018325,-0.037873,0.018325
2026-03-04T19:05:56.920692,0.550349,-9.915856,2.120040,0.014660,-0.037873,0.015882
2026-03-04T19:05:56.929692,0.579063,-9.781858,2.177468,0.021991,-0.039095,0.018325
2026-03-04T19:05:56.939692,0.564706,-9.882357,2.158325,0.017104,-0.040317,0.018325
2026-03-04T19:05:56.949692,0.569491,-9.791430,2.249253,0.017104,-0.039095,0.019547
2026-03-04T19:05:56.958692,0.598205,-9.858429,2.234896,0.018325,-0.037873,0.018325
2026-03-04T19:05:56.968692,0.550349,-9.801001,2.177468,0.019547,-0.039095,0.017104
2026-03-04T19:05:56.977692,0.602991,-9.848857,2.139183,0.024434,-0.040317,0.017104
2026-03-04T19:05:56.987692,0.593420,-9.834500,2.110469,0.021991,-0.045204,0.015882
2026-03-04T19:05:56.997692,0.617348,-9.834500,2.148754,0.025656,-0.045204,0.014660
2026-03-04T19:05:57.006692,0.526420,-9.872786,2.105683,0.028099,-0.048869,0.015882
2026-03-04T19:05:57.016692,0.521635,-9.786644,2.177468,0.028099,-0.048869,0.014660
2026-03-04T19:05:57.026692,0.579063,-9.829715,2.244467,0.026878,-0.043982,0.012217
2026-03-04T19:05:57.035692,0.593420,-9.882357,2.148754,0.026878,-0.041538,0.013439
2026-03-04T19:05:57.045692,0.631705,-9.844072,2.254038,0.025656,-0.046425,0.014660
2026-03-04T19:05:57.054692,0.579063,-9.844072,2.277967,0.026878,-0.047647,0.014660
2026-03-04T19:05:57.064692,0.583848,-9.829715,2.210968,0.021991,-0.043982,0.014660
2026-03-04T19:05:57.074692,0.660419,-9.786644,2.225325,0.020769,-0.042760,0.015882
2026-03-04T19:05:57.083692,0.593420,-9.824929,2.191825,0.021991,-0.045204,0.017104
2026-03-04T19:05:57.093692,0.602991,-9.786644,2.172682,0.017104,-0.046425,0.013439
2026-03-04T19:05:57.102692,0.550349,-9.858429,2.191825,0.018325,-0.047647,0.015882
2026-03-04T19:05:57.112692,0.559920,-9.791430,2.148754,0.026878,-0.045204,0.010995
2026-03-04T19:05:57.122692,0.602991,-9.829715,2.076970,0.023212,-0.046425,0.015882
2026-03-04T19:05:57.131692,0.507278,-9.820143,2.225325,0.023212,-0.054977,0.015882
2026-03-04T19:05:57.141692,0.564706,-9.777073,2.316252,0.019547,-0.056199,0.015882
2026-03-04T19:05:57.151692,0.622133,-9.810572,2.206182,0.019547,-0.046425,0.014660
2026-03-04T19:05:57.160692,0.569491,-9.848857,2.100898,0.019547,-0.042760,0.012217
2026-03-04T19:05:57.170692,0.569491,-9.858429,2.187039,0.017104,-0.048869,0.015882
2026-03-04T19:05:57.179692,0.583848,-9.872786,2.210968,0.020769,-0.047647,0.014660
2026-03-04T19:05:57.189692,0.626919,-9.805787,2.172682,0.025656,-0.041538,0.013439
2026-03-04T19:05:57.199692,0.588634,-9.796215,2.086541,0.030543,-0.041538,0.010995
2026-03-04T19:05:57.208692,0.598205,-9.767501,2.067398,0.028099,-0.047647,0.012217
2026-03-04T19:05:57.218692,0.636490,-9.844072,2.292324,0.032986,-0.053756,0.012217
2026-03-04T19:05:57.227692,0.631705,-9.777073,2.225325,0.029321,-0.047647,0.010995
2026-03-04T19:05:57.237692,0.579063,-9.796215,2.163111,0.029321,-0.045204,0.010995
2026-03-04T19:05:57.247692,0.545563,-9.853643,2.254038,0.029321,-0.048869,0.010995
2026-03-04T19:05:57.256692,0.598205,-9.757930,2.287538,0.029321,-0.048869,0.014660
2026-03-04T19:05:57.266692,0.545563,-9.738787,2.220539,0.026878,-0.046425,0.010995
2026-03-04T19:05:57.276692,0.598205,-9.801001,2.153540,0.020769,-0.045204,0.010995
2026-03-04T19:05:57.285692,0.593420,-9.767501,2.177468,0.020769,-0.042760,0.012217
2026-03-04T19:05:57.295692,0.545563,-9.791430,2.105683,0.021991,-0.045204,0.013439
2026-03-04T19:05:57.304692,0.574277,-9.829715,2.187039,0.021991,-0.048869,0.013439
2026-03-04T19:05:57.314692,0.607776,-9.877571,2.230110,0.018325,-0.048869,0.015882
2026-03-04T19:05:57.324692,0.650847,-9.901499,2.201396,0.020769,-0.042760,0.012217
2026-03-04T19:05:57.333692,0.617348,-9.829715,2.182254,0.025656,-0.037873,0.010995
2026-03-04T19:05:57.343692,0.559920,-9.786644,2.196611,0.030543,-0.037873,0.012217
2026-03-04T19:05:57.352692,0.569491,-9.801001,2.177468,0.032986,-0.041538,0.012217
2026-03-04T19:05:57.362692,0.593420,-9.781858,2.187039,0.030543,-0.042760,0.014660
2026-03-04T19:05:57.372692,0.588634,-9.824929,2.220539,0.029321,-0.045204,0.014660
2026-03-04T19:05:57.381692,0.674775,-9.820143,2.263610,0.032986,-0.046425,0.013439
2026-03-04T19:05:57.391692,0.660419,-9.810572,2.258824,0.035430,-0.045204,0.014660
2026-03-04T19:05:57.401692,0.564706,-9.777073,2.230110,0.034208,-0.041538,0.014660
2026-03-04T19:05:57.410692,0.574277,-9.781858,2.163111,0.030543,-0.041538,0.010995
2026-03-04T19:05:57.420692,0.535992,-9.829715,2.172682,0.029321,-0.043982,0.012217
2026-03-04T19:05:57.429692,0.583848,-9.805787,2.177468,0.029321,-0.045204,0.014660
2026-03-04T19:05:57.439692,0.655633,-9.810572,2.187039,0.025656,-0.043982,0.014660
2026-03-04T19:05:57.449692,0.564706,-9.853643,2.225325,0.024434,-0.043982,0.015882
2026-03-04T19:05:57.458692,0.612562,-9.858429,2.287538,0.025656,-0.040317,0.015882
2026-03-04T19:05:57.468692,0.564706,-9.815358,2.220539,0.035430,-0.037873,0.010995
2026-03-04T19:05:57.477692,0.617348,-9.958927,2.100898,0.025656,-0.040317,0.020769
2026-03-04T19:05:57.487692,0.626919,-9.920642,2.167897,0.028099,-0.042760,0.024434
2026-03-04T19:05:57.497692,0.507278,-9.786644,2.321037,0.029321,-0.048869,0.020769
2026-03-04T19:05:57.506692,0.655633,-9.757930,2.311466,0.026878,-0.046425,0.021991
2026-03-04T19:05:57.516692,0.655633,-9.796215,2.225325,0.024434,-0.037873,0.019547
2026-03-04T19:05:57.526692,0.684347,-9.853643,2.220539,0.023212,-0.037873,0.019547
2026-03-04T19:05:57.535692,0.622133,-9.829715,2.230110,0.024434,-0.041538,0.020769
2026-03-04T19:05:57.545692,0.559920,-9.834500,2.254038,0.019547,-0.043982,0.024434
2026-03-04T19:05:57.554692,0.602991,-9.729216,2.201396,0.012217,-0.042760,0.026878
2026-03-04T19:05:57.564692,0.669990,-9.934999,2.301895,-0.001221,-0.042760,0.026878
2026-03-04T19:05:57.574692,0.598205,-9.824929,2.311466,0.002443,-0.032986,0.025656
2026-03-04T19:05:57.583692,0.583848,-9.781858,2.220539,-0.006108,-0.028099,0.026878
2026-03-04T19:05:57.593692,0.579063,-9.791430,2.254038,-0.002443,-0.029321,0.025656
2026-03-04T19:05:57.602692,0.583848,-9.801001,2.206182,-0.004886,-0.029321,0.021991
2026-03-04T19:05:57.612692,0.593420,-9.844072,2.254038,0.001221,-0.028099,0.020769
2026-03-04T19:05:57.622692,0.626919,-9.868000,2.206182,0.007330,-0.029321,0.019547
2026-03-04T19:05:57.631692,0.660419,-9.839286,2.230110,0.007330,-0.024434,0.019547
2026-03-04T19:05:57.641692,0.631705,-9.858429,2.163111,0.008552,-0.023212,0.019547
2026-03-04T19:05:57.651692,0.559920,-9.848857,2.182254,0.009773,-0.023212,0.021991
2026-03-04T19:05:57.660692,0.545563,-9.834500,2.182254,0.009773,-0.020769,0.021991
2026-03-04T19:05:57.670692,0.545563,-9.786644,2.153540,0.019547,-0.017104,0.020769
2026-03-04T19:05:57.679692,0.526420,-9.848857,2.096112,0.019547,-0.020769,0.019547
2026-03-04T19:05:57.689692,0.521635,-9.820143,2.129612,0.015882,-0.029321,0.019547
2026-03-04T19:05:57.699692,0.583848,-9.791430,2.115255,0.013439,-0.039095,0.018325
2026-03-04T19:05:57.708692,0.588634,-9.853643,2.129612,0.010995,-0.042760,0.019547
2026-03-04T19:05:57.718692,0.626919,-9.844072,2.215753,0.012217,-0.041538,0.020769
2026-03-04T19:05:57.727692,0.631705,-9.858429,2.220539,0.013439,-0.037873,0.020769
2026-03-04T19:05:57.737692,0.588634,-9.844072,2.167897,0.009773,-0.037873,0.023212
2026-03-04T19:05:57.747692,0.555134,-9.781858,2.158325,0.007330,-0.039095,0.025656
2026-03-04T19:05:57.756692,0.535992,-9.786644,2.153540,0.006108,-0.039095,0.026878
2026-03-04T19:05:57.766692,0.555134,-9.796215,2.067398,0.010995,-0.039095,0.023212
2026-03-04T19:05:57.776692,0.516849,-9.820143,2.115255,0.018325,-0.046425,0.025656
2026-03-04T19:05:57.785692,0.593420,-9.801001,2.206182,0.021991,-0.052534,0.025656
2026-03-04T19:05:57.795692,0.626919,-9.810572,2.196611,0.021991,-0.048869,0.024434
2026-03-04T19:05:57.804692,0.593420,-9.815358,2.177468,0.024434,-0.047647,0.023212
2026-03-04T19:05:57.814692,0.579063,-9.834500,2.177468,0.025656,-0.048869,0.021991
2026-03-04T19:05:57.824692,0.555134,-9.791430,2.201396,0.024434,-0.047647,0.019547
2026-03-04T19:05:57.833692,0.579063,-9.762716,2.239681,0.024434,-0.051312,0.021991
2026-03-04T19:05:57.843692,0.593420,-9.734002,2.268395,0.020769,-0.048869,0.020769
2026-03-04T19:05:57.852692,0.598205,-9.796215,2.263610,0.019547,-0.042760,0.018325
2026-03-04T19:05:57.862692,0.540777,-9.781858,2.215753,0.014660,-0.037873,0.015882
2026-03-04T19:05:57.872692,0.569491,-9.829715,2.143969,0.015882,-0.037873,0.017104
2026-03-04T19:05:57.881692,0.559920,-9.868000,2.120040,0.019547,-0.036651,0.014660
2026-03-04T19:05:57.891692,0.617348,-9.815358,2.053041,0.025656,-0.040317,0.017104
2026-03-04T19:05:57.901692,0.579063,-9.844072,2.220539,0.028099,-0.047647,0.017104
2026-03-04T19:05:57.910692,0.617348,-9.805787,2.263610,0.023212,-0.050090,0.018325
2026-03-04T19:05:57.920692,0.650847,-9.791430,2.325823,0.021991,-0.046425,0.015882
2026-03-04T19:05:57.929692,0.550349,-9.796215,2.206182,0.019547,-0.043982,0.017104
2026-03-04T19:05:57.939692,0.583848,-9.848857,2.282752,0.018325,-0.041538,0.017104
2026-03-04T19:05:57.949692,0.602991,-9.767501,2.196611,0.013439,-0.040317,0.015882
2026-03-04T19:05:57.958692,0.588634,-9.853643,2.163111,0.010995,-0.040317,0.015882
2026-03-04T19:05:57.968692,0.559920,-9.882357,2.143969,0.012217,-0.042760,0.018325
2026-03-04T19:05:57.977692,0.569491,-9.858429,2.187039,0.012217,-0.043982,0.020769
2026-03-04T19:05:57.987692,0.531206,-9.820143,2.134397,0.014660,-0.040317,0.018325
2026-03-04T19:05:57.997692,0.622133,-9.791430,2.182254,0.015882,-0.041538,0.018325
2026-03-04T19:05:58.006692,0.564706,-9.868000,2.277967,0.015882,-0.041538,0.014660
2026-03-04T19:05:58.016692,0.574277,-9.767501,2.230110,0.015882,-0.040317,0.015882
2026-03-04T19:05:58.026692,0.598205,-9.810572,2.158325,0.020769,-0.040317,0.015882
2026-03-04T19:05:58.035692,0.550349,-9.805787,2.158325,0.020769,-0.043982,0.014660
2026-03-04T19:05:58.045692,0.555134,-9.839286,2.225325,0.018325,-0.045204,0.015882
2026-03-04T19:05:58.054692,0.583848,-9.734002,2.158325,0.020769,-0.042760,0.014660
2026-03-04T19:05:58.064692,0.531206,-9.844072,2.187039,0.021991,-0.041538,0.013439
2026-03-04T19:05:58.074692,0.602991,-9.805787,2.172682,0.015882,-0.042760,0.014660
2026-03-04T19:05:58.083692,0.564706,-9.887142,2.282752,0.019547,-0.045204,0.014660
2026-03-04T19:05:58.093692,0.583848,-9.820143,2.249253,0.017104,-0.043982,0.017104
2026-03-04T19:05:58.102692,0.598205,-9.786644,2.196611,0.015882,-0.045204,0.015882
2026-03-04T19:05:58.112692,0.602991,-9.820143,2.201396,0.013439,-0.041538,0.014660
2026-03-04T19:05:58.122692,0.593420,-9.810572,2.191825,0.017104,-0.041538,0.014660
2026-03-04T19:05:58.131692,0.555134,-9.839286,2.120040,0.017104,-0.046425,0.021991
2026-03-04T19:05:58.141692,0.545563,-9.791430,2.187039,0.020769,-0.045204,0.017104
2026-03-04T19:05:58.151692,0.545563,-9.863214,2.110469,0.023212,-0.042760,0.015882
2026-03-04T19:05:58.160692,0.540777,-9.834500,2.134397,0.023212,-0.042760,0.014660
2026-03-04T19:05:58.170692,0.650847,-9.820143,2.263610,0.023212,-0.046425,0.015882
2026-03-04T19:05:58.179692,0.569491,-9.848857,2.182254,0.021991,-0.048869,0.017104
2026-03-04T19:05:58.189692,0.569491,-9.829715,2.163111,0.018325,-0.046425,0.018325
2026-03-04T19:05:58.199692,0.569491,-9.791430,2.287538,0.019547,-0.047647,0.019547
2026-03-04T19:05:58.208692,0.622133,-9.801001,2.182254,0.017104,-0.046425,0.015882
2026-03-04T19:05:58.218692,0.531206,-9.801001,2.230110,0.014660,-0.045204,0.015882
2026-03-04T19:05:58.227692,0.602991,-9.839286,2.182254,0.014660,-0.046425,0.018325
2026-03-04T19:05:58.237692,0.593420,-9.853643,2.210968,0.014660,-0.043982,0.017104
2026-03-04T19:05:58.247692,0.626919,-9.810572,2.187039,0.017104,-0.040317,0.015882
2026-03-04T19:05:58.256692,0.535992,-9.848857,2.124826,0.018325,-0.040317,0.018325
2026-03-04T19:05:58.266692,0.574277,-9.810572,2.153540,0.018325,-0.041538,0.017104
2026-03-04T19:05:58.276692,0.545563,-9.829715,2.206182,0.020769,-0.041538,0.017104
2026-03-04T19:05:58.285692,0.579063,-9.772287,2.172682,0.020769,-0.043982,0.018325
2026-03-04T19:05:58.295692,0.598205,-9.872786,2.167897,0.018325,-0.047647,0.018325
2026-03-04T19:05:58.304692,0.488135,-9.781858,2.177468,0.015882,-0.047647,0.015882
2026-03-04T19:05:58.314692,0.574277,-9.824929,2.249253,0.019547,-0.047647,0.017104
2026-03-04T19:05:58.324692,0.602991,-9.805787,2.177468,0.018325,-0.042760,0.018325
2026-03-04T19:05:58.333692,0.598205,-9.863214,2.196611,0.015882,-0.043982,0.017104
2026-03-04T19:05:58.343692,0.555134,-9.834500,2.182254,0.018325,-0.045204,0.015882
2026-03-04T19:05:58.352692,0.574277,-9.791430,2.177468,0.017104,-0.042760,0.017104
2026-03-04T19:05:58.362692,0.588634,-9.848857,2.148754,0.015882,-0.042760,0.018325
2026-03-04T19:05:58.372692,0.574277,-9.829715,2.172682,0.015882,-0.045204,0.017104
2026-03-04T19:05:58.381692,0.559920,-9.796215,2.210968,0.019547,-0.043982,0.017104
2026-03-04T19:05:58.391692,0.540777,-9.853643,2.177468,0.017104,-0.041538,0.017104
2026-03-04T19:05:58.401692,0.598205,-9.858429,2.153540,0.015882,-0.041538,0.015882
2026-03-04T19:05:58.410692,0.564706,-9.748359,2.201396,0.013439,-0.043982,0.017104
2026-03-04T19:05:58.420692,0.550349,-9.824929,2.196611,0.012217,-0.047647,0.017104
2026-03-04T19:05:58.429692,0.593420,-9.853643,2.230110,0.012217,-0.046425,0.019547
2026-03-04T19:05:58.439692,0.598205,-9.786644,2.148754,0.013439,-0.042760,0.017104
2026-03-04T19:05:58.449692,0.564706,-9.801001,2.201396,0.012217,-0.042760,0.014660
2026-03-04T19:05:58.458692,0.559920,-9.853643,2.206182,0.010995,-0.041538,0.018325
2026-03-04T19:05:58.468692,0.598205,-9.858429,2.187039,0.010995,-0.041538,0.018325
2026-03-04T19:05:58.477692,0.550349,-9.853643,2.120040,0.010995,-0.040317,0.017104
2026-03-04T19:05:58.487692,0.588634,-9.748359,2.172682,0.012217,-0.040317,0.017104
2026-03-04T19:05:58.497692,0.588634,-9.796215,2.105683,0.014660,-0.042760,0.017104
2026-03-04T19:05:58.506692,0.531206,-9.877571,2.167897,0.015882,-0.043982,0.017104
2026-03-04T19:05:58.516692,0.598205,-9.853643,2.220539,0.015882,-0.042760,0.014660
2026-03-04T19:05:58.526692,0.602991,-9.772287,2.172682,0.015882,-0.043982,0.015882
2026-03-04T19:05:58.535692,0.593420,-9.805787,2.187039,0.013439,-0.042760,0.018325
2026-03-04T19:05:58.545692,0.612562,-9.820143,2.167897,0.014660,-0.042760,0.018325
2026-03-04T19:05:58.554692,0.622133,-9.753144,2.191825,0.013439,-0.039095,0.015882
2026-03-04T19:05:58.564692,0.535992,-9.810572,2.191825,0.013439,-0.036651,0.017104
2026-03-04T19:05:58.574692,0.540777,-9.853643,2.158325,0.013439,-0.039095,0.017104
2026-03-04T19:05:58.583692,0.569491,-9.834500,2.163111,0.013439,-0.041538,0.018325
2026-03-04T19:05:58.593692,0.583848,-9.834500,2.120040,0.012217,-0.040317,0.018325
2026-03-04T19:05:58.602692,0.612562,-9.853643,2.167897,0.013439,-0.041538,0.018325
2026-03-04T19:05:58.612692,0.626919,-9.839286,2.230110,0.013439,-0.042760,0.018325
2026-03-04T19:05:58.622692,0.555134,-9.858429,2.158325,0.014660,-0.040317,0.018325
2026-03-04T19:05:58.631692,0.564706,-9.829715,2.172682,0.013439,-0.037873,0.015882
2026-03-04T19:05:58.641692,0.617348,-9.848857,2.167897,0.013439,-0.037873,0.013439
2026-03-04T19:05:58.651692,0.545563,-9.820143,2.172682,0.014660,-0.040317,0.017104
2026-03-04T19:05:58.660692,0.574277,-9.820143,2.158325,0.013439,-0.041538,0.019547
2026-03-04T19:05:58.670692,0.607776,-9.829715,2.148754,0.015882,-0.040317,0.018325
2026-03-04T19:05:58.679692,0.617348,-9.810572,2.129612,0.015882,-0.039095,0.017104
2026-03-04T19:05:58.689692,0.569491,-9.858429,2.191825,0.015882,-0.039095,0.017104
2026-03-04T19:05:58.699692,0.569491,-9.820143,2.115255,0.017104,-0.037873,0.015882
2026-03-04T19:05:58.708692,0.598205,-9.844072,2.148754,0.018325,-0.039095,0.015882
2026-03-04T19:05:58.718692,0.550349,-9.887142,2.158325,0.019547,-0.041538,0.015882
2026-03-04T19:05:58.727692,0.598205,-9.786644,2.191825,0.018325,-0.039095,0.017104
2026-03-04T19:05:58.737692,0.593420,-9.858429,2.196611,0.015882,-0.037873,0.019547
2026-03-04T19:05:58.747692,0.583848,-9.786644,2.210968,0.009773,-0.036651,0.020769
2026-03-04T19:05:58.756692,0.564706,-9.801001,2.206182,0.007330,-0.036651,0.018325
2026-03-04T19:05:58.766692,0.602991,-9.815358,2.134397,0.003665,-0.036651,0.018325
2026-03-04T19:05:58.776692,0.555134,-9.805787,2.182254,0.003665,-0.035430,0.020769
2026-03-04T19:05:58.785692,0.617348,-9.882357,2.110469,0.002443,-0.034208,0.017104
2026-03-04T19:05:58.795692,0.579063,-9.848857,2.072184,0.009773,-0.034208,0.018325
2026-03-04T19:05:58.804692,0.526420,-9.839286,2.105683,0.013439,-0.037873,0.017104
2026-03-04T19:05:58.814692,0.607776,-9.882357,2.086541,0.012217,-0.041538,0.020769
2026-03-04T19:05:58.824692,0.531206,-9.820143,2.167897,0.015882,-0.040317,0.018325
2026-03-04T19:05:58.833692,0.550349,-9.829715,2.134397,0.018325,-0.042760,0.018325
2026-03-04T19:05:58.843692,0.574277,-9.824929,2.158325,0.019547,-0.042760,0.018325
2026-03-04T19:05:58.852692,0.598205,-9.810572,2.129612,0.018325,-0.045204,0.015882
2026-03-04T19:05:58.862692,0.588634,-9.863214,2.172682,0.019547,-0.042760,0.015882
2026-03-04T19:05:58.872692,0.550349,-9.891928,2.120040,0.023212,-0.041538,0.015882
2026-03-04T19:05:58.881692,0.612562,-9.805787,2.158325,0.021991,-0.042760,0.017104
2026-03-04T19:05:58.891692,0.564706,-9.844072,2.163111,0.021991,-0.043982,0.015882
2026-03-04T19:05:58.901692,0.617348,-9.839286,2.139183,0.021991,-0.045204,0.018325
2026-03-04T19:05:58.910692,0.641276,-9.801001,2.163111,0.021991,-0.043982,0.015882
2026-03-04T19:05:58.920692,0.588634,-9.791430,2.129612,0.023212,-0.041538,0.017104
2026-03-04T19:05:58.929692,0.607776,-9.810572,2.129612,0.026878,-0.045204,0.017104
2026-03-04T19:05:58.939692,0.516849,-9.801001,2.153540,0.024434,-0.046425,0.015882
2026-03-04T19:05:58.949692,0.574277,-9.872786,2.215753,0.023212,-0.043982,0.017104
2026-03-04T19:05:58.958692,0.564706,-9.815358,2.158325,0.023212,-0.042760,0.017104
2026-03-04T19:05:58.968692,0.555134,-9.844072,2.182254,0.024434,-0.043982,0.015882
2026-03-04T19:05:58.977692,0.545563,-9.829715,2.191825,0.024434,-0.045204,0.017104
2026-03-04T19:05:58.987692,0.602991,-9.820143,2.091326,0.025656,-0.042760,0.015882
2026-03-04T19:05:58.997692,0.535992,-9.815358,2.177468,0.023212,-0.040317,0.015882
2026-03-04T19:05:59.006692,0.564706,-9.839286,2.143969,0.024434,-0.042760,0.017104
2026-03-04T19:05:59.016692,0.545563,-9.820143,2.187039,0.021991,-0.042760,0.017104
2026-03-04T19:05:59.026692,0.665204,-9.777073,2.201396,0.018325,-0.040317,0.018325
2026-03-04T19:05:59.035692,0.588634,-9.844072,2.196611,0.015882,-0.043982,0.020769
2026-03-04T19:05:59.045692,0.574277,-9.801001,2.182254,0.015882,-0.045204,0.019547
2026-03-04T19:05:59.054692,0.612562,-9.820143,2.139183,0.012217,-0.043982,0.019547
2026-03-04T19:05:59.064692,0.569491,-9.786644,2.158325,0.012217,-0.042760,0.018325
2026-03-04T19:05:59.074692,0.555134,-9.887142,2.177468,0.008552,-0.040317,0.018325
2026-03-04T19:05:59.083692,0.593420,-9.848857,2.110469,0.013439,-0.041538,0.017104
2026-03-04T19:05:59.093692,0.545563,-9.848857,2.158325,0.014660,-0.041538,0.018325
2026-03-04T19:05:59.102692,0.598205,-9.801001,2.129612,0.012217,-0.041538,0.018325
2026-03-04T19:05:59.112692,0.569491,-9.805787,2.167897,0.014660,-0.041538,0.019547
2026-03-04T19:05:59.122692,0.550349,-9.863214,2.158325,0.015882,-0.043982,0.017104
2026-03-04T19:05:59.131692,0.535992,-9.848857,2.201396,0.015882,-0.045204,0.017104
2026-03-04T19:05:59.141692,0.550349,-9.872786,2.172682,0.014660,-0.043982,0.015882
2026-03-04T19:05:59.151692,0.569491,-9.820143,2.143969,0.015882,-0.042760,0.014660
2026-03-04T19:05:59.160692,0.559920,-9.824929,2.134397,0.017104,-0.041538,0.017104
2026-03-04T19:05:59.170692,0.555134,-9.858429,2.191825,0.018325,-0.043982,0.014660
2026-03-04T19:05:59.179692,0.583848,-9.872786,2.153540,0.018325,-0.043982,0.014660
2026-03-04T19:05:59.189692,0.602991,-9.839286,2.134397,0.020769,-0.041538,0.017104
2026-03-04T19:05:59.199692,0.626919,-9.810572,2.196611,0.019547,-0.042760,0.018325
2026-03-04T19:05:59.208692,0.598205,-9.805787,2.187039,0.015882,-0.041538,0.019547
2026-03-04T19:05:59.218692,0.607776,-9.820143,2.215753,0.012217,-0.040317,0.018325
2026-03-04T19:05:59.227692,0.535992,-9.810572,2.134397,0.012217,-0.040317,0.015882
2026-03-04T19:05:59.237692,0.550349,-9.786644,2.182254,0.010995,-0.041538,0.014660
2026-03-04T19:05:59.247692,0.574277,-9.848857,2.115255,0.012217,-0.043982,0.014660
2026-03-04T19:05:59.256692,0.588634,-9.896714,2.110469,0.017104,-0.045204,0.014660
2026-03-04T19:05:59.266692,0.579063,-9.834500,2.124826,0.021991,-0.043982,0.018325
2026-03-04T19:05:59.276692,0.540777,-9.824929,2.167897,0.023212,-0.045204,0.015882
2026-03-04T19:05:59.285692,0.545563,-9.815358,2.153540,0.020769,-0.045204,0.015882
2026-03-04T19:05:59.295692,0.569491,-9.815358,2.244467,0.021991,-0.045204,0.015882
2026-03-04T19:05:59.304692,0.602991,-9.724431,2.201396,0.017104,-0.041538,0.013439
2026-03-04T19:05:59.314692,0.569491,-9.815358,2.134397,0.014660,-0.037873,0.014660
2026-03-04T19:05:59.324692,0.588634,-9.820143,2.143969,0.012217,-0.036651,0.012217
2026-03-04T19:05:59.333692,0.569491,-9.868000,2.143969,0.014660,-0.039095,0.012217
2026-03-04T19:05:59.343692,0.559920,-9.820143,2.124826,0.020769,-0.039095,0.013439
2026-03-04T19:05:59.352692,0.540777,-9.882357,2.062613,0.028099,-0.042760,0.013439
2026-03-04T19:05:59.362692,0.545563,-9.863214,2.033899,0.035430,-0.042760,0.010995
2026-03-04T19:05:59.372692,0.497707,-9.781858,2.148754,0.040317,-0.048869,0.013439
2026-03-04T19:05:59.381692,0.545563,-9.815358,2.139183,0.037873,-0.051312,0.013439
2026-03-04T19:05:59.391692,0.622133,-9.781858,2.172682,0.036651,-0.053756,0.013439
2026-03-04T19:05:59.401692,0.588634,-9.834500,2.225325,0.030543,-0.053756,0.015882
2026-03-04T19:05:59.410692,0.535992,-9.824929,2.210968,0.025656,-0.046425,0.014660
2026-03-04T19:05:59.420692,0.559920,-9.815358,2.254038,0.021991,-0.039095,0.012217
2026-03-04T19:05:59.429692,0.617348,-9.815358,2.163111,0.013439,-0.036651,0.012217
2026-03-04T19:05:59.439692,0.574277,-9.844072,2.143969,0.015882,-0.035430,0.012217
2026-03-04T19:05:59.449692,0.555134,-9.805787,2.100898,0.018325,-0.039095,0.013439
2026-03-04T19:05:59.458692,0.531206,-9.839286,2.100898,0.023212,-0.041538,0.012217
2026-03-04T19:05:59.468692,0.550349,-9.934999,2.067398,0.028099,-0.042760,0.010995
2026-03-04T19:05:59.477692,0.564706,-9.848857,2.177468,0.037873,-0.048869,0.013439
2026-03-04T19:05:59.487692,0.564706,-9.868000,2.201396,0.039095,-0.051312,0.014660
2026-03-04T19:05:59.497692,0.583848,-9.820143,2.124826,0.037873,-0.050090,0.012217
2026-03-04T19:05:59.506692,0.535992,-9.834500,2.134397,0.036651,-0.056199,0.012217
2026-03-04T19:05:59.516692,0.569491,-9.810572,2.292324,0.035430,-0.056199,0.014660
2026-03-04T19:05:59.526692,0.698704,-9.824929,2.273181,0.029321,-0.051312,0.013439
2026-03-04T19:05:59.535692,0.593420,-9.805787,2.234896,0.021991,-0.041538,0.010995
2026-03-04T19:05:59.545692,0.531206,-9.805787,2.201396,0.017104,-0.039095,0.012217
2026-03-04T19:05:59.554692,0.559920,-9.805787,2.239681,0.014660,-0.041538,0.012217
2026-03-04T19:05:59.564692,0.559920,-9.781858,2.148754,0.007330,-0.039095,0.013439
2026-03-04T19:05:59.574692,0.559920,-9.863214,2.115255,0.006108,-0.040317,0.014660
2026-03-04T19:05:59.583692,0.583848,-9.891928,2.163111,0.010995,-0.040317,0.015882
2026-03-04T19:05:59.593692,0.612562,-9.868000,2.134397,0.013439,-0.040317,0.014660
2026-03-04T19:05:59.602692,0.598205,-9.834500,2.139183,0.015882,-0.039095,0.017104
2026-03-04T19:05:59.612692,0.602991,-9.810572,2.158325,0.017104,-0.039095,0.014660
2026-03-04T19:05:59.622692,0.607776,-9.829715,2.110469,0.018325,-0.041538,0.013439
2026-03-04T19:05:59.631692,0.574277,-9.834500,2.115255,0.019547,-0.043982,0.013439
2026-03-04T19:05:59.641692,0.555134,-9.844072,2.153540,0.019547,-0.045204,0.015882
2026-03-04T19:05:59.651692,0.569491,-9.853643,2.120040,0.019547,-0.046425,0.013439
2026-03-04T19:05:59.660692,0.602991,-9.829715,2.124826,0.020769,-0.046425,0.013439
2026-03-04T19:05:59.670692,0.583848,-9.829715,2.234896,0.020769,-0.045204,0.013439
2026-03-04T19:05:59.679692,0.574277,-9.824929,2.225325,0.020769,-0.045204,0.014660
2026-03-04T19:05:59.689692,0.660419,-9.868000,2.148754,0.018325,-0.043982,0.015882
2026-03-04T19:05:59.699692,0.555134,-9.844072,2.148754,0.021991,-0.043982,0.014660
2026-03-04T19:05:59.708692,0.593420,-9.777073,2.177468,0.024434,-0.045204,0.014660
2026-03-04T19:05:59.718692,0.564706,-9.820143,2.153540,0.023212,-0.043982,0.017104
2026-03-04T19:05:59.727692,0.636490,-9.858429,2.148754,0.023212,-0.043982,0.015882
2026-03-04T19:05:59.737692,0.617348,-9.820143,2.158325,0.024434,-0.043982,0.014660
2026-03-04T19:05:59.747692,0.617348,-9.911071,2.196611,0.026878,-0.042760,0.013439
2026-03-04T19:05:59.756692,0.588634,-9.834500,2.115255,0.028099,-0.045204,0.014660
2026-03-04T19:05:59.766692,0.579063,-9.868000,2.139183,0.025656,-0.046425,0.017104
2026-03-04T19:05:59.776692,0.612562,-9.853643,2.230110,0.023212,-0.046425,0.015882
2026-03-04T19:05:59.785692,0.593420,-9.810572,2.254038,0.020769,-0.042760,0.014660
2026-03-04T19:05:59.795692,0.602991,-9.753144,2.172682,0.015882,-0.039095,0.015882
2026-03-04T19:05:59.804692,0.569491,-9.839286,2.206182,0.015882,-0.040317,0.014660
2026-03-04T19:05:59.814692,0.555134,-9.863214,2.177468,0.012217,-0.041538,0.015882
2026-03-04T19:05:59.824692,0.555134,-9.863214,2.096112,0.017104,-0.036651,0.014660
2026-03-04T19:05:59.833692,0.559920,-9.810572,2.038684,0.018325,-0.037873,0.013439
2026-03-04T19:05:59.843692,0.512064,-9.824929,2.143969,0.021991,-0.046425,0.015882
2026-03-04T19:05:59.852692,0.646062,-9.810572,2.163111,0.023212,-0.047647,0.014660
2026-03-04T19:05:59.862692,0.607776,-9.801001,2.153540,0.023212,-0.043982,0.015882
2026-03-04T19:05:59.872692,0.559920,-9.844072,2.206182,0.025656,-0.046425,0.019547
2026-03-04T19:05:59.881692,0.559920,-9.815358,2.191825,0.023212,-0.046425,0.017104
2026-03-04T19:05:59.891692,0.598205,-9.834500,2.187039,0.019547,-0.042760,0.017104
2026-03-04T19:05:59.901692,0.593420,-9.829715,2.191825,0.018325,-0.041538,0.017104
2026-03-04T19:05:59.910692,0.574277,-9.853643,2.187039,0.020769,-0.040317,0.017104
2026-03-04T19:05:59.920692,0.569491,-9.805787,2.148754,0.018325,-0.040317,0.017104
2026-03-04T19:05:59.929692,0.550349,-9.891928,2.172682,0.017104,-0.040317,0.018325
2026-03-04T19:05:59.939692,0.526420,-9.805787,2.196611,0.019547,-0.040317,0.017104
2026-03-04T19:05:59.949692,0.569491,-9.834500,2.124826,0.019547,-0.040317,0.017104
2026-03-04T19:05:59.958692,0.569491,-9.772287,2.076970,0.023212,-0.041538,0.014660
2026-03-04T19:05:59.968692,0.545563,-9.848857,2.096112,0.024434,-0.046425,0.017104
2026-03-04T19:05:59.977692,0.622133,-9.853643,2.196611,0.024434,-0.051312,0.015882
2026-03-04T19:05:59.987692,0.622133,-9.824929,2.163111,0.025656,-0.048869,0.017104
2026-03-04T19:05:59.997692,0.631705,-9.834500,2.182254,0.020769,-0.045204,0.017104
2026-03-04T19:06:00.006692,0.622133,-9.868000,2.182254,0.020769,-0.042760,0.014660
2026-03-04T19:06:00.016692,0.583848,-9.872786,2.182254,0.020769,-0.042760,0.013439
2026-03-04T19:06:00.026692,0.598205,-9.786644,2.201396,0.018325,-0.045204,0.014660
2026-03-04T19:06:00.035692,0.636490,-9.801001,2.163111,0.018325,-0.041538,0.015882
2026-03-04T19:06:00.045692,0.593420,-9.815358,2.134397,0.019547,-0.039095,0.015882
2026-03-04T19:06:00.054692,0.569491,-9.848857,2.172682,0.017104,-0.039095,0.017104
2026-03-04T19:06:00.064692,0.526420,-9.762716,2.158325,0.020769,-0.041538,0.014660
2026-03-04T19:06:00.074692,0.516849,-9.882357,2.134397,0.021991,-0.045204,0.015882
2026-03-04T19:06:00.083692,0.588634,-9.844072,2.191825,0.021991,-0.045204,0.017104
2026-03-04T19:06:00.093692,0.646062,-9.839286,2.215753,0.023212,-0.043982,0.017104
2026-03-04T19:06:00.102692,0.583848,-9.839286,2.187039,0.019547,-0.043982,0.017104
2026-03-04T19:06:00.112692,0.583848,-9.801001,2.182254,0.017104,-0.039095,0.015882
2026-03-04T19:06:00.122692,0.559920,-9.848857,2.158325,0.014660,-0.039095,0.015882
2026-03-04T19:06:00.131692,0.564706,-9.815358,2.148754,0.017104,-0.042760,0.014660
2026-03-04T19:06:00.141692,0.588634,-9.858429,2.124826,0.017104,-0.045204,0.017104
2026-03-04T19:06:00.151692,0.593420,-9.848857,2.153540,0.018325,-0.042760,0.017104
2026-03-04T19:06:00.160692,0.588634,-9.834500,2.182254,0.020769,-0.045204,0.018325
2026-03-04T19:06:00.170692,0.617348,-9.796215,2.196611,0.019547,-0.045204,0.017104
2026-03-04T19:06:00.179692,0.622133,-9.839286,2.129612,0.018325,-0.043982,0.014660
2026-03-04T19:06:00.189692,0.588634,-9.896714,2.110469,0.020769,-0.041538,0.014660
2026-03-04T19:06:00.199692,0.559920,-9.848857,2.129612,0.020769,-0.043982,0.013439
2026-03-04T19:06:00.208692,0.593420,-9.896714,2.129612,0.021991,-0.045204,0.015882
2026-03-04T19:06:00.218692,0.655633,-9.815358,2.167897,0.020769,-0.047647,0.017104
2026-03-04T19:06:00.227692,0.607776,-9.719645,2.225325,0.020769,-0.046425,0.015882
2026-03-04T19:06:00.237692,0.660419,-9.786644,2.120040,0.020769,-0.042760,0.013439
2026-03-04T19:06:00.247692,0.602991,-9.915856,2.139183,0.020769,-0.040317,0.010995
2026-03-04T19:06:00.256692,0.602991,-9.829715,2.143969,0.024434,-0.045204,0.013439
2026-03-04T19:06:00.266692,0.579063,-9.896714,2.196611,0.024434,-0.043982,0.014660
2026-03-04T19:06:00.276692,0.626919,-9.781858,2.225325,0.024434,-0.041538,0.014660
2026-03-04T19:06:00.285692,0.569491,-9.863214,2.172682,0.025656,-0.040317,0.013439
2026-03-04T19:06:00.295692,0.545563,-9.805787,2.124826,0.025656,-0.043982,0.013439
2026-03-04T19:06:00.304692,0.550349,-9.801001,2.187039,0.023212,-0.045204,0.013439
2026-03-04T19:06:00.314692,0.574277,-9.815358,2.163111,0.020769,-0.043982,0.014660
2026-03-04T19:06:00.324692,0.583848,-9.839286,2.220539,0.017104,-0.042760,0.013439
2026-03-04T19:06:00.333692,0.540777,-9.805787,2.143969,0.015882,-0.039095,0.015882
2026-03-04T19:06:00.343692,0.555134,-9.868000,2.172682,0.013439,-0.042760,0.017104
2026-03-04T19:06:00.352692,0.574277,-9.786644,2.201396,0.013439,-0.046425,0.018325
2026-03-04T19:06:00.362692,0.574277,-9.815358,2.172682,0.012217,-0.043982,0.017104
2026-03-04T19:06:00.372692,0.617348,-9.829715,2.153540,0.012217,-0.041538,0.015882
2026-03-04T19:06:00.381692,0.588634,-9.848857,2.230110,0.014660,-0.043982,0.018325
2026-03-04T19:06:00.391692,0.602991,-9.791430,2.167897,0.013439,-0.042760,0.018325
2026-03-04T19:06:00.401692,0.574277,-9.839286,2.139183,0.019547,-0.041538,0.015882
2026-03-04T19:06:00.410692,0.636490,-9.796215,2.201396,0.021991,-0.043982,0.015882
2026-03-04T19:06:00.420692,0.593420,-9.858429,2.191825,0.020769,-0.040317,0.017104
2026-03-04T19:06:00.429692,0.574277,-9.810572,2.124826,0.019547,-0.041538,0.015882
2026-03-04T19:06:00.439692,0.593420,-9.858429,2.158325,0.020769,-0.043982,0.015882
2026-03-04T19:06:00.449692,0.593420,-9.834500,2.134397,0.023212,-0.046425,0.015882
2026-03-04T19:06:00.458692,0.579063,-9.805787,2.115255,0.024434,-0.050090,0.015882
2026-03-04T19:06:00.468692,0.574277,-9.820143,2.172682,0.021991,-0.046425,0.017104
2026-03-04T19:06:00.477692,0.684347,-9.810572,2.196611,0.021991,-0.043982,0.017104
2026-03-04T19:06:00.487692,0.550349,-9.801001,2.158325,0.021991,-0.043982,0.017104
2026-03-04T19:06:00.497692,0.607776,-9.834500,2.191825,0.020769,-0.041538,0.012217
2026-03-04T19:06:00.506692,0.588634,-9.805787,2.172682,0.017104,-0.040317,0.015882
2026-03-04T19:06:00.516692,0.617348,-9.762716,2.201396,0.018325,-0.041538,0.017104
2026-03-04T19:06:00.526692,0.540777,-9.824929,2.182254,0.017104,-0.040317,0.014660
2026-03-04T19:06:00.535692,0.631705,-9.824929,2.115255,0.015882,-0.041538,0.014660
2026-03-04T19:06:00.545692,0.593420,-9.848857,2.143969,0.017104,-0.042760,0.014660
2026-03-04T19:06:00.554692,0.564706,-9.810572,2.139183,0.020769,-0.042760,0.013439
2026-03-04T19:06:00.564692,0.593420,-9.829715,2.167897,0.023212,-0.042760,0.014660
2026-03-04T19:06:00.574692,0.583848,-9.824929,2.196611,0.021991,-0.043982,0.014660
2026-03-04T19:06:00.583692,0.550349,-9.824929,2.172682,0.019547,-0.043982,0.013439
2026-03-04T19:06:00.593692,0.579063,-9.767501,2.105683,0.021991,-0.045204,0.015882
2026-03-04T19:06:00.602692,0.564706,-9.801001,2.191825,0.020769,-0.046425,0.017104
2026-03-04T19:06:00.612692,0.569491,-9.786644,2.163111,0.020769,-0.047647,0.019547
2026-03-04T19:06:00.622692,0.602991,-9.834500,2.124826,0.018325,-0.046425,0.017104
2026-03-04T19:06:00.631692,0.626919,-9.815358,2.148754,0.017104,-0.045204,0.019547
2026-03-04T19:06:00.641692,0.555134,-9.781858,2.191825,0.017104,-0.045204,0.018325
2026-03-04T19:06:00.651692,0.626919,-9.815358,2.167897,0.017104,-0.042760,0.014660
2026-03-04T19:06:00.660692,0.593420,-9.815358,2.115255,0.018325,-0.042760,0.015882
2026-03-04T19:06:00.670692,0.622133,-9.824929,2.139183,0.018325,-0.043982,0.017104
2026-03-04T19:06:00.679692,0.569491,-9.858429,2.210968,0.018325,-0.043982,0.017104
2026-03-04T19:06:00.689692,0.612562,-9.858429,2.158325,0.015882,-0.039095,0.015882
2026-03-04T19:06:00.699692,0.579063,-9.767501,2.129612,0.017104,-0.043982,0.017104
2026-03-04T19:06:00.708692,0.622133,-9.820143,2.163111,0.018325,-0.045204,0.018325
2026-03-04T19:06:00.718692,0.598205,-9.791430,2.129612,0.017104,-0.042760,0.017104
2026-03-04T19:06:00.727692,0.588634,-9.834500,2.153540,0.019547,-0.043982,0.015882
2026-03-04T19:06:00.737692,0.574277,-9.805787,2.163111,0.019547,-0.046425,0.017104
2026-03-04T19:06:00.747692,0.665204,-9.786644,2.177468,0.018325,-0.043982,0.018325
2026-03-04T19:06:00.756692,0.602991,-9.820143,2.172682,0.018325,-0.043982,0.019547
2026-03-04T19:06:00.766692,0.602991,-9.872786,2.148754,0.018325,-0.042760,0.017104
2026-03-04T19:06:00.776692,0.569491,-9.805787,2.134397,0.018325,-0.040317,0.015882
2026-03-04T19:06:00.785692,0.579063,-9.844072,2.124826,0.015882,-0.043982,0.015882
2026-03-04T19:06:00.795692,0.564706,-9.848857,2.143969,0.018325,-0.046425,0.017104
2026-03-04T19:06:00.804692,0.574277,-9.844072,2.206182,0.021991,-0.043982,0.013439
2026-03-04T19:06:00.814692,0.588634,-9.824929,2.191825,0.020769,-0.046425,0.014660
2026-03-04T19:06:00.824692,0.636490,-9.877571,2.187039,0.018325,-0.042760,0.018325
2026-03-04T19:06:00.833692,0.593420,-9.801001,2.158325,0.017104,-0.041538,0.017104
2026-03-04T19:06:00.843692,0.569491,-9.767501,2.182254,0.017104,-0.041538,0.015882
2026-03-04T19:06:00.852692,0.583848,-9.829715,2.187039,0.019547,-0.041538,0.014660
2026-03-04T19:06:00.862692,0.583848,-9.805787,2.134397,0.018325,-0.041538,0.015882
2026-03-04T19:06:00.872692,0.583848,-9.868000,2.129612,0.018325,-0.042760,0.017104
2026-03-04T19:06:00.881692,0.612562,-9.820143,2.148754,0.020769,-0.042760,0.015882
2026-03-04T19:06:00.891692,0.602991,-9.781858,2.158325,0.023212,-0.043982,0.015882
2026-03-04T19:06:00.901692,0.583848,-9.810572,2.148754,0.023212,-0.042760,0.015882
2026-03-04T19:06:00.910692,0.545563,-9.858429,2.148754,0.023212,-0.043982,0.015882
2026-03-04T19:06:00.920692,0.579063,-9.805787,2.201396,0.021991,-0.046425,0.017104
2026-03-04T19:06:00.929692,0.598205,-9.834500,2.105683,0.025656,-0.043982,0.012217
2026-03-04T19:06:00.939692,0.588634,-9.829715,2.191825,0.021991,-0.043982,0.015882
2026-03-04T19:06:00.949692,0.559920,-9.824929,2.177468,0.020769,-0.043982,0.018325
2026-03-04T19:06:00.958692,0.583848,-9.820143,2.191825,0.020769,-0.041538,0.015882
2026-03-04T19:06:00.968692,0.540777,-9.844072,2.206182,0.018325,-0.037873,0.017104
2026-03-04T19:06:00.977692,0.550349,-9.848857,2.100898,0.017104,-0.037873,0.017104
2026-03-04T19:06:00.987692,0.598205,-9.796215,2.120040,0.019547,-0.039095,0.017104
2026-03-04T19:06:00.997692,0.574277,-9.796215,2.148754,0.018325,-0.040317,0.015882
2026-03-04T19:06:01.006692,0.579063,-9.829715,2.148754,0.020769,-0.043982,0.017104
2026-03-04T19:06:01.016692,0.641276,-9.839286,2.206182,0.021991,-0.042760,0.018325
2026-03-04T19:06:01.026692,0.583848,-9.829715,2.153540,0.025656,-0.043982,0.017104
2026-03-04T19:06:01.035692,0.593420,-9.786644,2.177468,0.023212,-0.045204,0.017104
2026-03-04T19:06:01.045692,0.598205,-9.863214,2.096112,0.024434,-0.045204,0.014660
2026-03-04T19:06:01.054692,0.617348,-9.786644,2.167897,0.026878,-0.042760,0.014660
2026-03-04T19:06:01.064692,0.612562,-9.824929,2.187039,0.025656,-0.042760,0.019547
2026-03-04T19:06:01.074692,0.612562,-9.853643,2.158325,0.025656,-0.042760,0.015882
2026-03-04T19:06:01.083692,0.583848,-9.853643,2.182254,0.025656,-0.041538,0.015882
2026-03-04T19:06:01.093692,0.593420,-9.810572,2.187039,0.020769,-0.039095,0.018325
2026-03-04T19:06:01.102692,0.574277,-9.801001,2.191825,0.017104,-0.039095,0.014660
2026-03-04T19:06:01.112692,0.636490,-9.796215,2.158325,0.015882,-0.039095,0.015882
2026-03-04T19:06:01.122692,0.607776,-9.820143,2.134397,0.017104,-0.041538,0.018325
2026-03-04T19:06:01.131692,0.555134,-9.834500,2.100898,0.013439,-0.040317,0.017104
2026-03-04T19:06:01.141692,0.583848,-9.801001,2.201396,0.012217,-0.042760,0.017104
2026-03-04T19:06:01.151692,0.555134,-9.844072,2.134397,0.014660,-0.041538,0.017104
