Timestamp,Acceleration_X,Acceleration_Y,Acceleration_Z,Gyro_X,Gyro_Y,Gyro_Z
2026-03-04T19:42:24.130691,-3.943371,-7.216752,5.565705,-0.565661,0.153938,-0.419053
2026-03-04T19:42:24.140691,-3.732803,-7.369893,5.613561,-0.551000,0.147829,-0.430049
2026-03-04T19:42:24.149691,-3.646661,-7.269395,5.513063,-0.521678,0.155159,-0.444709
2026-03-04T19:42:24.159691,-3.637090,-7.278966,5.565705,-0.508239,0.166155,-0.461814
2026-03-04T19:42:24.168691,-3.488735,-7.350751,5.599204,-0.503352,0.172263,-0.476474
2026-03-04T19:42:24.178691,-3.297309,-7.403393,5.651846,-0.496022,0.182037,-0.488692
2026-03-04T19:42:24.188691,-3.239881,-7.379464,5.532205,-0.476474,0.191811,-0.491135
2026-03-04T19:42:24.197691,-3.206382,-7.283751,5.455635,-0.447153,0.196698,-0.487470
2026-03-04T19:42:24.207691,-3.168097,-7.216752,5.321637,-0.421496,0.191811,-0.482583
2026-03-04T19:42:24.217691,-3.230310,-7.130611,5.216353,-0.397062,0.190589,-0.486248
2026-03-04T19:42:24.226691,-3.206382,-7.264609,5.024927,-0.367740,0.177150,-0.496022
2026-03-04T19:42:24.236691,-2.976671,-7.331608,4.852644,-0.317649,0.160046,-0.510683
2026-03-04T19:42:24.245691,-2.991028,-7.408178,4.713860,-0.295658,0.146607,-0.519235
2026-03-04T19:42:24.255691,-2.871387,-7.523034,4.742574,-0.262671,0.145385,-0.536339
2026-03-04T19:42:24.265691,-2.813959,-7.269395,4.790430,-0.240680,0.150272,-0.543669
2026-03-04T19:42:24.274691,-2.842673,-6.987041,4.814359,-0.251676,0.153938,-0.548556
2026-03-04T19:42:24.284691,-2.742174,-6.570690,4.752145,-0.300545,0.162490,-0.569326
2026-03-04T19:42:24.293691,-2.651247,-6.479763,4.847858,-0.405614,0.174707,-0.581543
2026-03-04T19:42:24.303691,-2.656033,-6.379265,4.785645,-0.533896,0.199142,-0.583987
2026-03-04T19:42:24.313691,-2.732603,-6.494120,4.618147,-0.625525,0.216246,-0.582765
2026-03-04T19:42:24.322691,-2.866601,-6.709474,4.455435,-0.657290,0.227241,-0.577878
2026-03-04T19:42:24.332691,-2.909672,-7.010970,4.350151,-0.623082,0.219911,-0.577878
2026-03-04T19:42:24.342691,-2.857030,-7.125825,4.316651,-0.533896,0.193033,-0.575434
2026-03-04T19:42:24.351691,-2.713460,-7.341179,4.311866,-0.436157,0.173485,-0.580321
2026-03-04T19:42:24.361691,-2.440679,-7.604390,4.426721,-0.367740,0.164933,-0.587652
2026-03-04T19:42:24.370691,-2.139183,-7.647461,4.503292,-0.316428,0.162490,-0.593760
2026-03-04T19:42:24.380691,-1.832902,-7.570890,4.436293,-0.298102,0.169820,-0.596204
2026-03-04T19:42:24.390691,-1.627119,-7.532605,4.436293,-0.309097,0.188146,-0.593760
2026-03-04T19:42:24.399691,-1.249053,-7.432106,4.307080,-0.349414,0.208915,-0.581543
2026-03-04T19:42:24.409691,-1.253839,-7.374679,4.201796,-0.395840,0.233350,-0.566882
2026-03-04T19:42:24.418691,-1.196411,-7.508677,4.019941,-0.430049,0.262671,-0.557108
2026-03-04T19:42:24.428691,-1.158126,-7.690531,4.067798,-0.421496,0.285884,-0.560774
2026-03-04T19:42:24.438691,-1.115055,-7.843672,4.048655,-0.364075,0.295658,-0.565661
2026-03-04T19:42:24.447691,-1.138983,-7.858029,4.053441,-0.268780,0.291993,-0.568104
2026-03-04T19:42:24.457691,-0.942772,-7.891528,4.048655,-0.160046,0.284663,-0.569326
2026-03-04T19:42:24.467691,-0.717846,-7.814958,4.000799,-0.061086,0.278554,-0.572991
2026-03-04T19:42:24.476691,-0.502492,-7.532605,3.909872,0.026878,0.278554,-0.579100
2026-03-04T19:42:24.486691,-0.244067,-7.077969,3.680161,0.100181,0.282219,-0.579100
2026-03-04T19:42:24.495691,-0.023928,-6.618547,3.483949,0.142942,0.280997,-0.583987
2026-03-04T19:42:24.505691,0.167497,-6.049055,3.316452,0.149051,0.277332,-0.599869
2026-03-04T19:42:24.515691,0.354137,-5.556134,3.129811,0.114842,0.287106,-0.620638
2026-03-04T19:42:24.524691,0.397208,-5.020141,3.072384,0.061086,0.305432,-0.654847
2026-03-04T19:42:24.534691,0.435493,-4.622933,3.043670,-0.007330,0.324980,-0.706160
2026-03-04T19:42:24.543691,0.421136,-4.350151,2.900100,-0.047647,0.338419,-0.770911
2026-03-04T19:42:24.553691,0.344566,-3.986442,2.847458,-0.035430,0.334754,-0.841772
2026-03-04T19:42:24.563691,0.330209,-3.699303,2.833101,-0.003665,0.317649,-0.922406
2026-03-04T19:42:24.572691,0.368494,-3.326023,2.904886,0.050090,0.305432,-1.015257
2026-03-04T19:42:24.582691,0.330209,-3.034099,2.928814,0.091629,0.304210,-1.109331
2026-03-04T19:42:24.592691,0.392422,-2.971885,2.775674,0.080634,0.290771,-1.196073
2026-03-04T19:42:24.601691,0.416351,-2.938386,2.823530,0.092851,0.272445,-1.314581
2026-03-04T19:42:24.611691,0.612562,-3.192025,2.756531,0.057421,0.266337,-1.437976
2026-03-04T19:42:24.620691,0.851844,-4.158725,2.478964,-0.056199,0.240680,-1.514945
2026-03-04T19:42:24.630691,1.277767,-4.852644,2.498106,-0.103847,0.197920,-1.605353
2026-03-04T19:42:24.640691,1.478764,-5.206781,2.244467,-0.201585,0.144164,-1.676213
2026-03-04T19:42:24.649691,1.512263,-5.369493,1.976471,-0.393397,0.113620,-1.733635
2026-03-04T19:42:24.659691,1.392622,-5.388636,1.560120,-0.601091,0.097738,-1.784947
2026-03-04T19:42:24.668691,1.186840,-5.134997,1.182054,-0.797789,0.083077,-1.843590
2026-03-04T19:42:24.678691,1.028913,-4.914857,1.028913,-0.945619,0.052534,-1.921781
2026-03-04T19:42:24.688691,1.028913,-4.833501,1.196411,-1.089783,0.018325,-1.999972
2026-03-04T19:42:24.697691,1.258624,-5.460421,1.651047,-1.252273,-0.023212,-2.065945
2026-03-04T19:42:24.707691,1.832902,-6.135197,2.574677,-1.321912,-0.047647,-2.157575
2026-03-04T19:42:24.717691,2.373680,-6.958328,3.378665,-1.356120,-0.034208,-2.250427
2026-03-04T19:42:24.726691,2.780459,-7.470392,3.900300,-1.317025,0.014660,-2.335948
2026-03-04T19:42:24.736691,2.943171,-7.762316,3.924229,-1.246164,0.067195,-2.439795
2026-03-04T19:42:24.745691,3.125026,-7.848458,3.890729,-1.131322,0.108733,-2.579072
2026-03-04T19:42:24.755691,3.402593,-7.944171,3.747160,-1.034805,0.133168,-2.734232
2026-03-04T19:42:24.765691,3.857230,-7.776673,3.665804,-0.927293,0.128281,-2.899165
2026-03-04T19:42:24.774691,4.292723,-7.255038,3.555734,-0.822224,0.125838,-3.078760
2026-03-04T19:42:24.784691,4.579862,-6.680760,3.091526,-0.784350,0.118507,-3.233919
2026-03-04T19:42:24.793691,4.823930,-6.226124,2.507678,-0.831998,0.096516,-3.400075
2026-03-04T19:42:24.803691,5.388636,-6.403193,1.966900,-0.987158,0.056199,-3.579669
2026-03-04T19:42:24.813691,5.915057,-7.570890,1.263410,-1.341459,-0.059864,-3.668855
2026-03-04T19:42:24.822691,7.082754,-9.336793,0.808774,-1.720196,-0.213802,-3.718946
2026-03-04T19:42:24.832691,8.307880,-10.935199,0.287138,-2.129475,-0.382401,-3.709172
2026-03-04T19:42:24.842691,9.303294,-11.892328,-0.827916,-2.399478,-0.427605,-3.656638
2026-03-04T19:42:24.851691,10.001998,-12.040683,-1.450050,-2.619389,-0.411723,-3.607769
2026-03-04T19:42:24.861691,10.490134,-12.380464,-1.517049,-2.840522,-0.312762,-3.579669
2026-03-04T19:42:24.870691,10.810772,-12.428320,-0.890130,-3.009121,-0.151494,-3.547904
2026-03-04T19:42:24.880691,10.648060,-12.375678,-0.559920,-3.104416,0.041538,-3.501478
2026-03-04T19:42:24.890691,10.284351,-12.002398,-0.387637,-3.026225,0.212581,-3.484374
2026-03-04T19:42:24.899691,10.040283,-11.140982,-0.502492,-2.825862,0.342084,-3.508809
2026-03-04T19:42:24.909691,9.949356,-10.155139,-0.780060,-2.547307,0.415388,-3.563787
2026-03-04T19:42:24.918691,10.025926,-9.695717,-0.894915,-2.388482,0.447153,-3.624873
2026-03-04T19:42:24.928691,10.499705,-10.006784,-1.225125,-2.354274,0.430049,-3.627317
2026-03-04T19:42:24.938691,11.088339,-10.447063,-1.373480,-2.278526,0.449596,-3.638312
2026-03-04T19:42:24.947691,11.447263,-10.619346,-1.339980,-2.158797,0.533896,-3.662747
2026-03-04T19:42:24.957691,11.566904,-10.490134,-1.579262,-1.946216,0.604756,-3.695733
2026-03-04T19:42:24.967691,11.705688,-9.805787,-1.617548,-1.729969,0.605978,-3.736051
2026-03-04T19:42:24.976691,12.055040,-8.953942,-1.521835,-1.578475,0.558330,-3.809354
2026-03-04T19:42:24.986691,12.495319,-8.202595,-1.411765,-1.519832,0.519235,-3.898541
2026-03-04T19:42:24.995691,12.863814,-7.714460,-1.880758,-1.494176,0.515570,-3.979175
2026-03-04T19:42:25.005691,13.036097,-8.776873,-3.431307,-1.582140,0.511904,-4.007275
2026-03-04T19:42:25.015691,13.385449,-11.624332,-5.795416,-1.850921,0.327423,-3.880215
2026-03-04T19:42:25.024691,14.739787,-14.524433,-6.278766,-1.923003,-0.047647,-3.693290
2026-03-04T19:42:25.034691,16.821543,-16.228123,-4.733003,-1.804495,-0.355523,-3.428175
2026-03-04T19:42:25.043691,18.453447,-17.051252,-3.287738,-1.749517,-0.334754,-2.982243
2026-03-04T19:42:25.053691,18.295521,-17.309677,-3.134597,-1.720196,-0.024434,-2.502103
2026-03-04T19:42:25.063691,16.596617,-16.864613,-2.708675,-1.613905,0.277332,-2.090380
2026-03-04T19:42:25.072691,14.758929,-16.122837,-1.995614,-1.469741,0.356745,-1.753182
2026-03-04T19:42:25.082691,13.476376,-15.227923,-1.651047,-1.258382,0.238237,-1.481958
2026-03-04T19:42:25.092691,13.261022,-14.179866,-1.607976,-1.087339,0.069638,-1.288925
2026-03-04T19:42:25.101691,13.624731,-13.581661,-1.057627,-1.012814,-0.001221,-1.143539
2026-03-04T19:42:25.111691,13.768301,-13.165309,-0.483350,-0.992044,0.067195,-1.051909
2026-03-04T19:42:25.120691,13.342378,-11.485548,-0.622133,-0.813672,0.232128,-1.022588
2026-03-04T19:42:25.130691,11.988041,-9.408578,-1.416550,-0.561995,0.321315,-1.025031
2026-03-04T19:42:25.140691,11.466405,-8.384450,-1.129412,-0.598647,0.171042,-1.049466
2026-03-04T19:42:25.149691,12.471391,-9.556933,-0.421136,-0.961501,-0.107512,-1.058018
2026-03-04T19:42:25.159691,14.409577,-12.193823,-0.081355,-1.193630,-0.252898,-1.038470
2026-03-04T19:42:25.168691,15.290136,-13.835300,-0.306281,-0.990823,-0.167377,-0.963945
2026-03-04T19:42:25.178691,14.758929,-13.940584,-0.665204,-0.652403,-0.069638,-0.803898
2026-03-04T19:42:25.188691,14.031511,-12.744173,-0.196211,-0.321315,-0.140498,-0.625525
2026-03-04T19:42:25.197691,13.519447,-11.815757,0.291924,-0.245567,-0.376292,-0.423940
2026-03-04T19:42:25.207691,13.998012,-11.480762,0.894915,-0.202807,-0.686612,-0.156381
2026-03-04T19:42:25.217691,14.419148,-11.294122,0.799202,-0.092851,-0.811228,0.065973
2026-03-04T19:42:25.226691,15.156138,-12.241680,0.722632,0.009773,-0.851545,0.259006
2026-03-04T19:42:25.236691,15.816557,-13.366307,1.186840,0.377514,-0.823446,0.433714
2026-03-04T19:42:25.245691,15.692130,-13.596018,1.550549,0.998153,-0.667064,0.598647
2026-03-04T19:42:25.255691,14.490933,-12.351750,1.493121,1.725083,-0.470366,0.779463
2026-03-04T19:42:25.265691,13.031311,-10.097711,1.435693,2.185675,-0.383623,0.956614
2026-03-04T19:42:25.274691,11.954541,-8.987441,1.091127,2.213775,-0.430049,1.131322
2026-03-04T19:42:25.284691,11.131410,-8.848657,0.598205,2.127032,-0.519235,1.336572
2026-03-04T19:42:25.293691,10.447063,-8.800801,0.076570,2.028072,-0.590095,1.519832
2026-03-04T19:42:25.303691,9.944570,-9.011369,-0.526420,1.973094,-0.634077,1.666440
2026-03-04T19:42:25.313691,9.585647,-9.442077,-1.129412,2.037846,-0.669508,1.787391
2026-03-04T19:42:25.322691,9.542576,-9.647860,-1.478764,2.261422,-0.714712,1.858251
2026-03-04T19:42:25.332691,9.762716,-9.724431,-1.737189,2.542420,-0.764803,1.908342
2026-03-04T19:42:25.342691,10.786844,-9.930213,-1.976471,2.825862,-0.841772,1.957211
2026-03-04T19:42:25.351691,12.547961,-10.073783,-2.215753,3.109303,-0.885754,1.997528
2026-03-04T19:42:25.361691,14.045868,-10.231709,-2.885744,3.308445,-0.825889,2.087936
2026-03-04T19:42:25.370691,14.950355,-9.614361,-3.436093,3.473379,-0.656069,2.204001
2026-03-04T19:42:25.380691,15.136995,-8.853443,-3.713660,3.413514,-0.461814,2.359161
2026-03-04T19:42:25.390691,14.557932,-8.283951,-3.905086,3.153285,-0.282219,2.549750
2026-03-04T19:42:25.399691,13.859228,-8.015955,-3.790230,2.773327,-0.145385,2.755001
2026-03-04T19:42:25.409691,12.897313,-8.145168,-3.761517,2.372600,-0.057421,2.950478
2026-03-04T19:42:25.418691,11.897113,-8.240881,-3.756731,2.106262,-0.024434,3.133738
2026-03-04T19:42:25.428691,11.050054,-8.274380,-3.235096,1.932777,-0.028099,3.293784
2026-03-04T19:42:25.438691,10.619346,-8.633303,-2.632104,1.781282,-0.068416,3.445279
2026-03-04T19:42:25.447691,10.561918,-9.198010,-2.009970,1.729969,-0.128281,3.541795
2026-03-04T19:42:25.457691,10.719845,-9.480363,-1.631905,1.765400,-0.169820,3.593108
2026-03-04T19:42:25.467691,10.834700,-9.920642,-1.402194,1.784947,-0.193033,3.638312
2026-03-04T19:42:25.476691,10.872985,-10.289137,-1.076770,1.832595,-0.201585,3.676186
2026-03-04T19:42:25.486691,10.762916,-10.303494,-0.961914,1.930333,-0.194255,3.720168
2026-03-04T19:42:25.495691,10.557133,-9.954142,-0.890130,2.012189,-0.204028,3.791028
2026-03-04T19:42:25.505691,10.490134,-9.533005,-0.588634,2.067167,-0.183259,3.847228
2026-03-04T19:42:25.515691,9.987641,-8.705088,-0.746560,2.106262,-0.098960,3.893654
2026-03-04T19:42:25.524691,9.255437,-8.470592,-0.818345,2.057393,-0.003665,3.952297
2026-03-04T19:42:25.534691,8.752945,-8.920442,-0.550349,1.963320,0.072082,4.013383
2026-03-04T19:42:25.543691,8.250452,-9.207581,-0.373280,1.974316,0.130725,4.035374
2026-03-04T19:42:25.553691,7.853243,-9.360722,-0.363709,2.014633,0.152716,4.062252
2026-03-04T19:42:25.563691,7.762316,-9.303294,-0.234496,2.073276,0.129503,4.059809
2026-03-04T19:42:25.572691,7.637889,-8.848657,0.028713,2.083050,0.113620,4.028044
2026-03-04T19:42:25.582691,7.719245,-8.504091,0.454636,2.010967,0.134390,3.974288
2026-03-04T19:42:25.592691,7.475177,-8.202595,0.693918,1.920559,0.204028,3.924197
2026-03-04T19:42:25.601691,6.757331,-7.341179,0.823130,1.797165,0.272445,3.874106
2026-03-04T19:42:25.611691,6.058626,-6.819544,1.167697,1.613905,0.302989,3.841119
2026-03-04T19:42:25.620691,5.647061,-6.910471,1.507478,1.345124,0.317649,3.837454
2026-03-04T19:42:25.630691,5.154139,-6.862615,1.478764,1.150869,0.335975,3.821572
2026-03-04T19:42:25.640691,4.469792,-6.407978,1.689332,1.073900,0.357966,3.799580
2026-03-04T19:42:25.649691,3.996013,-6.479763,1.942971,0.949284,0.338419,3.820350
2026-03-04T19:42:25.659691,3.608376,-6.345765,2.005185,0.897971,0.285884,3.843563
2026-03-04T19:42:25.668691,3.316452,-5.546562,2.263610,0.908967,0.232128,3.822793
2026-03-04T19:42:25.678691,3.043670,-5.096712,2.244467,0.893084,0.210137,3.802024
2026-03-04T19:42:25.688691,2.603390,-4.441078,2.311466,0.906523,0.194255,3.764150
2026-03-04T19:42:25.697691,2.072184,-3.833301,2.220539,0.935845,0.188146,3.682294
2026-03-04T19:42:25.707691,1.588834,-3.560520,2.072184,0.961501,0.175929,3.596773
2026-03-04T19:42:25.717691,1.172483,-3.273381,1.966900,1.048244,0.155159,3.494148
2026-03-04T19:42:25.726691,0.880558,-2.885744,1.828116,1.177747,0.113620,3.391523
2026-03-04T19:42:25.736691,0.727418,-2.933600,1.617548,1.264490,0.053756,3.293784
2026-03-04T19:42:25.745691,0.736989,-2.694318,1.574477,1.368337,-0.012217,3.192381
2026-03-04T19:42:25.755691,0.674775,-2.541177,1.531406,1.436754,-0.054977,3.093420
2026-03-04T19:42:25.765691,0.760917,-2.354537,1.617548,1.459967,-0.100181,2.989573
2026-03-04T19:42:25.774691,0.708275,-2.029113,1.550549,1.442863,-0.131946,2.878396
2026-03-04T19:42:25.784691,0.574277,-1.445264,1.579262,1.387885,-0.158824,2.765997
2026-03-04T19:42:25.793691,0.401994,-0.899701,1.655833,1.270599,-0.166155,2.656041
2026-03-04T19:42:25.803691,0.090927,-0.574277,1.579262,1.133765,-0.182037,2.568076
2026-03-04T19:42:25.813691,-0.047856,-0.598205,1.607976,0.970053,-0.208915,2.492329
2026-03-04T19:42:25.822691,-0.129212,-0.870987,1.569691,0.852767,-0.268780,2.443460
2026-03-04T19:42:25.832691,-0.133998,-1.000199,1.483550,0.828333,-0.321315,2.411695
2026-03-04T19:42:25.842691,-0.177068,-1.110269,1.416550,0.857654,-0.355523,2.361604
2026-03-04T19:42:25.851691,-0.177068,-1.024128,1.526620,0.955393,-0.387288,2.272418
2026-03-04T19:42:25.861691,-0.277567,-0.995414,1.703689,1.080009,-0.395840,2.166127
2026-03-04T19:42:25.870691,-0.468993,-1.177268,1.919043,1.188743,-0.406836,2.065945
2026-03-04T19:42:25.880691,-0.574277,-0.952343,2.172682,1.335351,-0.400727,1.941329
2026-03-04T19:42:25.890691,-0.813559,-0.512064,2.297109,1.415985,-0.366519,1.787391
2026-03-04T19:42:25.899691,-1.100698,-0.186640,2.301895,1.398881,-0.311541,1.599244
2026-03-04T19:42:25.909691,-1.402194,-0.033499,2.411965,1.296255,-0.241902,1.385442
2026-03-04T19:42:25.918691,-1.622333,-0.119641,2.349751,1.130100,-0.182037,1.145982
2026-03-04T19:42:25.928691,-1.746760,-0.105284,2.311466,1.016479,-0.116064,0.867428
2026-03-04T19:42:25.938691,-1.957328,-0.114855,2.187039,0.885754,-0.043982,0.568104
2026-03-04T19:42:25.947691,-1.995614,-0.186640,2.206182,0.733038,0.032986,0.228463
2026-03-04T19:42:25.957691,-2.158325,-0.368494,2.277967,0.559552,0.079412,-0.113620
2026-03-04T19:42:25.967691,-2.029113,-0.521635,2.450250,0.393397,0.098960,-0.416610
2026-03-04T19:42:25.976691,-1.641476,-0.507278,2.775674,0.227241,0.095294,-0.664621
2026-03-04T19:42:25.986691,-1.138983,-0.301495,3.010170,0.012217,0.108733,-0.853989
2026-03-04T19:42:25.995691,-0.827916,-0.253639,3.144168,-0.257785,0.155159,-0.999375
2026-03-04T19:42:26.005691,-0.837487,-0.291924,3.144168,-0.558330,0.205250,-1.098335
2026-03-04T19:42:26.015691,-0.961914,-0.545563,3.158525,-0.796568,0.217467,-1.171639
2026-03-04T19:42:26.024691,-1.038485,-0.665204,3.029313,-0.930958,0.202807,-1.232725
2026-03-04T19:42:26.034691,-0.981057,-0.780060,2.967100,-0.954171,0.158824,-1.293812
2026-03-04T19:42:26.043691,-0.851844,-0.693918,2.761317,-0.901636,0.105068,-1.354898
2026-03-04T19:42:26.053691,-0.679561,-0.660419,2.627319,-0.801455,0.051312,-1.440419
2026-03-04T19:42:26.063691,-0.325423,-0.727418,2.536391,-0.706160,0.003665,-1.536936
2026-03-04T19:42:26.072691,0.071784,-0.684347,2.464607,-0.587652,-0.040317,-1.639561
2026-03-04T19:42:26.082691,0.492921,-0.842273,2.139183,-0.486248,-0.084299,-1.737300
2026-03-04T19:42:26.092691,1.043270,-0.904486,2.091326,-0.378736,-0.108733,-1.848477
2026-03-04T19:42:26.101691,1.478764,-0.909272,2.124826,-0.307876,-0.089186,-1.957211
2026-03-04T19:42:26.111691,1.718046,-1.024128,2.072184,-0.315206,-0.043982,-2.053728
2026-03-04T19:42:26.120691,1.789831,-1.095912,1.923829,-0.368962,-0.010995,-2.141693
2026-03-04T19:42:26.130691,1.909472,-1.234696,1.789831,-0.445931,0.019547,-2.218662
2026-03-04T19:42:26.140691,1.986042,-1.172483,1.598405,-0.576656,0.031764,-2.274861
2026-03-04T19:42:26.149691,1.962114,-1.091127,1.143769,-0.729372,0.051312,-2.320065
2026-03-04T19:42:26.159691,1.808973,-1.033699,0.890130,-0.899193,0.064751,-2.359161
2026-03-04T19:42:26.168691,1.789831,-1.258624,0.612562,-1.132543,0.063529,-2.410473
2026-03-04T19:42:26.178691,1.986042,-1.789831,0.483350,-1.329242,0.072082,-2.465451
2026-03-04T19:42:26.188691,2.062613,-2.459821,0.449850,-1.455080,0.101403,-2.521651
2026-03-04T19:42:26.197691,2.206182,-3.000599,0.617348,-1.500284,0.156381,-2.593733
2026-03-04T19:42:26.207691,2.167897,-3.263810,0.933200,-1.428202,0.230907,-2.693915
2026-03-04T19:42:26.217691,1.919043,-3.192025,1.081555,-1.293812,0.305432,-2.798983
2026-03-04T19:42:26.226691,1.593619,-2.981456,1.081555,-1.193630,0.343306,-2.926043
2026-03-04T19:42:26.236691,1.564905,-3.153740,0.909272,-1.188743,0.346971,-3.089755
2026-03-04T19:42:26.245691,1.722832,-4.086941,0.449850,-1.317025,0.290771,-3.230254
2026-03-04T19:42:26.255691,2.469392,-5.891129,0.210568,-1.502728,0.218689,-3.373197
2026-03-04T19:42:26.265691,3.594019,-8.035098,0.435493,-1.593136,0.183259,-3.522248
2026-03-04T19:42:26.274691,4.876572,-9.729216,0.952343,-1.565036,0.233350,-3.615099
2026-03-04T19:42:26.284691,5.479563,-10.514062,1.009771,-1.486845,0.337197,-3.641977
2026-03-04T19:42:26.293691,5.216353,-10.183852,0.784845,-1.436754,0.415388,-3.634647
2026-03-04T19:42:26.303691,4.761716,-9.513862,0.947557,-1.492954,0.425162,-3.611434
2026-03-04T19:42:26.313691,4.316651,-8.829515,1.287338,-1.662774,0.427605,-3.591886
2026-03-04T19:42:26.322691,3.900300,-8.566304,1.507478,-1.864360,0.449596,-3.585778
2026-03-04T19:42:26.332691,3.694518,-8.427521,1.536192,-1.949881,0.467922,-3.633425
2026-03-04T19:42:26.342691,3.594019,-8.087740,1.665404,-1.887573,0.478918,-3.750711
2026-03-04T19:42:26.351691,3.756731,-8.054240,1.837687,-1.776395,0.464257,-3.903428
2026-03-04T19:42:26.361691,4.364508,-8.810372,1.794616,-1.707978,0.393397,-4.046370
2026-03-04T19:42:26.370691,5.489135,-9.207581,2.158325,-1.540601,0.320093,-4.217412
2026-03-04T19:42:26.380691,6.570690,-9.379864,2.120040,-1.404989,0.289550,-4.381124
2026-03-04T19:42:26.390691,7.479963,-10.346564,1.799402,-1.407433,0.270002,-4.470310
2026-03-04T19:42:26.399691,8.829515,-12.768101,1.210768,-1.596801,0.189368,-4.414111
2026-03-04T19:42:26.409691,10.451849,-14.720644,0.976271,-1.846034,0.053756,-4.254064
2026-03-04T19:42:26.418691,11.810972,-15.988840,0.047856,-2.141693,-0.045204,-4.029266
2026-03-04T19:42:26.428691,12.715459,-16.481762,-0.684347,-2.331061,-0.057421,-3.816685
2026-03-04T19:42:26.438691,12.906885,-16.811972,-1.191625,-2.409251,0.056199,-3.606547
2026-03-04T19:42:26.447691,12.160324,-17.056040,-1.186840,-2.346943,0.243124,-3.414735
2026-03-04T19:42:26.457691,10.762916,-16.950754,-0.784845,-2.105041,0.384845,-3.252245
2026-03-04T19:42:26.467691,9.542576,-16.347763,0.110069,-1.692096,0.393397,-3.163059
2026-03-04T19:42:26.476691,8.834301,-15.036497,0.770488,-1.233947,0.288328,-3.134959
2026-03-04T19:42:26.486691,8.939585,-13.854442,1.043270,-0.882089,0.141720,-3.137403
2026-03-04T19:42:26.495691,9.336793,-12.930813,1.225125,-0.657290,0.053756,-3.156950
2026-03-04T19:42:26.505691,9.863214,-13.074382,0.937986,-0.674395,0.021991,-3.126407
2026-03-04T19:42:26.515691,10.279565,-13.112667,0.569491,-0.752585,-0.013439,-3.054325
2026-03-04T19:42:26.524691,10.652846,-12.954741,0.009571,-0.879645,-0.103847,-2.938261
2026-03-04T19:42:26.534691,11.222337,-12.543176,-0.449850,-1.075122,-0.216246,-2.783101
2026-03-04T19:42:26.543691,11.782258,-12.581461,-1.162911,-1.345124,-0.305432,-2.597398
2026-03-04T19:42:26.553691,12.543176,-13.184452,-1.493121,-1.640783,-0.335975,-2.415360
2026-03-04T19:42:26.563691,13.361521,-14.548361,-1.306481,-1.843590,-0.268780,-2.250427
2026-03-04T19:42:26.572691,13.481162,-15.572489,-0.942772,-1.789834,-0.123394,-2.097710
2026-03-04T19:42:26.582691,13.385449,-16.003197,-0.033499,-1.447750,0.007330,-1.974316
2026-03-04T19:42:26.592691,13.127024,-15.696916,0.909272,-0.993266,0.072082,-1.879021
2026-03-04T19:42:26.601691,13.174881,-15.223137,1.545763,-0.601091,0.089186,-1.788613
2026-03-04T19:42:26.611691,13.758729,-15.404991,1.402194,-0.397062,0.069638,-1.673770
2026-03-04T19:42:26.620691,14.572289,-15.113067,0.545563,-0.219911,0.032986,-1.546710
2026-03-04T19:42:26.630691,15.395420,-14.562718,-0.162711,-0.147829,-0.025656,-1.398881
2026-03-04T19:42:26.640691,16.333406,-14.830714,-0.478564,-0.343306,-0.074525,-1.188743
2026-03-04T19:42:26.649691,17.376677,-15.720844,-0.631705,-0.681725,-0.028099,-0.960279
2026-03-04T19:42:26.659691,17.400604,-16.505690,-1.205982,-1.003040,0.095294,-0.757472
2026-03-04T19:42:26.668691,16.984255,-17.113466,-1.373480,-1.198517,0.182037,-0.597426
2026-03-04T19:42:26.678691,16.587046,-17.233109,-1.124626,-1.225395,0.153938,-0.467922
2026-03-04T19:42:26.688691,16.424334,-16.945969,-1.043270,-1.153313,0.059864,-0.371405
2026-03-04T19:42:26.697691,16.443476,-16.563118,-0.890130,-1.044579,-0.051312,-0.309097
2026-03-04T19:42:26.707691,16.630117,-16.362120,-0.646062,-0.908967,-0.117286,-0.263893
2026-03-04T19:42:26.717691,16.496119,-16.165909,-0.344566,-0.772133,-0.129503,-0.190589
2026-03-04T19:42:26.726691,15.984054,-15.706487,-0.143569,-0.583987,-0.119729,-0.094073
2026-03-04T19:42:26.736691,15.400206,-15.079568,0.129212,-0.387288,-0.131946,0.020769
2026-03-04T19:42:26.745691,14.663216,-14.055439,-0.028713,-0.161268,-0.145385,0.133168
2026-03-04T19:42:26.755691,13.706087,-13.016954,-0.440279,0.063529,-0.171042,0.270002
2026-03-04T19:42:26.765691,13.055240,-12.696316,-0.401994,0.206472,-0.235793,0.434935
2026-03-04T19:42:26.774691,12.624532,-13.050454,-0.172283,0.332310,-0.257785,0.607199
2026-03-04T19:42:26.784691,11.892328,-13.313664,-0.392422,0.572991,-0.221133,0.773355
2026-03-04T19:42:26.793691,10.978270,-12.973884,-0.574277,0.950506,-0.188146,0.912632
2026-03-04T19:42:26.803691,10.059426,-12.131610,-0.583848,1.375668,-0.201585,1.032362
2026-03-04T19:42:26.813691,9.379864,-11.131410,-0.445065,1.706757,-0.245567,1.149648
2026-03-04T19:42:26.822691,9.193224,-10.485348,-0.344566,1.886351,-0.299323,1.266934
2026-03-04T19:42:26.832691,9.461220,-10.442277,-0.535992,1.919338,-0.335975,1.386663
2026-03-04T19:42:26.842691,9.949356,-10.518848,-0.957129,1.942551,-0.359188,1.502728
2026-03-04T19:42:26.851691,10.456634,-10.408778,-1.502692,1.948659,-0.362853,1.623679
2026-03-04T19:42:26.861691,10.920842,-10.212566,-1.651047,1.876577,-0.342084,1.758069
2026-03-04T19:42:26.870691,10.892128,-10.341779,-1.832902,1.687209,-0.296880,1.930333
2026-03-04T19:42:26.880691,10.710273,-10.729416,-1.799402,1.459967,-0.245567,2.112371
2026-03-04T19:42:26.890691,10.289137,-11.136196,-1.741974,1.293812,-0.210137,2.288300
2026-03-04T19:42:26.899691,9.801001,-11.203195,-1.770688,1.225395,-0.237015,2.453234
2026-03-04T19:42:26.909691,9.614361,-11.097911,-1.588834,1.252273,-0.334754,2.586402
2026-03-04T19:42:26.918691,9.829715,-10.729416,-1.311266,1.320690,-0.458148,2.690249
2026-03-04T19:42:26.928691,10.135996,-10.466206,-1.306481,1.352455,-0.557108,2.758666
2026-03-04T19:42:26.938691,10.423135,-9.982855,-1.344766,1.351233,-0.614530,2.798983
2026-03-04T19:42:26.947691,10.423135,-9.437292,-1.612762,1.310916,-0.641408,2.840522
2026-03-04T19:42:26.957691,10.198209,-9.399007,-1.708475,1.220508,-0.664621,2.885726
2026-03-04T19:42:26.967691,10.116853,-9.844072,-1.272981,1.150869,-0.664621,2.932152
2026-03-04T19:42:26.976691,9.930213,-10.475777,-1.062413,1.160643,-0.641408,2.987130
2026-03-04T19:42:26.986691,9.657432,-10.547562,-0.789631,1.287703,-0.615752,3.029890
2026-03-04T19:42:26.995691,9.284151,-10.437492,-0.617348,1.413541,-0.580321,3.068986
2026-03-04T19:42:27.005691,9.016155,-10.432706,-0.440279,1.521054,-0.544891,3.103194
2026-03-04T19:42:27.015691,8.853443,-10.365707,-0.291924,1.607796,-0.527787,3.117855
2026-03-04T19:42:27.024691,9.011369,-10.475777,-0.401994,1.651779,-0.536339,3.123964
2026-03-04T19:42:27.034691,9.279366,-10.437492,-0.330209,1.646892,-0.537561,3.111746
2026-03-04T19:42:27.043691,9.346365,-10.298708,-0.387637,1.593136,-0.499687,3.095864
2026-03-04T19:42:27.053691,9.183653,-10.188638,-0.430708,1.523497,-0.425162,3.079981
2026-03-04T19:42:27.063691,8.748159,-9.939785,0.000000,1.448972,-0.339641,3.056769
2026-03-04T19:42:27.072691,8.221738,-9.925428,0.334995,1.374446,-0.248011,3.055547
2026-03-04T19:42:27.082691,7.738388,-9.954142,0.655633,1.325577,-0.171042,3.062877
2026-03-04T19:42:27.092691,7.293323,-9.834500,0.636490,1.310916,-0.112399,3.081203
2026-03-04T19:42:27.101691,6.977470,-9.743573,0.880558,1.280373,-0.054977,3.116633
2026-03-04T19:42:27.111691,6.604190,-9.466006,1.019342,1.271821,0.018325,3.159394
2026-03-04T19:42:27.120691,5.982056,-8.882157,0.870987,1.282816,0.076969,3.187494
2026-03-04T19:42:27.130691,5.335994,-8.154739,1.081555,1.285260,0.096516,3.204598
2026-03-04T19:42:27.140691,4.847858,-7.724031,1.143769,1.200960,0.116064,3.211928
2026-03-04T19:42:27.149691,4.350151,-7.312465,1.071984,1.102000,0.120951,3.222924
2026-03-04T19:42:27.159691,3.862015,-6.455835,1.115055,1.031140,0.120951,3.202154
2026-03-04T19:42:27.168691,3.450450,-5.795416,1.316052,0.910189,0.129503,3.174055
2026-03-04T19:42:27.178691,2.971885,-5.412564,1.296909,0.763581,0.124616,3.155729
2026-03-04T19:42:27.188691,2.526820,-5.077569,1.378265,0.638964,0.119729,3.138624
2026-03-04T19:42:27.197691,2.254038,-5.259424,1.550549,0.524122,0.090408,3.137403
2026-03-04T19:42:27.207691,1.933400,-5.091926,1.526620,0.519235,0.034208,3.147177
2026-03-04T19:42:27.217691,1.689332,-4.230510,1.617548,0.593760,-0.034208,3.142290
2026-03-04T19:42:27.226691,1.435693,-3.661018,1.746760,0.613308,-0.107512,3.137403
2026-03-04T19:42:27.236691,1.335195,-3.833301,1.722832,0.521678,-0.168598,3.169168
2026-03-04T19:42:27.245691,1.186840,-4.067798,1.674975,0.485026,-0.257785,3.207041
2026-03-04T19:42:27.255691,1.062413,-3.761517,1.674975,0.570548,-0.329867,3.214372
2026-03-04T19:42:27.265691,0.861416,-3.608376,1.445264,0.627969,-0.417831,3.241250
2026-03-04T19:42:27.274691,0.947557,-3.531806,1.421336,0.704938,-0.483805,3.251024
2026-03-04T19:42:27.284691,0.756131,-3.450450,1.392622,0.805120,-0.541226,3.265684
2026-03-04T19:42:27.293691,0.684347,-3.335594,1.497906,0.922406,-0.590095,3.275458
2026-03-04T19:42:27.303691,0.650847,-3.225524,1.655833,1.036027,-0.662177,3.291341
2026-03-04T19:42:27.313691,0.736989,-3.177668,1.655833,1.134987,-0.711046,3.287676
2026-03-04T19:42:27.322691,0.976271,-2.780459,1.808973,1.242499,-0.751364,3.271793
2026-03-04T19:42:27.332691,0.933200,-2.541177,1.698904,1.317025,-0.720820,3.231476
2026-03-04T19:42:27.342691,0.751346,-2.316252,1.789831,1.395215,-0.697607,3.183828
2026-03-04T19:42:27.351691,0.507278,-2.033899,1.852044,1.527162,-0.659734,3.100751
2026-03-04T19:42:27.361691,0.287138,-2.062613,1.627119,1.618792,-0.627969,3.029890
2026-03-04T19:42:27.370691,0.004785,-2.115255,1.440479,1.726304,-0.648738,2.982243
2026-03-04T19:42:27.380691,0.191425,-1.765903,1.636690,1.882686,-0.671951,2.880839
2026-03-04T19:42:27.390691,0.100498,-1.521835,1.751546,1.969429,-0.660956,2.767218
2026-03-04T19:42:27.399691,0.138783,-1.459621,2.187039,2.001194,-0.612086,2.635272
2026-03-04T19:42:27.409691,-0.234496,-1.464407,2.411965,1.987755,-0.486248,2.476447
2026-03-04T19:42:27.418691,-0.837487,-1.512263,2.550748,1.988976,-0.356745,2.295631
2026-03-04T19:42:27.428691,-1.512263,-1.363908,2.565105,2.015854,-0.240680,2.083050
2026-03-04T19:42:27.438691,-2.187039,-1.048056,2.555534,1.986533,-0.174707,1.844812
2026-03-04T19:42:27.447691,-2.550748,-0.727418,2.498106,1.853364,-0.174707,1.589471
2026-03-04T19:42:27.457691,-2.507678,-0.210568,2.785245,1.628566,-0.194255,1.307251
2026-03-04T19:42:27.467691,-2.301895,0.339780,3.115455,1.263269,-0.179594,1.026253
2026-03-04T19:42:27.476691,-2.000399,0.693918,3.335594,0.766024,-0.122173,0.774576
2026-03-04T19:42:27.486691,-1.866401,0.746560,3.436093,0.180816,-0.026878,0.561995
2026-03-04T19:42:27.495691,-2.043470,0.569491,3.780659,-0.378736,0.083077,0.376292
2026-03-04T19:42:27.505691,-2.569891,0.263210,3.684946,-0.833220,0.180816,0.201585
2026-03-04T19:42:27.515691,-3.139383,-0.315852,3.498306,-1.120326,0.235793,0.032986
2026-03-04T19:42:27.524691,-3.761517,-0.918843,3.397808,-1.235169,0.235793,-0.127059
2026-03-04T19:42:27.534691,-4.244867,-1.296909,3.488735,-1.202182,0.156381,-0.295658
2026-03-04T19:42:27.543691,-4.364508,-1.631905,3.661018,-1.065348,0.048869,-0.481361
2026-03-04T19:42:27.553691,-4.106083,-1.890329,3.833301,-0.883310,-0.068416,-0.667064
2026-03-04T19:42:27.563691,-3.603590,-2.100898,4.120440,-0.679282,-0.150272,-0.856432
2026-03-04T19:42:27.572691,-3.081955,-2.254038,4.340580,-0.532674,-0.177150,-1.009149
2026-03-04T19:42:27.582691,-2.536391,-2.359323,4.465006,-0.478918,-0.163711,-1.131322
2026-03-04T19:42:27.592691,-1.962114,-2.507678,4.450650,-0.569326,-0.133168,-1.233947
2026-03-04T19:42:27.601691,-1.272981,-2.799602,4.383651,-0.719599,-0.062308,-1.340238
2026-03-04T19:42:27.611691,-0.981057,-2.837887,4.216153,-0.863763,0.062308,-1.464854
2026-03-04T19:42:27.620691,-1.024128,-2.833101,4.063012,-0.981049,0.200363,-1.591914
2026-03-04T19:42:27.630691,-1.253839,-2.780459,3.574876,-1.072679,0.298102,-1.706757
2026-03-04T19:42:27.640691,-1.249053,-2.612962,3.297309,-1.130100,0.333532,-1.822821
2026-03-04T19:42:27.649691,-1.081555,-2.349751,2.967100,-1.182634,0.337197,-1.926668
2026-03-04T19:42:27.659691,-0.703489,-2.172682,2.847458,-1.224173,0.333532,-2.015854
2026-03-04T19:42:27.668691,-0.382851,-2.053041,2.589034,-1.266934,0.345749,-2.084271
2026-03-04T19:42:27.678691,-0.157926,-2.139183,2.431107,-1.309694,0.375071,-2.128254
2026-03-04T19:42:27.688691,-0.114855,-2.225325,2.239681,-1.301142,0.404392,-2.168571
2026-03-04T19:42:27.697691,-0.062213,-2.234896,2.120040,-1.232725,0.419053,-2.206444
2026-03-04T19:42:27.707691,-0.004785,-2.100898,2.000399,-1.117883,0.415388,-2.241874
2026-03-04T19:42:27.717691,0.124426,-1.986042,1.871187,-0.988379,0.410501,-2.283413
2026-03-04T19:42:27.726691,0.119641,-1.746760,1.684547,-0.861319,0.414166,-2.334726
2026-03-04T19:42:27.736691,0.114855,-1.794616,1.473978,-0.764803,0.414166,-2.398256
2026-03-04T19:42:27.745691,0.210568,-2.043470,1.062413,-0.729372,0.389731,-2.447125
2026-03-04T19:42:27.755691,0.488135,-2.488535,0.803988,-0.709825,0.348193,-2.487442
2026-03-04T19:42:27.765691,1.000199,-3.077169,0.588634,-0.744033,0.306654,-2.508212
2026-03-04T19:42:27.774691,1.512263,-3.905086,0.282353,-0.784350,0.291993,-2.506990
2026-03-04T19:42:27.784691,1.947757,-4.579862,0.148355,-0.797789,0.333532,-2.513099
2026-03-04T19:42:27.793691,2.225325,-5.283352,0.100498,-0.802676,0.410501,-2.525316
2026-03-04T19:42:27.803691,2.254038,-5.737988,0.129212,-0.734259,0.510683,-2.546085
2026-03-04T19:42:27.813691,2.187039,-5.675775,0.138783,-0.612086,0.607199,-2.566855
2026-03-04T19:42:27.822691,1.852044,-5.273781,0.076570,-0.477696,0.668286,-2.583959
2026-03-04T19:42:27.832691,1.607976,-4.599005,0.047856,-0.399505,0.680503,-2.612059
2026-03-04T19:42:27.842691,1.564905,-4.177868,0.205782,-0.432492,0.670729,-2.665815
2026-03-04T19:42:27.851691,1.722832,-4.283152,0.445065,-0.593760,0.658512,-2.731788
2026-03-04T19:42:27.861691,2.158325,-4.919643,0.722632,-0.764803,0.654847,-2.806314
2026-03-04T19:42:27.870691,2.699103,-5.694917,0.760917,-0.864984,0.659734,-2.886948
2026-03-04T19:42:27.880691,3.182454,-6.326622,0.751346,-0.860098,0.693942,-2.971247
2026-03-04T19:42:27.890691,3.493520,-6.541976,0.794417,-0.753807,0.739146,-3.078760
2026-03-04T19:42:27.899691,3.651447,-6.154339,0.799202,-0.637743,0.777020,-3.205820
2026-03-04T19:42:27.909691,3.613162,-5.613561,0.698704,-0.638964,0.790459,-3.338988
2026-03-04T19:42:27.918691,3.574876,-5.369493,0.631705,-0.781907,0.763581,-3.467270
2026-03-04T19:42:27.928691,3.751945,-5.517848,0.665204,-0.974940,0.713490,-3.600438
2026-03-04T19:42:27.938691,4.086941,-5.709274,0.770488,-1.143539,0.668286,-3.714059
2026-03-04T19:42:27.947691,4.460221,-6.202196,0.818345,-1.303586,0.629191,-3.795915
2026-03-04T19:42:27.957691,4.828716,-7.527819,0.459421,-1.535714,0.566882,-3.811798
2026-03-04T19:42:27.967691,5.651846,-9.461220,0.516849,-1.695761,0.492357,-3.809354
2026-03-04T19:42:27.976691,6.637689,-11.509476,0.564706,-1.797165,0.453261,-3.762929
2026-03-04T19:42:27.986691,7.264609,-12.122039,0.593420,-1.631009,0.489913,-3.732385
2026-03-04T19:42:27.995691,6.786044,-10.916056,-0.287138,-1.295034,0.544891,-3.704286
2026-03-04T19:42:28.005691,6.407978,-9.274580,-0.607776,-1.170417,0.450818,-3.672521
2026-03-04T19:42:28.015691,6.647261,-8.992227,-0.378065,-1.506393,0.240680,-3.624873
2026-03-04T19:42:28.024691,7.637889,-9.738787,0.244067,-2.018298,0.062308,-3.568673
2026-03-04T19:42:28.034691,8.872586,-10.954341,0.746560,-2.558303,0.037873,-3.491704
2026-03-04T19:42:28.043691,9.824929,-12.849457,-0.081355,-3.020117,0.136833,-3.406183
2026-03-04T19:42:28.053691,10.447063,-14.356935,-1.009771,-3.075094,0.285884,-3.364645
2026-03-04T19:42:28.063691,10.872985,-15.414563,-1.124626,-2.808757,0.421496,-3.352427
2026-03-04T19:42:28.072691,11.121839,-16.855042,-1.560120,-2.484999,0.530230,-3.273015
2026-03-04T19:42:28.082691,11.112268,-17.548960,-2.981456,-1.999972,0.543669,-3.169168
2026-03-04T19:42:28.092691,11.107482,-16.725828,-3.771088,-1.351233,0.483805,-3.061655
2026-03-04T19:42:28.101691,11.313265,-15.653845,-3.603590,-0.954171,0.342084,-2.908939
2026-03-04T19:42:28.111691,11.992826,-15.223137,-3.029313,-0.880867,0.211359,-2.704910
2026-03-04T19:42:28.120691,12.447463,-15.385849,-2.627319,-1.021366,0.202807,-2.472781
2026-03-04T19:42:28.130691,12.480962,-15.567703,-2.349751,-1.131322,0.295658,-2.258979
2026-03-04T19:42:28.140691,11.739187,-15.270993,-2.158325,-1.076344,0.410501,-2.086715
2026-03-04T19:42:28.149691,11.016555,-14.495719,-1.636690,-0.926071,0.439822,-1.974316
2026-03-04T19:42:28.159691,10.767701,-13.490733,-1.124626,-0.819780,0.373849,-1.927890
2026-03-04T19:42:28.168691,11.059626,-13.265808,-0.961914,-0.849102,0.300545,-1.897347
2026-03-04T19:42:28.178691,11.423335,-13.859228,-1.780260,-0.940732,0.289550,-1.838703
2026-03-04T19:42:28.188691,11.370692,-13.916656,-2.627319,-0.910189,0.287106,-1.764178
2026-03-04T19:42:28.197691,11.394621,-14.021940,-2.660818,-0.935845,0.166155,-1.671326
2026-03-04T19:42:28.207691,12.150753,-14.868999,-1.971685,-1.069013,0.023212,-1.551597
2026-03-04T19:42:28.217691,12.897313,-15.902698,-1.268195,-1.167974,0.001221,-1.404989
2026-03-04T19:42:28.226691,13.141381,-16.520046,-0.981057,-1.176526,0.048869,-1.246164
2026-03-04T19:42:28.236691,13.500305,-16.855042,-0.813559,-1.132543,0.080634,-1.120326
2026-03-04T19:42:28.245691,13.864014,-17.190037,-0.555134,-1.036027,0.087964,-1.038470
2026-03-04T19:42:28.255691,14.543575,-17.572889,-0.579063,-0.937067,0.096516,-0.987158
2026-03-04T19:42:28.265691,15.223137,-18.003597,-0.914058,-0.783129,0.124616,-0.946840
2026-03-04T19:42:28.274691,15.964912,-18.702301,-0.866201,-0.610865,0.151494,-0.928514
2026-03-04T19:42:28.284691,16.448261,-19.391434,-1.617548,-0.458148,0.216246,-0.884532
2026-03-04T19:42:28.293691,16.371693,-19.645073,-2.512463,-0.267558,0.259006,-0.778242
2026-03-04T19:42:28.303691,16.486547,-19.630716,-2.813959,-0.138055,0.182037,-0.634077
2026-03-04T19:42:28.313691,16.969896,-19.721643,-2.723032,-0.106290,0.053756,-0.456927
2026-03-04T19:42:28.322691,17.357534,-19.712072,-3.129811,-0.112399,-0.035430,-0.255341
2026-03-04T19:42:28.332691,17.280964,-19.391434,-3.479164,-0.062308,-0.083077,-0.042760
2026-03-04T19:42:28.342691,16.831114,-18.836300,-3.469592,0.045204,-0.108733,0.184481
2026-03-04T19:42:28.351691,16.185053,-17.874384,-3.029313,0.177150,-0.120951,0.410501
2026-03-04T19:42:28.361691,15.089139,-16.735401,-1.995614,0.361632,-0.131946,0.630412
2026-03-04T19:42:28.370691,13.902299,-15.175280,-1.048056,0.531452,-0.150272,0.844215
2026-03-04T19:42:28.380691,12.777672,-13.873585,-0.373280,0.626747,-0.178372,1.027475
2026-03-04T19:42:28.390691,11.921042,-13.572089,-0.215354,0.704938,-0.186924,1.169195
2026-03-04T19:42:28.399691,10.872985,-13.466805,-0.315852,0.921184,-0.166155,1.302364
2026-03-04T19:42:28.409691,9.753144,-13.174881,-0.502492,1.208291,-0.161268,1.439198
2026-03-04T19:42:28.418691,8.896514,-12.959527,-0.976271,1.424537,-0.205250,1.563814
2026-03-04T19:42:28.428691,8.618947,-13.184452,-1.536192,1.626122,-0.299323,1.690874
2026-03-04T19:42:28.438691,8.614161,-13.055240,-1.732403,1.838703,-0.405614,1.838703
2026-03-04T19:42:28.447691,9.006584,-12.595818,-2.057827,1.973094,-0.540004,1.987755
2026-03-04T19:42:28.457691,9.657432,-11.820543,-2.172682,2.021963,-0.643851,2.123367
2026-03-04T19:42:28.467691,9.958927,-11.404192,-2.177468,1.958433,-0.649960,2.268753
2026-03-04T19:42:28.476691,9.662217,-11.217552,-2.244467,1.776395,-0.598647,2.430021
2026-03-04T19:42:28.486691,9.097511,-10.983055,-2.120040,1.648114,-0.561995,2.550972
2026-03-04T19:42:28.495691,8.274380,-10.643274,-1.919043,1.566258,-0.571769,2.640159
2026-03-04T19:42:28.505691,7.781459,-10.786844,-1.962114,1.500284,-0.630412,2.726901
2026-03-04T19:42:28.515691,7.475177,-10.533205,-1.832902,1.518610,-0.715933,2.780657
2026-03-04T19:42:28.524691,7.408178,-10.303494,-1.761117,1.539380,-0.801455,2.820975
2026-03-04T19:42:28.534691,7.637889,-10.260423,-1.674975,1.530827,-0.897971,2.863735
2026-03-04T19:42:28.543691,8.073383,-10.255637,-1.569691,1.547932,-0.961501,2.879618
2026-03-04T19:42:28.553691,8.427521,-10.231709,-1.435693,1.558927,-0.972497,2.894278
2026-03-04T19:42:28.563691,8.303094,-10.059426,-1.473978,1.598023,-0.937067,2.899165
2026-03-04T19:42:28.572691,8.025527,-9.805787,-1.301695,1.649335,-0.906523,2.884505
2026-03-04T19:42:28.582691,7.680960,-9.753144,-1.253839,1.643227,-0.900415,2.877174
2026-03-04T19:42:28.592691,7.508677,-9.686145,-1.215553,1.610240,-0.906523,2.890613
2026-03-04T19:42:28.601691,7.288537,-9.451649,-1.033699,1.567479,-0.919962,2.911383
2026-03-04T19:42:28.611691,7.164110,-9.236295,-1.043270,1.500284,-0.924849,2.928487
2026-03-04T19:42:28.620691,6.929614,-9.092725,-1.000199,1.357342,-0.918741,2.948035
2026-03-04T19:42:28.630691,6.709474,-9.351150,-1.019342,1.154535,-0.908967,2.963917
2026-03-04T19:42:28.640691,6.618547,-9.676574,-0.808774,0.996931,-0.888197,2.962695
2026-03-04T19:42:28.649691,6.407978,-10.097711,-0.593420,0.902858,-0.846659,2.962695
2026-03-04T19:42:28.659691,6.025127,-10.360921,-0.382851,0.899193,-0.803898,2.948035
2026-03-04T19:42:28.668691,5.690132,-10.451849,-0.248853,0.937067,-0.778242,2.926043
2026-03-04T19:42:28.678691,5.546562,-10.217352,0.052642,1.011592,-0.755029,2.883283
2026-03-04T19:42:28.688691,5.493920,-9.968498,0.253639,1.102000,-0.707381,2.816088
2026-03-04T19:42:28.697691,5.450849,-9.561719,0.311066,1.147204,-0.638964,2.755001
2026-03-04T19:42:28.707691,5.273781,-9.413364,-0.076570,1.087339,-0.597426,2.744006
2026-03-04T19:42:28.717691,5.312066,-9.269794,0.086141,1.001818,-0.569326,2.762332
2026-03-04T19:42:28.726691,5.048855,-8.920442,0.000000,0.935845,-0.500909,2.789210
2026-03-04T19:42:28.736691,4.493720,-8.293523,0.124426,0.867428,-0.426383,2.817309
2026-03-04T19:42:28.745691,3.799802,-7.441678,0.368494,0.825889,-0.373849,2.830748
2026-03-04T19:42:28.755691,3.201596,-7.164110,0.440279,0.679282,-0.350636,2.862513
2026-03-04T19:42:28.765691,2.871387,-7.097111,0.559920,0.537561,-0.381179,2.895500
2026-03-04T19:42:28.774691,2.512463,-6.809973,0.641276,0.488692,-0.403170,2.911383
2026-03-04T19:42:28.784691,2.268395,-6.522834,0.760917,0.415388,-0.442266,2.941926
2026-03-04T19:42:28.793691,2.153540,-5.972485,0.985842,0.416610,-0.497244,2.946813
2026-03-04T19:42:28.803691,1.919043,-5.048855,1.201196,0.431270,-0.532674,2.938261
2026-03-04T19:42:28.813691,1.655833,-4.297509,1.330409,0.404392,-0.570548,2.929709
2026-03-04T19:42:28.822691,1.402194,-3.895515,1.397408,0.329867,-0.602312,2.917491
2026-03-04T19:42:28.832691,1.162911,-3.962514,1.344766,0.256563,-0.619417,2.908939
2026-03-04T19:42:28.842691,0.947557,-4.158725,1.459621,0.268780,-0.656069,2.895500
2026-03-04T19:42:28.851691,0.818345,-4.307080,1.497906,0.360410,-0.678060,2.869844
2026-03-04T19:42:28.861691,0.674775,-4.498506,1.574477,0.514348,-0.714712,2.849074
2026-03-04T19:42:28.870691,0.713061,-4.661218,1.727617,0.702494,-0.764803,2.844187
2026-03-04T19:42:28.880691,1.019342,-4.259224,1.962114,0.971275,-0.806341,2.795318
2026-03-04T19:42:28.890691,1.000199,-3.431307,2.067398,1.220508,-0.777020,2.731788
2026-03-04T19:42:28.899691,0.885344,-2.799602,2.124826,1.336572,-0.739146,2.667037
2026-03-04T19:42:28.909691,0.732203,-2.584248,2.038684,1.372003,-0.700051,2.604728
2026-03-04T19:42:28.918691,0.588634,-2.794816,1.832902,1.345124,-0.662177,2.569298
2026-03-04T19:42:28.928691,0.521635,-2.713460,1.895115,1.393994,-0.664621,2.537533
2026-03-04T19:42:28.938691,0.655633,-2.445464,1.986042,1.491732,-0.651182,2.477668
2026-03-04T19:42:28.947691,0.598205,-2.182254,2.048256,1.536936,-0.605978,2.454456
2026-03-04T19:42:28.957691,0.497707,-2.311466,1.904686,1.490510,-0.560774,2.442238
2026-03-04T19:42:28.967691,0.196211,-2.392822,1.990828,1.517388,-0.505796,2.404365
2026-03-04T19:42:28.976691,-0.200997,-2.498106,1.890329,1.544267,-0.467922,2.365269
2026-03-04T19:42:28.986691,-0.497707,-2.857030,1.909472,1.557706,-0.476474,2.311513
2026-03-04T19:42:28.995691,-0.516849,-3.144168,1.976471,1.596801,-0.525343,2.261422
2026-03-04T19:42:29.005691,-0.468993,-2.756531,2.459821,1.709200,-0.525343,2.172236
2026-03-04T19:42:29.015691,-0.430708,-2.445464,2.775674,1.684765,-0.480139,2.085493
2026-03-04T19:42:29.024691,-0.535992,-2.129612,3.077169,1.610240,-0.398284,1.977981
2026-03-04T19:42:29.034691,-0.971485,-1.832902,3.407379,1.502728,-0.268780,1.841147
2026-03-04T19:42:29.043691,-1.459621,-1.560120,3.579662,1.339016,-0.142942,1.678657
2026-03-04T19:42:29.053691,-2.000399,-1.531406,3.594019,1.172861,-0.025656,1.479515
2026-03-04T19:42:29.063691,-2.574677,-1.579262,3.321237,0.962723,0.076969,1.254716
2026-03-04T19:42:29.072691,-2.971885,-1.689332,3.220739,0.753807,0.157603,1.000597
2026-03-04T19:42:29.082691,-3.455235,-1.895115,3.038884,0.560774,0.212581,0.735481
2026-03-04T19:42:29.092691,-3.603590,-1.919043,3.168097,0.376292,0.215024,0.480139
2026-03-04T19:42:29.101691,-3.460021,-1.804188,3.445664,0.200363,0.190589,0.245567
2026-03-04T19:42:29.111691,-3.297309,-1.569691,3.885943,-0.019547,0.189368,0.039095
2026-03-04T19:42:29.120691,-3.268595,-1.359123,4.158725,-0.298102,0.226020,-0.119729
2026-03-04T19:42:29.130691,-3.498306,-1.306481,4.321437,-0.653625,0.260228,-0.241902
2026-03-04T19:42:29.140691,-3.761517,-1.555334,4.311866,-0.977384,0.273667,-0.361632
2026-03-04T19:42:29.149691,-3.967299,-2.234896,4.096512,-1.181413,0.272445,-0.496022
2026-03-04T19:42:29.159691,-4.110869,-3.000599,4.024727,-1.170417,0.251676,-0.640186
2026-03-04T19:42:29.168691,-4.134797,-3.436093,4.101297,-0.977384,0.217467,-0.789237
2026-03-04T19:42:29.178691,-4.101297,-3.756731,4.082155,-0.756251,0.177150,-0.930958
2026-03-04T19:42:29.188691,-3.909872,-4.077369,4.063012,-0.533896,0.142942,-1.061683
2026-03-04T19:42:29.197691,-3.565305,-4.273581,4.091726,-0.361632,0.120951,-1.180191
2026-03-04T19:42:29.207691,-2.976671,-4.240081,4.283152,-0.232128,0.124616,-1.299920
2026-03-04T19:42:29.217691,-2.435893,-3.962514,4.278366,-0.162490,0.171042,-1.412320
2026-03-04T19:42:29.226691,-2.234896,-3.570091,4.058227,-0.157603,0.268780,-1.530827
2026-03-04T19:42:29.236691,-2.239681,-3.086741,3.775874,-0.190589,0.376292,-1.677435
2026-03-04T19:42:29.245691,-2.273181,-2.641676,3.579662,-0.282219,0.443488,-1.821599
2026-03-04T19:42:29.255691,-2.143969,-2.230110,3.330809,-0.386066,0.471587,-1.987755
2026-03-04T19:42:29.265691,-1.818545,-1.914258,3.058027,-0.499687,0.472809,-2.149023
2026-03-04T19:42:29.274691,-1.406979,-1.598405,2.799602,-0.618195,0.471587,-2.306626
2026-03-04T19:42:29.284691,-0.904486,-1.421336,2.483749,-0.720820,0.476474,-2.460564
2026-03-04T19:42:29.293691,-0.602991,-1.201196,2.325823,-0.821002,0.485026,-2.618167
2026-03-04T19:42:29.303691,-0.210568,-1.095912,2.225325,-0.917519,0.483805,-2.759888
2026-03-04T19:42:29.313691,0.162711,-1.014556,2.072184,-1.003040,0.475253,-2.883283
2026-03-04T19:42:29.322691,0.559920,-1.057627,1.871187,-1.099557,0.458148,-2.985908
2026-03-04T19:42:29.332691,0.947557,-1.019342,1.655833,-1.141096,0.450818,-3.082425
2026-03-04T19:42:29.342691,1.239482,-0.722632,1.450050,-1.137430,0.454483,-3.185050
2026-03-04T19:42:29.351691,1.483550,-0.344566,1.081555,-1.159421,0.464257,-3.263241
2026-03-04T19:42:29.361691,1.627119,-0.157926,0.832702,-1.230282,0.469144,-3.331658
2026-03-04T19:42:29.370691,1.746760,-0.296710,0.540777,-1.336572,0.453261,-3.396410
2026-03-04T19:42:29.380691,1.914258,-0.612562,0.430708,-1.403768,0.426383,-3.474600
2026-03-04T19:42:29.390691,2.244467,-1.253839,0.253639,-1.452637,0.425162,-3.556456
2026-03-04T19:42:29.399691,2.560320,-2.201396,0.062213,-1.459967,0.459370,-3.629760
2026-03-04T19:42:29.409691,2.813959,-2.861815,-0.095712,-1.273042,0.516791,-3.728720
2026-03-04T19:42:29.418691,2.895315,-3.785445,-0.296710,-1.092226,0.530230,-3.762929
2026-03-04T19:42:29.428691,3.349951,-4.632504,-0.641276,-1.027475,0.437379,-3.690847
2026-03-04T19:42:29.438691,3.957728,-5.182853,-0.985842,-0.984714,0.344527,-3.593108
2026-03-04T19:42:29.447691,4.527220,-5.144568,-0.837487,-1.011592,0.313984,-3.506365
2026-03-04T19:42:29.457691,4.962714,-5.666203,-0.756131,-1.224173,0.316428,-3.382970
2026-03-04T19:42:29.467691,5.522634,-6.618547,-0.842273,-1.540601,0.373849,-3.220480
2026-03-04T19:42:29.476691,5.795416,-7.451249,-0.827916,-1.761734,0.526565,-3.090977
2026-03-04T19:42:29.486691,5.733202,-8.039883,-0.952343,-1.802052,0.733038,-3.037221
2026-03-04T19:42:29.495691,5.350351,-7.944171,-0.813559,-1.567479,0.889419,-3.045773
2026-03-04T19:42:29.505691,5.082355,-7.489534,-0.349352,-1.262047,0.934623,-3.093420
2026-03-04T19:42:29.515691,5.283352,-7.202396,0.043070,-1.062905,0.872315,-3.131294
2026-03-04T19:42:29.524691,6.039484,-7.312465,0.239282,-1.010370,0.775798,-3.145955
2026-03-04T19:42:29.534691,6.958328,-7.829315,-0.224925,-1.094670,0.735481,-3.130072
2026-03-04T19:42:29.543691,7.513462,-8.504091,-0.890130,-1.197295,0.801455,-3.111746
2026-03-04T19:42:29.553691,7.298108,-9.198010,-1.813759,-1.260825,0.921184,-3.092199
2026-03-04T19:42:29.563691,6.618547,-9.140582,-2.038684,-1.138652,0.985936,-3.123964
2026-03-04T19:42:29.572691,5.967699,-8.346165,-1.210768,-0.977384,0.943175,-3.159394
2026-03-04T19:42:29.582691,5.785845,-7.532605,-0.253639,-0.912632,0.828333,-3.192381
2026-03-04T19:42:29.592691,6.044269,-7.097111,0.229710,-0.959058,0.712268,-3.229032
2026-03-04T19:42:29.601691,6.675975,-7.077969,0.282353,-1.083674,0.668286,-3.281567
2026-03-04T19:42:29.611691,7.403393,-7.604390,0.076570,-1.254716,0.663399,-3.332880
2026-03-04T19:42:29.620691,7.982456,-8.618947,-0.736989,-1.479515,0.669508,-3.326771
2026-03-04T19:42:29.630691,8.384450,-9.791430,-1.823330,-1.627344,0.634077,-3.293784
2026-03-04T19:42:29.640691,8.815158,-10.705488,-2.330609,-1.698205,0.570548,-3.237585
2026-03-04T19:42:29.649691,9.384650,-11.830114,-3.005385,-1.808160,0.422718,-3.109303
2026-03-04T19:42:29.659691,10.207781,-13.217952,-3.440878,-1.916894,0.278554,-2.974913
2026-03-04T19:42:29.668691,11.303693,-14.706287,-3.445664,-1.919338,0.241902,-2.862513
2026-03-04T19:42:29.678691,11.772687,-15.548561,-2.828316,-1.704313,0.339641,-2.737897
2026-03-04T19:42:29.688691,11.810972,-15.457633,-2.062613,-1.350011,0.488692,-2.599841
2026-03-04T19:42:29.697691,11.423335,-14.663216,-1.311266,-0.989601,0.588873,-2.480112
2026-03-04T19:42:29.707691,11.030912,-13.696516,-0.756131,-0.786794,0.604756,-2.376265
2026-03-04T19:42:29.717691,11.045269,-13.002598,-0.636490,-0.778242,0.582765,-2.288300
2026-03-04T19:42:29.726691,11.050054,-12.854243,-0.751346,-0.834441,0.610865,-2.221105
2026-03-04T19:42:29.736691,10.743773,-12.547961,-1.584048,-0.882089,0.678060,-2.117258
2026-03-04T19:42:29.745691,9.963713,-11.734402,-2.818745,-0.895528,0.691499,-1.977981
2026-03-04T19:42:29.755691,9.437292,-11.255837,-3.479164,-1.044579,0.561995,-1.846034
2026-03-04T19:42:29.765691,9.509077,-11.753544,-2.823530,-1.264490,0.375071,-1.729969
2026-03-04T19:42:29.774691,10.001998,-12.748958,-1.517049,-1.379333,0.288328,-1.607796
2026-03-04T19:42:29.784691,10.336993,-13.686945,-0.741775,-1.277929,0.318871,-1.480737
2026-03-04T19:42:29.793691,10.246066,-13.902299,-0.277567,-0.948062,0.392175,-1.392772
2026-03-04T19:42:29.803691,10.432706,-13.643874,0.507278,-0.609643,0.389731,-1.312138
2026-03-04T19:42:29.813691,11.021340,-13.476376,1.119840,-0.364075,0.324980,-1.237612
2026-03-04T19:42:29.822691,11.801401,-13.270594,1.186840,-0.251676,0.334754,-1.132543
2026-03-04T19:42:29.832691,12.055040,-12.969098,-0.133998,-0.217467,0.466700,-0.984714
2026-03-04T19:42:29.842691,11.303693,-12.457034,-1.440479,-0.262671,0.570548,-0.814894
2026-03-04T19:42:29.851691,10.652846,-12.519247,-1.880758,-0.447153,0.513126,-0.640186
2026-03-04T19:42:29.861691,10.906485,-13.342378,-1.689332,-0.687834,0.361632,-0.467922
2026-03-04T19:42:29.870691,11.691331,-14.567503,-1.536192,-0.829554,0.255341,-0.304210
2026-03-04T19:42:29.880691,12.452248,-15.495919,-1.411765,-0.740368,0.215024,-0.180816
2026-03-04T19:42:29.890691,13.351950,-15.964912,-1.129412,-0.493579,0.190589,-0.094073
2026-03-04T19:42:29.899691,14.189438,-16.031912,-1.186840,-0.196698,0.156381,-0.040317
2026-03-04T19:42:29.909691,14.935998,-16.089338,-1.426122,0.046425,0.109955,-0.009773
2026-03-04T19:42:29.918691,15.615560,-16.596617,-1.933400,0.172263,0.057421,0.015882
2026-03-04T19:42:29.928691,15.893127,-16.989040,-3.282952,0.246789,0.001221,0.090408
2026-03-04T19:42:29.938691,15.926627,-17.103895,-4.886143,0.249232,-0.127059,0.202807
2026-03-04T19:42:29.947691,16.405191,-17.453247,-5.216353,0.188146,-0.366519,0.311541
2026-03-04T19:42:29.957691,17.367105,-17.826529,-4.646861,0.101403,-0.590095,0.444709
2026-03-04T19:42:29.967691,18.084953,-18.132809,-4.259224,0.092851,-0.663399,0.575434
2026-03-04T19:42:29.976691,18.108881,-17.826529,-3.938585,0.239459,-0.632856,0.676838
2026-03-04T19:42:29.986691,17.419748,-16.792830,-3.369094,0.486248,-0.575434,0.764803
2026-03-04T19:42:29.995691,16.055840,-15.366706,-2.703889,0.706160,-0.547335,0.840550
2026-03-04T19:42:30.005691,14.706287,-14.160724,-2.153540,0.842993,-0.581543,0.894306
2026-03-04T19:42:30.015691,13.596018,-13.170095,-1.713260,0.951727,-0.638964,0.943175
2026-03-04T19:42:30.024691,12.696316,-12.519247,-1.416550,1.040914,-0.706160,0.992044
2026-03-04T19:42:30.034691,12.069397,-12.064611,-1.067198,1.132543,-0.773355,1.038470
2026-03-04T19:42:30.043691,11.504691,-11.844471,-1.009771,1.194852,-0.813672,1.103222
2026-03-04T19:42:30.053691,10.882557,-11.921042,-1.268195,1.227838,-0.849102,1.210734
2026-03-04T19:42:30.063691,10.341779,-11.533404,-1.674975,1.293812,-0.907745,1.315803
2026-03-04T19:42:30.072691,9.786644,-10.791629,-1.981257,1.358564,-0.984714,1.415985
2026-03-04T19:42:30.082691,9.475577,-10.174281,-1.880758,1.336572,-1.073900,1.499062
2026-03-04T19:42:30.092691,9.432506,-10.289137,-1.502692,1.252273,-1.130100,1.574810
2026-03-04T19:42:30.101691,9.384650,-10.805986,-1.143769,1.232725,-1.099557,1.643227
2026-03-04T19:42:30.111691,9.150153,-11.150553,-0.875773,1.331685,-1.021366,1.700648
2026-03-04T19:42:30.120691,8.776873,-11.318050,-0.521635,1.508836,-0.941954,1.756848
2026-03-04T19:42:30.130691,8.676374,-11.504691,-0.440279,1.671326,-0.908967,1.837482
2026-03-04T19:42:30.140691,8.829515,-11.246266,-0.440279,1.817934,-0.911410,1.925446
2026-03-04T19:42:30.149691,9.059226,-11.006983,-0.684347,1.869247,-0.897971,2.009746
2026-03-04T19:42:30.159691,9.164510,-10.911271,-1.210768,1.800830,-0.866206,2.103819
2026-03-04T19:42:30.168691,8.953942,-10.509276,-1.622333,1.726304,-0.812450,2.197892
2026-03-04T19:42:30.178691,8.561519,-10.001998,-1.899901,1.600466,-0.781907,2.283413
2026-03-04T19:42:30.188691,8.193024,-9.772287,-2.000399,1.398881,-0.807563,2.376265
2026-03-04T19:42:30.197691,8.097311,-9.767501,-1.904686,1.199739,-0.844215,2.465451
2026-03-04T19:42:30.207691,8.207381,-10.006784,-1.622333,1.065348,-0.839328,2.542420
2026-03-04T19:42:30.217691,8.025527,-10.308279,-1.378265,1.022588,-0.799011,2.608394
2026-03-04T19:42:30.226691,7.767102,-10.380064,-1.124626,1.092226,-0.763581,2.643824
2026-03-04T19:42:30.236691,7.767102,-10.380064,-0.827916,1.196073,-0.750142,2.653598
2026-03-04T19:42:30.245691,7.838886,-10.217352,-0.602991,1.326799,-0.723264,2.632828
2026-03-04T19:42:30.255691,7.834101,-10.174281,-0.689132,1.409876,-0.664621,2.610837
2026-03-04T19:42:30.265691,7.891528,-10.150353,-0.780060,1.453858,-0.596204,2.588846
2026-03-04T19:42:30.274691,7.647461,-10.097711,-1.009771,1.452637,-0.529009,2.580294
2026-03-04T19:42:30.284691,7.345965,-9.829715,-1.196411,1.425759,-0.474031,2.582737
2026-03-04T19:42:30.293691,6.876972,-9.375078,-1.086341,1.375668,-0.422718,2.575407
2026-03-04T19:42:30.303691,6.407978,-8.733802,-1.014556,1.277929,-0.373849,2.559524
2026-03-04T19:42:30.313691,5.986842,-8.212167,-0.794417,1.120326,-0.351858,2.543642
2026-03-04T19:42:30.322691,5.565705,-7.910671,-0.679561,0.919962,-0.346971,2.524094
2026-03-04T19:42:30.332691,5.312066,-8.269594,-0.665204,0.679282,-0.353080,2.513099
2026-03-04T19:42:30.342691,5.292923,-8.886943,-0.660419,0.502131,-0.349414,2.502103
2026-03-04T19:42:30.351691,5.192425,-9.537790,-0.760917,0.443488,-0.332310,2.493551
2026-03-04T19:42:30.361691,5.067998,-9.681360,-0.516849,0.509461,-0.318871,2.474003
2026-03-04T19:42:30.370691,4.795216,-9.164510,-0.382851,0.624304,-0.304210,2.443460
2026-03-04T19:42:30.380691,4.522434,-8.819944,-0.258424,0.636521,-0.284663,2.415360
2026-03-04T19:42:30.390691,4.316651,-8.776873,-0.138783,0.602312,-0.251676,2.394591
2026-03-04T19:42:30.399691,3.952942,-8.446663,-0.028713,0.641408,-0.200363,2.372600
2026-03-04T19:42:30.409691,3.584448,-7.987241,0.110069,0.697607,-0.153938,2.354274
2026-03-04T19:42:30.418691,3.268595,-7.647461,0.315852,0.714712,-0.138055,2.344500
2026-03-04T19:42:30.428691,3.005385,-7.489534,0.373280,0.720820,-0.119729,2.335948
2026-03-04T19:42:30.438691,2.761317,-7.149753,0.526420,0.735481,-0.112399,2.338391
2026-03-04T19:42:30.447691,2.392822,-6.752545,0.650847,0.759916,-0.096516,2.345722
2026-03-04T19:42:30.457691,2.053041,-6.585047,0.756131,0.724486,-0.100181,2.388482
2026-03-04T19:42:30.467691,1.732403,-6.403193,0.722632,0.696386,-0.122173,2.444682
2026-03-04T19:42:30.476691,1.397408,-5.886343,0.674775,0.685390,-0.180816,2.504546
2026-03-04T19:42:30.486691,1.172483,-5.240281,0.947557,0.709825,-0.234572,2.544864
2026-03-04T19:42:30.495691,0.937986,-4.613361,1.196411,0.669508,-0.282219,2.596176
2026-03-04T19:42:30.505691,0.780060,-4.622933,1.339980,0.593760,-0.310319,2.656041
2026-03-04T19:42:30.515691,0.559920,-4.804787,1.383051,0.538783,-0.365297,2.719571
2026-03-04T19:42:30.524691,0.363709,-5.024927,1.435693,0.568104,-0.411723,2.767218
2026-03-04T19:42:30.534691,0.177068,-5.245067,1.416550,0.670729,-0.521678,2.840522
2026-03-04T19:42:30.543691,0.220139,-5.024927,1.454836,0.846659,-0.624304,2.889391
2026-03-04T19:42:30.553691,0.234496,-4.551148,1.536192,0.987158,-0.709825,2.921156
2026-03-04T19:42:30.563691,0.129212,-4.244867,1.588834,1.112996,-0.740368,2.933374
2026-03-04T19:42:30.572691,-0.033499,-4.240081,1.517049,1.169195,-0.751364,2.954143
2026-03-04T19:42:30.582691,-0.133998,-4.264009,1.569691,1.277929,-0.775798,2.957808
2026-03-04T19:42:30.592691,-0.267996,-4.139583,1.770688,1.441641,-0.813672,2.954143
2026-03-04T19:42:30.601691,-0.234496,-3.952942,1.837687,1.563814,-0.869871,2.967582
2026-03-04T19:42:30.611691,0.148355,-3.689732,2.177468,1.709200,-0.910189,2.957808
2026-03-04T19:42:30.620691,0.401994,-3.230310,2.536391,1.838703,-0.912632,2.929709
2026-03-04T19:42:30.630691,0.492921,-2.656033,2.684746,1.929112,-0.877202,2.894278
2026-03-04T19:42:30.640691,0.397208,-2.225325,2.799602,1.964542,-0.811228,2.856405
2026-03-04T19:42:30.649691,0.119641,-2.196611,2.699103,1.920559,-0.735481,2.818531
2026-03-04T19:42:30.659691,-0.315852,-2.177468,2.689532,1.930333,-0.657290,2.741562
2026-03-04T19:42:30.668691,-0.870987,-2.210968,2.383251,1.927890,-0.588873,2.638937
2026-03-04T19:42:30.678691,-1.411765,-2.330609,2.258824,1.974316,-0.553443,2.500881
2026-03-04T19:42:30.688691,-1.780260,-2.072184,2.196611,2.030515,-0.524122,2.321287
2026-03-04T19:42:30.697691,-2.115255,-1.732403,2.287538,2.017076,-0.493579,2.108706
2026-03-04T19:42:30.707691,-2.450250,-1.454836,2.579462,1.947437,-0.434935,1.869247
2026-03-04T19:42:30.717691,-2.608176,-1.143769,2.971885,1.775174,-0.372627,1.621236
2026-03-04T19:42:30.726691,-2.742174,-0.961914,3.254238,1.492954,-0.298102,1.368337
2026-03-04T19:42:30.736691,-2.895315,-0.928415,3.527020,1.141096,-0.223576,1.127656
2026-03-04T19:42:30.745691,-2.991028,-0.957129,3.771088,0.746477,-0.152716,0.889419
2026-03-04T19:42:30.755691,-3.134597,-0.976271,3.909872,0.315206,-0.096516,0.678060
2026-03-04T19:42:30.765691,-3.349951,-1.201196,3.862015,-0.109955,-0.036651,0.492357
2026-03-04T19:42:30.774691,-3.617947,-1.746760,3.809373,-0.500909,-0.006108,0.329867
2026-03-04T19:42:30.784691,-3.775874,-2.249253,3.919443,-0.722042,0.008552,0.156381
2026-03-04T19:42:30.793691,-3.981656,-2.713460,3.919443,-0.814894,0.001221,-0.003665
2026-03-04T19:42:30.803691,-3.952942,-3.311666,4.010370,-0.808785,-0.036651,-0.144164
2026-03-04T19:42:30.813691,-3.866801,-3.852444,4.125226,-0.712268,-0.081855,-0.270002
2026-03-04T19:42:30.822691,-3.699303,-4.283152,4.297509,-0.540004,-0.113620,-0.387288
2026-03-04T19:42:30.832691,-3.527020,-4.527220,4.431507,-0.355523,-0.129503,-0.492357
2026-03-04T19:42:30.842691,-3.244667,-4.919643,4.474578,-0.186924,-0.125838,-0.574213
2026-03-04T19:42:30.851691,-2.995813,-5.230710,4.436293,-0.091629,-0.094073,-0.637743
2026-03-04T19:42:30.861691,-2.818745,-5.436492,4.402793,-0.063529,-0.039095,-0.706160
2026-03-04T19:42:30.870691,-2.617747,-5.551348,4.230510,-0.098960,0.045204,-0.788015
2026-03-04T19:42:30.880691,-2.526820,-5.584847,4.063012,-0.167377,0.146607,-0.879645
2026-03-04T19:42:30.890691,-2.584248,-5.426921,4.005585,-0.238237,0.237015,-0.974940
2026-03-04T19:42:30.899691,-2.608176,-5.072783,4.024727,-0.316428,0.310319,-1.065348
2026-03-04T19:42:30.909691,-2.555534,-4.599005,3.833301,-0.445931,0.366519,-1.155756
2026-03-04T19:42:30.918691,-2.541177,-4.297509,3.761517,-0.640186,0.422718,-1.240056
2026-03-04T19:42:30.928691,-2.502892,-4.374079,3.555734,-0.844215,0.477696,-1.315803
2026-03-04T19:42:30.938691,-2.512463,-4.374079,3.498306,-0.955393,0.531452,-1.395215
2026-03-04T19:42:30.947691,-2.646461,-4.220939,3.455235,-0.979827,0.565661,-1.479515
2026-03-04T19:42:30.957691,-2.790031,-3.933800,3.345165,-0.939510,0.572991,-1.573588
2026-03-04T19:42:30.967691,-2.718246,-3.570091,3.393022,-0.871093,0.555887,-1.676213
2026-03-04T19:42:30.976691,-2.459821,-3.148954,3.259024,-0.812450,0.531452,-1.782504
2026-03-04T19:42:30.986691,-2.139183,-2.746960,3.172882,-0.779463,0.521678,-1.893681
2026-03-04T19:42:30.995691,-1.794616,-2.426322,3.086741,-0.774576,0.531452,-2.014633
2026-03-04T19:42:31.005691,-1.411765,-2.139183,2.866601,-0.805120,0.553443,-2.133140
2026-03-04T19:42:31.015691,-1.162911,-1.957328,2.727817,-0.855211,0.571769,-2.249205
2026-03-04T19:42:31.024691,-0.952343,-1.756331,2.498106,-0.912632,0.583987,-2.368934
2026-03-04T19:42:31.034691,-0.593420,-1.612762,2.249253,-0.963945,0.587652,-2.481334
2026-03-04T19:42:31.043691,-0.378065,-1.440479,1.971685,-1.010370,0.577878,-2.587624
2026-03-04T19:42:31.053691,-0.119641,-1.258624,1.703689,-1.053131,0.559552,-2.684141
2026-03-04T19:42:31.063691,0.172283,-1.182054,1.296909,-1.106887,0.527787,-2.767218
2026-03-04T19:42:31.072691,0.488135,-1.196411,1.043270,-1.169195,0.487470,-2.840522
2026-03-04T19:42:31.082691,0.808774,-1.339980,0.794417,-1.211956,0.459370,-2.906496
2026-03-04T19:42:31.092691,1.076770,-1.895115,0.555134,-1.274264,0.443488,-2.944369
2026-03-04T19:42:31.101691,1.368694,-2.823530,0.043070,-1.367116,0.409279,-2.929709
2026-03-04T19:42:31.111691,1.689332,-3.646661,-0.277567,-1.348790,0.381179,-2.897944
2026-03-04T19:42:31.120691,1.761117,-3.881158,-0.641276,-1.233947,0.375071,-2.882061
2026-03-04T19:42:31.130691,1.741974,-3.957728,-1.019342,-1.111774,0.361632,-2.861292
2026-03-04T19:42:31.140691,1.727617,-3.876372,-1.009771,-0.998153,0.301767,-2.845409
2026-03-04T19:42:31.149691,1.885544,-3.981656,-0.990628,-0.943175,0.234572,-2.841744
2026-03-04T19:42:31.159691,2.191825,-4.187439,-0.794417,-0.912632,0.193033,-2.831970
2026-03-04T19:42:31.168691,2.522035,-4.297509,-0.612562,-0.888197,0.190589,-2.816088
2026-03-04T19:42:31.178691,2.813959,-4.240081,-0.311066,-0.879645,0.228463,-2.808757
2026-03-04T19:42:31.188691,2.900100,-4.053441,-0.215354,-0.885754,0.291993,-2.817309
2026-03-04T19:42:31.197691,2.947957,-3.632304,-0.277567,-0.932180,0.372627,-2.846631
2026-03-04T19:42:31.207691,3.043670,-3.426521,-0.368494,-0.996931,0.453261,-2.912604
2026-03-04T19:42:31.217691,3.115455,-3.086741,-0.363709,-1.054353,0.526565,-3.028669
2026-03-04T19:42:31.226691,3.311666,-2.933600,-0.143569,-1.059240,0.571769,-3.210707
2026-03-04T19:42:31.236691,3.818944,-2.876172,0.052642,-1.051909,0.608421,-3.453831
2026-03-04T19:42:31.245691,4.460221,-3.005385,0.162711,-1.054353,0.643851,-3.736051
2026-03-04T19:42:31.255691,5.168496,-3.292523,-0.038285,-1.055574,0.669508,-4.015827
2026-03-04T19:42:31.265691,5.943771,-3.790230,-0.483350,-1.075122,0.682947,-4.285829
2026-03-04T19:42:31.274691,6.594619,-5.115854,-1.445264,-1.224173,0.670729,-4.467867
2026-03-04T19:42:31.284691,7.274180,-7.178467,-2.330609,-1.357342,0.590095,-4.541171
2026-03-04T19:42:31.293691,8.260023,-8.843872,-2.751745,-1.306029,0.529009,-4.598592
2026-03-04T19:42:31.303691,8.853443,-9.403792,-2.876172,-1.145982,0.514348,-4.632801
2026-03-04T19:42:31.313691,8.901300,-8.738588,-2.847458,-0.902858,0.552222,-4.659679
2026-03-04T19:42:31.322691,8.389236,-7.972884,-2.991028,-0.840550,0.483805,-4.624248
2026-03-04T19:42:31.332691,8.513662,-7.599604,-3.139383,-0.983492,0.224798,-4.504519
2026-03-04T19:42:31.342691,9.657432,-7.786244,-2.488535,-1.279151,-0.147829,-4.302933
2026-03-04T19:42:31.351691,11.528619,-8.920442,-1.536192,-1.804495,-0.430049,-3.997501
2026-03-04T19:42:31.361691,13.481162,-11.212766,-1.249053,-2.447125,-0.436157,-3.617543
2026-03-04T19:42:31.370691,14.136795,-13.222737,-1.952543,-3.033556,-0.195476,-3.242472
2026-03-04T19:42:31.380691,13.749158,-15.969698,-3.637090,-3.403740,0.057421,-2.938261
2026-03-04T19:42:31.390691,13.366307,-17.950954,-4.321437,-3.197267,0.113620,-2.774549
2026-03-04T19:42:31.399691,13.390235,-18.812370,-4.034298,-2.604728,0.046425,-2.706132
2026-03-04T19:42:31.409691,13.529018,-18.568302,-3.723231,-1.920559,-0.035430,-2.593733
2026-03-04T19:42:31.418691,13.227523,-16.610973,-3.637090,-1.279151,-0.123394,-2.410473
2026-03-04T19:42:31.428691,13.103096,-14.514861,-2.880958,-0.912632,-0.174707,-2.189340
2026-03-04T19:42:31.438691,12.705888,-14.021940,-1.899901,-0.984714,-0.168598,-1.846034
2026-03-04T19:42:31.447691,12.275179,-14.835500,-1.383051,-1.202182,-0.113620,-1.437976
2026-03-04T19:42:31.457691,11.509476,-15.993626,-1.655833,-1.248608,0.013439,-1.123991
2026-03-04T19:42:31.467691,10.863414,-16.319050,-0.966700,-0.994488,0.090408,-0.940732
2026-03-04T19:42:31.476691,10.499705,-15.687344,-0.330209,-0.640186,0.113620,-0.835663
2026-03-04T19:42:31.486691,10.423135,-14.581860,-0.186640,-0.316428,0.105068,-0.744033
2026-03-04T19:42:31.495691,10.585847,-13.165309,0.210568,-0.130725,0.094073,-0.638964
2026-03-04T19:42:31.505691,10.743773,-12.102896,0.512064,-0.252898,0.098960,-0.489913
2026-03-04T19:42:31.515691,10.825129,-11.207981,0.870987,-0.571769,0.098960,-0.270002
2026-03-04T19:42:31.524691,10.858628,-11.533404,0.401994,-1.039692,0.103847,-0.084299
2026-03-04T19:42:31.534691,10.509276,-12.059825,0.205782,-1.207069,0.182037,0.096516
2026-03-04T19:42:31.543691,9.772287,-11.547761,0.019142,-1.194852,0.208915,0.252898
2026-03-04T19:42:31.553691,9.279366,-10.935199,0.066999,-1.253495,0.091629,0.423940
2026-03-04T19:42:31.563691,9.217152,-11.155338,-0.373280,-1.442863,-0.054977,0.521678
2026-03-04T19:42:31.572691,9.939785,-11.901899,-0.287138,-1.501506,-0.151494,0.525343
2026-03-04T19:42:31.582691,10.236495,-12.748958,-0.153140,-1.339016,-0.122173,0.493579
2026-03-04T19:42:31.592691,10.667203,-13.442877,-0.368494,-1.055574,-0.107512,0.406836
2026-03-04T19:42:31.601691,11.471191,-14.165509,-0.669990,-0.656069,-0.118507,0.277332
2026-03-04T19:42:31.611691,12.528819,-14.711073,-1.162911,-0.106290,-0.059864,0.153938
2026-03-04T19:42:31.620691,13.337593,-14.821143,-1.445264,0.415388,0.024434,0.030543
2026-03-04T19:42:31.630691,14.400006,-15.519847,-2.091326,0.767246,0.114842,-0.039095
2026-03-04T19:42:31.640691,14.873785,-15.778272,-2.450250,1.112996,0.224798,-0.107512
2026-03-04T19:42:31.649691,15.304493,-15.682559,-2.411965,1.248608,0.285884,-0.128281
2026-03-04T19:42:31.659691,15.223137,-15.534204,-3.182454,1.295034,0.359188,-0.119729
2026-03-04T19:42:31.668691,15.806986,-15.979269,-3.110669,1.131322,0.382401,-0.087964
2026-03-04T19:42:31.678691,16.687544,-17.568104,-3.670589,0.911410,0.437379,-0.073303
2026-03-04T19:42:31.688691,17.357534,-18.209379,-4.039084,0.897971,0.492357,-0.021991
2026-03-04T19:42:31.697691,17.568104,-17.501104,-4.264009,0.950506,0.533896,0.029321
2026-03-04T19:42:31.707691,17.419748,-16.261621,-4.211367,0.927293,0.586430,0.102625
2026-03-04T19:42:31.717691,16.725828,-15.352349,-3.890729,0.733038,0.649960,0.239459
2026-03-04T19:42:31.726691,15.629917,-15.017354,-3.651447,0.415388,0.679282,0.449596
2026-03-04T19:42:31.736691,14.299507,-14.715858,-3.555734,0.149051,0.669508,0.675616
2026-03-04T19:42:31.745691,12.844671,-14.356935,-3.278166,0.031764,0.618195,0.880867
2026-03-04T19:42:31.755691,11.408978,-13.763515,-2.971885,0.048869,0.531452,1.054353
2026-03-04T19:42:31.765691,10.269994,-13.280165,-2.727817,0.151494,0.416610,1.198517
2026-03-04T19:42:31.774691,9.542576,-12.801600,-2.651247,0.342084,0.295658,1.299920
2026-03-04T19:42:31.784691,9.135796,-12.256037,-2.354537,0.613308,0.190589,1.352455
2026-03-04T19:42:31.793691,9.116654,-12.102896,-2.344966,0.862541,0.116064,1.411098
2026-03-04T19:42:31.803691,9.312865,-12.002398,-2.383251,1.116661,0.050090,1.457524
2026-03-04T19:42:31.813691,9.820143,-12.055040,-2.809173,1.287703,-0.008552,1.503949
2026-03-04T19:42:31.822691,10.217352,-11.930613,-3.335594,1.412320,-0.050090,1.567479
2026-03-04T19:42:31.832691,10.222138,-11.346764,-3.464807,1.497841,-0.062308,1.638340
2026-03-04T19:42:31.842691,9.633503,-10.710273,-3.369094,1.458745,-0.080634,1.742187
2026-03-04T19:42:31.851691,8.915657,-10.418349,-3.029313,1.293812,-0.147829,1.864360
2026-03-04T19:42:31.861691,8.298308,-10.317851,-2.818745,1.104444,-0.250454,1.977981
2026-03-04T19:42:31.870691,7.637889,-9.949356,-2.555534,0.976162,-0.366519,2.081828
2026-03-04T19:42:31.880691,7.030112,-9.690931,-2.225325,0.883310,-0.485026,2.175901
2026-03-04T19:42:31.890691,6.642475,-9.456434,-2.177468,0.812450,-0.596204,2.262644
2026-03-04T19:42:31.899691,6.326622,-9.049655,-1.890329,0.810007,-0.703716,2.313957
2026-03-04T19:42:31.909691,6.345765,-8.958727,-1.555334,0.806341,-0.833220,2.324952
2026-03-04T19:42:31.918691,6.900900,-9.068797,-1.464407,0.785572,-0.949284,2.315178
2026-03-04T19:42:31.928691,7.345965,-8.958727,-1.584048,0.828333,-1.000597,2.287078
2026-03-04T19:42:31.938691,7.613961,-8.772087,-1.579262,0.880867,-1.007927,2.252870
2026-03-04T19:42:31.947691,7.637889,-8.867800,-1.493121,0.893084,-1.003040,2.217440
2026-03-04T19:42:31.957691,7.623532,-9.422935,-1.210768,0.863763,-0.972497,2.199114
2026-03-04T19:42:31.967691,7.360322,-9.863214,-1.057627,0.916297,-0.906523,2.174679
2026-03-04T19:42:31.976691,6.915257,-9.700502,-1.076770,1.050687,-0.851545,2.151466
2026-03-04T19:42:31.986691,6.565905,-9.399007,-0.894915,1.170417,-0.839328,2.131919
2026-03-04T19:42:31.995691,6.431907,-9.236295,-0.736989,1.194852,-0.867428,2.142914
2026-03-04T19:42:32.005691,6.369693,-8.824729,-0.464207,1.127656,-0.906523,2.161240
2026-03-04T19:42:32.015691,6.340979,-8.394021,-0.344566,0.945619,-0.935845,2.174679
2026-03-04T19:42:32.024691,6.187839,-8.255237,-0.287138,0.682947,-0.955393,2.182010
2026-03-04T19:42:32.034691,6.087340,-8.236095,-0.378065,0.368962,-0.976162,2.193005
2026-03-04T19:42:32.043691,6.111268,-9.293722,-0.267996,0.053756,-0.985936,2.204001
2026-03-04T19:42:32.053691,6.087340,-10.437492,-0.315852,-0.091629,-0.968832,2.206444
2026-03-04T19:42:32.063691,5.795416,-11.050054,-0.181854,-0.056199,-0.940732,2.193005
2026-03-04T19:42:32.072691,5.508277,-11.404192,0.043070,0.094073,-0.932180,2.167349
2026-03-04T19:42:32.082691,5.355136,-11.212766,0.320638,0.300545,-0.935845,2.134362
2026-03-04T19:42:32.092691,5.245067,-10.820343,0.507278,0.494800,-0.917519,2.120923
2026-03-04T19:42:32.101691,5.010570,-10.341779,0.555134,0.651182,-0.883310,2.112371
2026-03-04T19:42:32.111691,4.867001,-9.686145,0.631705,0.723264,-0.835663,2.116036
2026-03-04T19:42:32.120691,4.532006,-9.288937,0.531206,0.715933,-0.775798,2.141693
2026-03-04T19:42:32.130691,4.110869,-8.982656,0.421136,0.675616,-0.724486,2.178344
2026-03-04T19:42:32.140691,3.809373,-8.685946,0.411565,0.636521,-0.667064,2.210109
2026-03-04T19:42:32.149691,3.287738,-8.542376,0.296710,0.598647,-0.605978,2.251648
2026-03-04T19:42:32.159691,2.813959,-8.231309,0.315852,0.599869,-0.566882,2.288300
2026-03-04T19:42:32.168691,2.407179,-7.881957,0.459421,0.602312,-0.548556,2.318843
2026-03-04T19:42:32.178691,2.091326,-7.561319,0.693918,0.604756,-0.546113,2.344500
2026-03-04T19:42:32.188691,1.832902,-7.116254,0.784845,0.668286,-0.526565,2.356717
2026-03-04T19:42:32.197691,1.464407,-6.441478,1.024128,0.723264,-0.525343,2.373821
2026-03-04T19:42:32.207691,1.277767,-6.039484,1.138983,0.759916,-0.540004,2.382373
2026-03-04T19:42:32.217691,1.067198,-5.843272,1.268195,0.762359,-0.568104,2.433686
2026-03-04T19:42:32.226691,1.115055,-5.919843,1.172483,0.772133,-0.604756,2.504546
2026-03-04T19:42:32.236691,1.052841,-5.752345,1.167697,0.840550,-0.620638,2.574185
2026-03-04T19:42:32.245691,0.823130,-5.570491,1.048056,0.907745,-0.641408,2.653598
2026-03-04T19:42:32.255691,0.631705,-5.077569,1.210768,0.994488,-0.687834,2.718349
2026-03-04T19:42:32.265691,0.521635,-4.704289,1.215553,1.017701,-0.729372,2.772105
2026-03-04T19:42:32.274691,0.454636,-4.479363,1.263410,1.088561,-0.747698,2.808757
2026-03-04T19:42:32.284691,0.167497,-3.790230,1.129412,1.198517,-0.767246,2.828305
2026-03-04T19:42:32.293691,0.076570,-3.330809,1.138983,1.290147,-0.806341,2.827083
2026-03-04T19:42:32.303691,0.095712,-3.273381,1.234696,1.331685,-0.829554,2.814866
2026-03-04T19:42:32.313691,0.167497,-3.483949,1.234696,1.370781,-0.849102,2.817309
2026-03-04T19:42:32.322691,0.267996,-3.665804,1.277767,1.477071,-0.833220,2.798983
2026-03-04T19:42:32.332691,0.296710,-3.799802,1.545763,1.606575,-0.831998,2.784323
2026-03-04T19:42:32.342691,0.263210,-3.598805,1.665404,1.781282,-0.795346,2.755001
2026-03-04T19:42:32.351691,0.162711,-3.421736,1.718046,1.894903,-0.752585,2.720793
2026-03-04T19:42:32.361691,-0.076570,-3.292523,1.852044,1.965763,-0.695164,2.680476
2026-03-04T19:42:32.370691,-0.354137,-3.115455,1.957328,1.990198,-0.641408,2.632828
2026-03-04T19:42:32.380691,-0.636490,-2.876172,1.866401,2.007302,-0.579100,2.557081
2026-03-04T19:42:32.390691,-0.870987,-2.632104,1.837687,1.996307,-0.522900,2.467895
2026-03-04T19:42:32.399691,-1.124626,-2.488535,1.823330,1.921781,-0.469144,2.378708
2026-03-04T19:42:32.409691,-1.349551,-2.512463,1.914258,1.775174,-0.447153,2.288300
2026-03-04T19:42:32.418691,-1.368694,-2.565105,2.210968,1.617570,-0.403170,2.185675
2026-03-04T19:42:32.428691,-1.588834,-2.804388,2.627319,1.452637,-0.333532,2.050063
2026-03-04T19:42:32.438691,-1.885544,-3.192025,2.694318,1.313359,-0.238237,1.904677
2026-03-04T19:42:32.447691,-2.215753,-3.627519,2.775674,1.209512,-0.186924,1.765400
2026-03-04T19:42:32.457691,-2.617747,-3.881158,2.761317,1.128878,-0.123394,1.609018
2026-03-04T19:42:32.467691,-3.034099,-4.101297,2.689532,1.032362,-0.078190,1.448972
2026-03-04T19:42:32.476691,-3.306880,-4.168296,2.689532,0.897971,-0.058643,1.298699
2026-03-04T19:42:32.486691,-3.536591,-3.780659,2.924029,0.794124,-0.007330,1.112996
2026-03-04T19:42:32.495691,-3.905086,-3.527020,3.000599,0.580321,0.028099,0.944397
2026-03-04T19:42:32.505691,-4.106083,-3.402593,3.182454,0.322536,0.034208,0.790459
2026-03-04T19:42:32.515691,-4.177868,-3.321237,3.416950,0.065973,0.021991,0.651182
2026-03-04T19:42:32.524691,-4.206582,-3.349951,3.603590,-0.197920,0.003665,0.533896
2026-03-04T19:42:32.534691,-4.287938,-3.694518,3.704089,-0.408057,-0.012217,0.439822
2026-03-04T19:42:32.543691,-4.264009,-3.972085,4.015156,-0.515570,-0.028099,0.343306
2026-03-04T19:42:32.553691,-4.244867,-4.244867,4.402793,-0.548556,-0.043982,0.246789
2026-03-04T19:42:32.563691,-4.364508,-4.527220,4.565505,-0.504574,-0.041538,0.177150
2026-03-04T19:42:32.572691,-4.541577,-4.800002,4.584648,-0.398284,-0.025656,0.084299
2026-03-04T19:42:32.582691,-4.766502,-5.268995,4.426721,-0.268780,-0.025656,0.006108
2026-03-04T19:42:32.592691,-4.828716,-5.589633,4.350151,-0.135612,-0.046425,-0.068416
2026-03-04T19:42:32.601691,-4.718646,-5.714060,4.244867,0.004886,-0.051312,-0.145385
2026-03-04T19:42:32.611691,-4.508077,-5.589633,4.374079,0.105068,-0.037873,-0.227241
2026-03-04T19:42:32.620691,-4.455435,-5.417350,4.426721,0.113620,0.004886,-0.301767
2026-03-04T19:42:32.630691,-4.441078,-5.584847,4.388436,0.013439,0.057421,-0.359188
2026-03-04T19:42:32.640691,-4.450650,-6.034698,4.292723,-0.147829,0.101403,-0.409279
2026-03-04T19:42:32.649691,-4.402793,-6.537191,4.307080,-0.291993,0.133168,-0.459370
2026-03-04T19:42:32.659691,-4.388436,-6.838686,4.388436,-0.365297,0.163711,-0.508239
2026-03-04T19:42:32.668691,-4.388436,-6.977470,4.287938,-0.384845,0.195476,-0.557108
2026-03-04T19:42:32.678691,-4.374079,-6.814758,4.426721,-0.359188,0.223576,-0.619417
2026-03-04T19:42:32.688691,-4.417150,-6.403193,4.536791,-0.342084,0.234572,-0.685390
2026-03-04T19:42:32.697691,-4.230510,-6.159125,4.407579,-0.356745,0.251676,-0.750142
2026-03-04T19:42:32.707691,-4.177868,-5.996413,4.407579,-0.384845,0.285884,-0.811228
2026-03-04T19:42:32.717691,-4.153940,-5.757131,4.479363,-0.379958,0.323758,-0.873537
2026-03-04T19:42:32.726691,-4.216153,-5.374279,4.465006,-0.340862,0.350636,-0.945619
2026-03-04T19:42:32.736691,-4.230510,-4.881358,4.388436,-0.288328,0.362853,-1.025031
2026-03-04T19:42:32.745691,-4.120440,-4.402793,4.393222,-0.226020,0.371405,-1.122770
2026-03-04T19:42:32.755691,-4.015156,-4.144368,4.359722,-0.208915,0.373849,-1.222951
2026-03-04T19:42:32.765691,-3.804587,-4.292723,4.278366,-0.218689,0.381179,-1.315803
2026-03-04T19:42:32.774691,-3.364308,-4.345365,4.110869,-0.200363,0.393397,-1.411098
2026-03-04T19:42:32.784691,-3.062812,-4.412364,3.948157,-0.169820,0.404392,-1.492954
2026-03-04T19:42:32.793691,-2.636890,-4.125226,3.747160,-0.138055,0.434935,-1.590692
2026-03-04T19:42:32.803691,-2.287538,-3.833301,3.617947,-0.129503,0.471587,-1.699426
2026-03-04T19:42:32.813691,-2.053041,-3.335594,3.330809,-0.162490,0.518013,-1.820378
2026-03-04T19:42:32.822691,-1.919043,-2.876172,3.043670,-0.223576,0.553443,-1.941329
2026-03-04T19:42:32.832691,-1.823330,-2.555534,2.818745,-0.311541,0.585208,-2.072054
2026-03-04T19:42:32.842691,-1.617548,-2.191825,2.622533,-0.428827,0.609643,-2.212553
2026-03-04T19:42:32.851691,-1.440479,-1.995614,2.483749,-0.564439,0.636521,-2.364047
2026-03-04T19:42:32.861691,-1.253839,-1.861615,2.383251,-0.685390,0.662177,-2.531425
2026-03-04T19:42:32.870691,-0.995414,-1.718046,2.330609,-0.781907,0.680503,-2.707354
2026-03-04T19:42:32.880691,-0.851844,-1.646261,2.258824,-0.863763,0.684168,-2.880839
2026-03-04T19:42:32.890691,-0.569491,-1.540977,2.096112,-0.901636,0.660956,-3.053103
2026-03-04T19:42:32.899691,0.000000,-1.282552,1.823330,-0.940732,0.619417,-3.215593
2026-03-04T19:42:32.909691,0.574277,-1.215553,1.574477,-1.000597,0.575434,-3.349984
2026-03-04T19:42:32.918691,1.258624,-1.186840,1.397408,-1.093448,0.542448,-3.448944
2026-03-04T19:42:32.928691,1.641476,-1.215553,1.105484,-1.193630,0.536339,-3.521026
2026-03-04T19:42:32.938691,1.890329,-1.249053,0.708275,-1.291368,0.544891,-3.565008
2026-03-04T19:42:32.947691,1.981257,-1.272981,0.253639,-1.361007,0.552222,-3.610212
2026-03-04T19:42:32.957691,1.942971,-1.469193,-0.081355,-1.445306,0.554665,-3.652973
2026-03-04T19:42:32.967691,1.947757,-1.871187,-0.291924,-1.474628,0.536339,-3.711616
2026-03-04T19:42:32.976691,2.110469,-2.699103,-0.435493,-1.467297,0.499687,-3.775146
2026-03-04T19:42:32.986691,2.569891,-4.268795,-0.574277,-1.442863,0.436157,-3.798359
2026-03-04T19:42:32.995691,3.302095,-5.804987,-0.660419,-1.314581,0.354301,-3.784920
2026-03-04T19:42:33.005691,4.254438,-6.417550,-0.507278,-1.003040,0.343306,-3.795915
2026-03-04T19:42:33.015691,4.599005,-5.828915,-0.406779,-0.640186,0.423940,-3.831345
2026-03-04T19:42:33.024691,4.498506,-4.742574,-0.531206,-0.414166,0.488692,-3.870441
2026-03-04T19:42:33.034691,4.407579,-3.957728,-0.526420,-0.372627,0.472809,-3.930306
2026-03-04T19:42:33.043691,4.766502,-3.828516,-0.445065,-0.505796,0.417831,-3.965736
2026-03-04T19:42:33.053691,5.259424,-4.086941,-0.564706,-0.718377,0.378736,-3.969401
2026-03-04T19:42:33.063691,5.752345,-5.221138,-0.780060,-0.998153,0.388510,-3.909536
2026-03-04T19:42:33.072691,6.570690,-8.111668,-1.722832,-1.510058,0.398284,-3.700620
2026-03-04T19:42:33.082691,7.690531,-10.547562,-1.957328,-1.821599,0.410501,-3.447722
2026-03-04T19:42:33.092691,8.575876,-11.949756,-2.206182,-1.907120,0.513126,-3.226589
2026-03-04T19:42:33.101691,8.561519,-12.007183,-2.325823,-1.776395,0.674395,-3.026225
2026-03-04T19:42:33.111691,7.312465,-10.236495,-2.670390,-1.434311,0.806341,-2.908939
2026-03-04T19:42:33.120691,5.934200,-8.207381,-2.411965,-1.128878,0.762359,-2.862513
2026-03-04T19:42:33.130691,5.742774,-7.642675,-1.852044,-1.188743,0.516791,-2.789210
2026-03-04T19:42:33.140691,6.805187,-8.772087,-1.416550,-1.450193,0.304210,-2.687806
2026-03-04T19:42:33.149691,7.805387,-10.025926,-1.043270,-1.580918,0.337197,-2.577850
2026-03-04T19:42:33.159691,7.637889,-10.925627,-1.378265,-1.628566,0.487470,-2.411695
2026-03-04T19:42:33.168691,6.857829,-11.184052,-1.718046,-1.550375,0.527787,-2.244318
2026-03-04T19:42:33.178691,6.269195,-10.643274,-1.258624,-1.304807,0.437379,-2.140471
2026-03-04T19:42:33.188691,5.996413,-9.987641,-0.574277,-1.100778,0.311541,-2.039067
2026-03-04T19:42:33.197691,5.986842,-9.461220,-0.143569,-1.004262,0.215024,-1.918116
2026-03-04T19:42:33.207691,6.245266,-9.178867,0.224925,-0.972497,0.167377,-1.844812
2026-03-04T19:42:33.217691,6.608976,-9.346365,0.229710,-0.987158,0.153938,-1.810604
2026-03-04T19:42:33.226691,7.073183,-9.815358,0.119641,-0.976162,0.175929,-1.799608
2026-03-04T19:42:33.236691,7.302894,-10.346564,-0.162711,-0.927293,0.213802,-1.810604
2026-03-04T19:42:33.245691,7.250252,-11.270194,-0.564706,-0.869871,0.227241,-1.794721
2026-03-04T19:42:33.255691,7.274180,-11.868400,-0.894915,-0.766024,0.191811,-1.732413
2026-03-04T19:42:33.265691,7.288537,-11.921042,-1.598405,-0.599869,0.114842,-1.659109
2026-03-04T19:42:33.274691,7.422535,-11.475977,-1.914258,-0.449596,-0.008552,-1.560149
2026-03-04T19:42:33.284691,7.834101,-11.332407,-1.852044,-0.475253,-0.139277,-1.440419
2026-03-04T19:42:33.293691,8.537591,-11.834900,-1.646261,-0.678060,-0.229685,-1.293812
2026-03-04T19:42:33.303691,9.188438,-12.524033,-1.239482,-0.880867,-0.273667,-1.132543
2026-03-04T19:42:33.313691,9.710074,-12.940384,-0.923629,-1.005483,-0.290771,-0.972497
2026-03-04T19:42:33.322691,9.834500,-12.820743,-1.048056,-1.017701,-0.300545,-0.821002
2026-03-04T19:42:33.332691,9.714859,-12.150753,-1.225125,-0.928514,-0.302989,-0.697607
2026-03-04T19:42:33.342691,9.609575,-11.571690,-1.239482,-0.840550,-0.306654,-0.583987
2026-03-04T19:42:33.351691,9.284151,-11.035697,-1.191625,-0.750142,-0.296880,-0.497244
2026-03-04T19:42:33.361691,9.083154,-10.729416,-1.162911,-0.671951,-0.288328,-0.428827
2026-03-04T19:42:33.370691,9.030512,-10.595418,-1.344766,-0.571769,-0.299323,-0.371405
2026-03-04T19:42:33.380691,9.207581,-10.590632,-1.129412,-0.392175,-0.323758,-0.328645
2026-03-04T19:42:33.390691,9.604789,-10.983055,-1.028913,-0.276111,-0.333532,-0.260228
2026-03-04T19:42:33.399691,9.944570,-11.145767,-1.119840,-0.100181,-0.302989,-0.194255
2026-03-04T19:42:33.409691,10.150353,-11.083554,-1.182054,0.059864,-0.230907,-0.138055
2026-03-04T19:42:33.418691,10.112068,-11.322836,-1.387837,0.117286,-0.191811,-0.057421
2026-03-04T19:42:33.428691,10.135996,-11.351550,-1.244267,0.146607,-0.164933,0.014660
2026-03-04T19:42:33.438691,10.231709,-11.452048,-1.024128,0.140498,-0.139277,0.081855
2026-03-04T19:42:33.447691,10.427920,-11.552547,-0.870987,0.105068,-0.130725,0.117286
2026-03-04T19:42:33.457691,11.050054,-11.519047,-0.837487,0.068416,-0.151494,0.133168
2026-03-04T19:42:33.467691,11.854043,-11.351550,-0.837487,0.000000,-0.156381,0.136833
2026-03-04T19:42:33.476691,13.323236,-10.480562,0.966700,-0.283441,-0.255341,0.232128
2026-03-04T19:42:33.486691,13.342378,-9.647860,1.454836,-0.983492,-0.238237,0.351858
2026-03-04T19:42:33.495691,14.773286,-11.782258,0.971485,-2.004859,-0.178372,0.371405
2026-03-04T19:42:33.505691,15.720844,-14.878570,-0.617348,-2.343278,0.109955,0.257785
2026-03-04T19:42:33.515691,16.433905,-18.530018,-1.952543,-2.037846,0.345749,0.315206
2026-03-04T19:42:33.524691,16.055840,-20.085352,-3.067598,-1.051909,0.585208,0.318871
2026-03-04T19:42:33.534691,14.768501,-19.156937,-3.378665,0.152716,0.773355,0.205250
2026-03-04T19:42:33.543691,13.648660,-17.108681,-3.335594,1.176526,0.779463,0.010995
2026-03-04T19:42:33.553691,13.639088,-15.491133,-2.708675,1.720196,0.586430,-0.188146
2026-03-04T19:42:33.563691,15.232708,-15.285350,-2.579462,1.847256,0.403170,-0.351858
2026-03-04T19:42:33.572691,16.601402,-14.926427,-2.569891,1.849699,0.252898,-0.464257
2026-03-04T19:42:33.582691,17.682959,-14.443077,-2.871387,1.433089,0.087964,-0.425162
2026-03-04T19:42:33.592691,17.505890,-13.897513,-3.498306,1.039692,0.073303,-0.422718
2026-03-04T19:42:33.601691,16.754543,-13.418949,-3.081955,0.535117,0.078190,-0.362853
2026-03-04T19:42:33.611691,15.280565,-12.849457,-2.799602,0.164933,0.123394,-0.161268
2026-03-04T19:42:33.620691,13.514662,-12.212966,-2.584248,-0.241902,0.155159,0.002443
2026-03-04T19:42:33.630691,11.968898,-12.634103,-2.732603,-0.491135,0.127059,0.119729
2026-03-04T19:42:33.640691,10.365707,-12.567104,-2.541177,-0.351858,0.054977,0.244346
2026-03-04T19:42:33.649691,9.083154,-12.069397,-2.210968,-0.085521,-0.048869,0.335975
2026-03-04T19:42:33.659691,8.408378,-11.657831,-2.053041,0.223576,-0.177150,0.403170
2026-03-04T19:42:33.668691,8.197810,-11.294122,-2.100898,0.529009,-0.293215,0.433714
2026-03-04T19:42:33.678691,8.341379,-10.652846,-2.273181,0.796568,-0.359188,0.450818
2026-03-04T19:42:33.688691,8.470592,-9.896714,-2.727817,0.946840,-0.371405,0.489913
2026-03-04T19:42:33.697691,8.437092,-9.513862,-2.938386,0.965166,-0.351858,0.549778
2026-03-04T19:42:33.707691,8.188238,-9.858429,-2.842673,0.866206,-0.299323,0.649960
2026-03-04T19:42:33.717691,7.585247,-10.365707,-3.072384,0.726929,-0.232128,0.767246
2026-03-04T19:42:33.726691,6.824330,-10.829915,-3.096312,0.648738,-0.226020,0.878424
2026-03-04T19:42:33.736691,6.053841,-10.877771,-2.952743,0.662177,-0.300545,0.974940
2026-03-04T19:42:33.745691,5.642275,-10.801201,-2.746960,0.689055,-0.439822,1.069013
2026-03-04T19:42:33.755691,5.527420,-10.566704,-2.316252,0.736703,-0.586430,1.158200
2026-03-04T19:42:33.765691,5.608776,-10.169496,-1.986042,0.745255,-0.715933,1.236390
2026-03-04T19:42:33.774691,5.733202,-9.796215,-1.622333,0.706160,-0.825889,1.306029
2026-03-04T19:42:33.784691,5.814558,-9.623932,-1.359123,0.614530,-0.904080,1.367116
2026-03-04T19:42:33.793691,5.953342,-9.920642,-0.914058,0.486248,-0.945619,1.430646
2026-03-04T19:42:33.803691,6.187839,-10.461420,-0.669990,0.403170,-0.956614,1.489289
2026-03-04T19:42:33.813691,6.403193,-11.184052,-0.612562,0.392175,-0.941954,1.547932
2026-03-04T19:42:33.822691,6.513263,-11.552547,-0.736989,0.509461,-0.932180,1.602910
2026-03-04T19:42:33.832691,6.747759,-11.609975,-0.679561,0.701273,-0.928514,1.646892
2026-03-04T19:42:33.842691,6.910471,-11.442477,-0.851844,0.891863,-0.919962,1.688431
2026-03-04T19:42:33.851691,7.226324,-11.102696,-1.033699,1.065348,-0.899193,1.732413
2026-03-04T19:42:33.861691,7.666603,-10.987841,-1.024128,1.161865,-0.878424,1.787391
2026-03-04T19:42:33.870691,8.102097,-11.231909,-0.995414,1.193630,-0.828333,1.852143
2026-03-04T19:42:33.880691,8.312665,-11.447263,-0.952343,1.185078,-0.757472,1.923003
2026-03-04T19:42:33.890691,8.408378,-11.370692,-0.995414,1.198517,-0.669508,1.993863
2026-03-04T19:42:33.899691,8.102097,-11.145767,-1.048056,1.218065,-0.607199,2.061058
2026-03-04T19:42:33.909691,8.035098,-10.930413,-0.847059,1.207069,-0.590095,2.117258
2026-03-04T19:42:33.918691,8.068597,-10.628917,-0.803988,1.183856,-0.598647,2.146580
2026-03-04T19:42:33.928691,8.264809,-10.408778,-0.832702,1.125213,-0.602312,2.145358
2026-03-04T19:42:33.938691,8.336593,-10.356136,-0.646062,1.055574,-0.548556,2.145358
2026-03-04T19:42:33.947691,8.092526,-10.341779,-0.689132,1.001818,-0.464257,2.151466
2026-03-04T19:42:33.957691,7.661817,-10.116853,-0.698704,1.016479,-0.408057,2.155132
2026-03-04T19:42:33.967691,7.298108,-9.753144,-0.497707,1.060461,-0.382401,2.155132
2026-03-04T19:42:33.976691,6.982256,-9.729216,-0.296710,1.059240,-0.371405,2.168571
2026-03-04T19:42:33.986691,6.719045,-9.705288,-0.248853,1.038470,-0.346971,2.193005
2026-03-04T19:42:33.995691,6.360122,-9.667003,-0.263210,1.015257,-0.321315,2.219883
2026-03-04T19:42:34.005691,5.828915,-9.140582,-0.244067,1.031140,-0.307876,2.233322
2026-03-04T19:42:34.015691,5.225924,-8.379664,-0.172283,1.047022,-0.311541,2.233322
2026-03-04T19:42:34.024691,4.737788,-7.858029,-0.038285,1.039692,-0.311541,2.228435
2026-03-04T19:42:34.034691,4.206582,-7.345965,0.043070,0.990823,-0.304210,2.224770
2026-03-04T19:42:34.043691,3.718446,-7.121040,0.023928,0.935845,-0.306654,2.228435
2026-03-04T19:42:34.053691,3.359522,-6.714260,0.043070,0.910189,-0.328645,2.221105
2026-03-04T19:42:34.063691,2.938386,-6.446264,0.009571,0.906523,-0.349414,2.207666
2026-03-04T19:42:34.072691,2.689532,-6.092126,0.086141,0.907745,-0.376292,2.207666
2026-03-04T19:42:34.082691,2.416750,-5.680560,0.177068,0.939510,-0.388510,2.205223
2026-03-04T19:42:34.092691,2.201396,-5.211567,0.248853,0.993266,-0.397062,2.204001
2026-03-04T19:42:34.101691,1.928615,-4.551148,0.483350,1.060461,-0.410501,2.194227
2026-03-04T19:42:34.111691,1.641476,-3.905086,0.665204,1.083674,-0.423940,2.183231
2026-03-04T19:42:34.120691,1.483550,-3.584448,0.689132,1.039692,-0.432492,2.180788
2026-03-04T19:42:34.130691,1.392622,-3.914657,0.784845,0.923628,-0.438601,2.212553
2026-03-04T19:42:34.140691,1.354337,-4.297509,0.736989,0.858876,-0.464257,2.236988
2026-03-04T19:42:34.149691,1.373480,-4.445864,0.708275,0.910189,-0.466700,2.252870
2026-03-04T19:42:34.159691,1.287338,-4.479363,0.636490,0.968832,-0.489913,2.282192
2026-03-04T19:42:34.168691,1.277767,-4.149154,0.722632,1.055574,-0.492357,2.274861
2026-03-04T19:42:34.178691,1.115055,-4.010370,0.674775,1.082452,-0.485026,2.261422
2026-03-04T19:42:34.188691,0.890130,-3.665804,0.727418,1.120326,-0.470366,2.223549
2026-03-04T19:42:34.197691,0.669990,-3.627519,0.736989,1.095892,-0.448374,2.190562
2026-03-04T19:42:34.207691,0.550349,-4.039084,0.617348,1.039692,-0.455705,2.168571
2026-03-04T19:42:34.217691,0.569491,-4.426721,0.411565,1.014036,-0.466700,2.168571
2026-03-04T19:42:34.226691,0.727418,-4.776073,0.502492,1.010370,-0.514348,2.191784
2026-03-04T19:42:34.236691,1.095912,-4.967499,0.650847,1.012814,-0.538783,2.216218
2026-03-04T19:42:34.245691,1.263410,-4.819144,0.684347,1.018923,-0.509461,2.233322
2026-03-04T19:42:34.255691,0.990628,-4.532006,0.909272,1.010370,-0.433714,2.246761
2026-03-04T19:42:34.265691,0.574277,-4.541577,1.158126,0.945619,-0.371405,2.262644
2026-03-04T19:42:34.274691,-0.076570,-4.445864,1.454836,0.959058,-0.331088,2.254092
2026-03-04T19:42:34.284691,-0.631705,-4.383651,1.708475,1.016479,-0.321315,2.230879
2026-03-04T19:42:34.293691,-1.014556,-4.517649,1.818545,1.033583,-0.349414,2.196670
2026-03-04T19:42:34.303691,-1.014556,-4.417150,2.182254,1.131322,-0.383623,2.105041
2026-03-04T19:42:34.313691,-1.004985,-4.388436,2.297109,1.205847,-0.376292,1.997528
2026-03-04T19:42:34.322691,-0.981057,-4.307080,2.636890,1.288925,-0.354301,1.869247
2026-03-04T19:42:34.332691,-0.894915,-3.833301,3.067598,1.370781,-0.280997,1.703091
2026-03-04T19:42:34.342691,-1.043270,-3.584448,3.239881,1.308473,-0.184481,1.555262
2026-03-04T19:42:34.351691,-1.167697,-3.536591,3.302095,1.163087,-0.087964,1.422093
2026-03-04T19:42:34.361691,-1.459621,-3.144168,3.455235,1.023809,0.020769,1.271821
2026-03-04T19:42:34.370691,-1.899901,-2.809173,3.426521,0.817337,0.119729,1.122770
2026-03-04T19:42:34.380691,-2.364108,-2.555534,3.239881,0.571769,0.199142,0.955393
2026-03-04T19:42:34.390691,-2.852244,-2.713460,2.976671,0.283441,0.249232,0.774576
2026-03-04T19:42:34.399691,-3.220739,-3.259024,2.737389,0.008552,0.262671,0.591317
2026-03-04T19:42:34.409691,-3.354737,-3.555734,2.742174,-0.151494,0.243124,0.398284
2026-03-04T19:42:34.418691,-3.407379,-3.728017,2.813959,-0.239459,0.200363,0.211359
2026-03-04T19:42:34.428691,-3.254238,-3.847658,3.163311,-0.311541,0.161268,0.037873
2026-03-04T19:42:34.438691,-3.067598,-3.823730,3.225524,-0.397062,0.142942,-0.116064
2026-03-04T19:42:34.447691,-2.880958,-4.029513,3.359522,-0.497244,0.138055,-0.257785
2026-03-04T19:42:34.457691,-2.742174,-4.398007,3.584448,-0.592539,0.140498,-0.388510
2026-03-04T19:42:34.467691,-2.660818,-4.924428,3.584448,-0.613308,0.160046,-0.502131
2026-03-04T19:42:34.476691,-2.703889,-5.235495,3.527020,-0.571769,0.172263,-0.602312
2026-03-04T19:42:34.486691,-2.617747,-5.771488,3.282952,-0.537561,0.161268,-0.682947
2026-03-04T19:42:34.495691,-2.359323,-6.398407,3.014956,-0.511904,0.147829,-0.758694
2026-03-04T19:42:34.505691,-2.096112,-6.891329,2.943171,-0.439822,0.162490,-0.838106
2026-03-04T19:42:34.515691,-1.828116,-7.015755,2.727817,-0.340862,0.207694,-0.915075
2026-03-04T19:42:34.524691,-1.832902,-6.752545,2.641676,-0.267558,0.261450,-0.996931
2026-03-04T19:42:34.534691,-1.875972,-6.441478,2.555534,-0.239459,0.299323,-1.093448
2026-03-04T19:42:34.543691,-1.852044,-6.111268,2.603390,-0.267558,0.315206,-1.186300
2026-03-04T19:42:34.553691,-1.713260,-5.747559,2.632104,-0.346971,0.324980,-1.275486
2026-03-04T19:42:34.563691,-1.497906,-5.498706,2.622533,-0.474031,0.344527,-1.356120
2026-03-04T19:42:34.572691,-1.301695,-5.431707,2.579462,-0.593760,0.382401,-1.436754
2026-03-04T19:42:34.582691,-1.249053,-5.197210,2.565105,-0.686612,0.433714,-1.522275
2026-03-04T19:42:34.592691,-1.201196,-5.120640,2.550748,-0.746477,0.476474,-1.605353
2026-03-04T19:42:34.601691,-1.339980,-4.996213,2.469392,-0.764803,0.507018,-1.695761
2026-03-04T19:42:34.611691,-1.268195,-4.723431,2.459821,-0.751364,0.515570,-1.789834
2026-03-04T19:42:34.620691,-1.162911,-4.565505,2.311466,-0.724486,0.515570,-1.880242
2026-03-04T19:42:34.630691,-0.957129,-4.369294,2.167897,-0.706160,0.508239,-1.970650
2026-03-04T19:42:34.640691,-0.799202,-4.086941,2.043470,-0.706160,0.500909,-2.041511
2026-03-04T19:42:34.649691,-0.574277,-3.847658,1.933400,-0.690277,0.494800,-2.113593
2026-03-04T19:42:34.659691,-0.397208,-3.708875,1.804188,-0.678060,0.486248,-2.174679
2026-03-04T19:42:34.668691,-0.248853,-3.704089,1.684547,-0.679282,0.470366,-2.219883
2026-03-04T19:42:34.678691,-0.066999,-3.785445,1.469193,-0.691499,0.442266,-2.250427
2026-03-04T19:42:34.688691,0.253639,-3.842873,1.268195,-0.678060,0.416610,-2.279748
2026-03-04T19:42:34.697691,0.507278,-3.780659,1.153340,-0.627969,0.404392,-2.299296
2026-03-04T19:42:34.707691,0.679561,-3.517449,1.019342,-0.557108,0.393397,-2.320065
2026-03-04T19:42:34.717691,0.856630,-3.349951,0.966700,-0.491135,0.384845,-2.351830
2026-03-04T19:42:34.726691,0.961914,-3.220739,0.981057,-0.456927,0.375071,-2.381152
2026-03-04T19:42:34.736691,1.129412,-3.187239,0.995414,-0.410501,0.373849,-2.422691
2026-03-04T19:42:34.745691,1.387837,-3.101098,0.909272,-0.346971,0.375071,-2.465451
2026-03-04T19:42:34.755691,1.497906,-3.019742,0.808774,-0.290771,0.384845,-2.510655
2026-03-04T19:42:34.765691,1.598405,-2.775674,0.674775,-0.235793,0.390953,-2.555859
2026-03-04T19:42:34.774691,1.741974,-2.646461,0.545563,-0.193033,0.403170,-2.605950
2026-03-04T19:42:34.784691,1.847259,-2.407179,0.334995,-0.175929,0.410501,-2.656041
2026-03-04T19:42:34.793691,2.048256,-2.397608,0.138783,-0.208915,0.421496,-2.702467
2026-03-04T19:42:34.803691,2.225325,-2.478964,0.114855,-0.254119,0.423940,-2.752558
2026-03-04T19:42:34.813691,2.359323,-2.684746,0.224925,-0.343306,0.408057,-2.781879
2026-03-04T19:42:34.822691,2.718246,-2.962314,0.267996,-0.456927,0.384845,-2.805092
2026-03-04T19:42:34.832691,3.134597,-3.182454,0.373280,-0.564439,0.376292,-2.829527
2026-03-04T19:42:34.842691,3.287738,-3.412165,0.440279,-0.709825,0.392175,-2.833192
2026-03-04T19:42:34.851691,3.460021,-3.742374,-0.086141,-0.902858,0.390953,-2.808757
2026-03-04T19:42:34.861691,3.885943,-4.316651,-0.354137,-1.077566,0.348193,-2.785544
2026-03-04T19:42:34.870691,4.532006,-4.766502,-0.306281,-1.171639,0.298102,-2.796540
2026-03-04T19:42:34.880691,5.288137,-5.283352,-0.224925,-1.244943,0.280997,-2.807536
2026-03-04T19:42:34.890691,6.163911,-5.910271,-0.090927,-1.276708,0.324980,-2.828305
2026-03-04T19:42:34.899691,6.800401,-6.474977,-0.090927,-1.275486,0.401949,-2.851518
2026-03-04T19:42:34.909691,7.446463,-6.948756,0.244067,-1.224173,0.482583,-2.890613
2026-03-04T19:42:34.918691,7.886743,-7.082754,0.631705,-1.159421,0.566882,-2.906496
2026-03-04T19:42:34.928691,7.996813,-6.905686,0.555134,-1.122770,0.656069,-2.894278
2026-03-04T19:42:34.938691,7.834101,-6.518048,0.186640,-1.142317,0.722042,-2.896722
2026-03-04T19:42:34.947691,7.389036,-6.120840,-0.311066,-1.219286,0.747698,-2.919935
2026-03-04T19:42:34.957691,7.264609,-6.144768,-0.837487,-1.310916,0.713490,-2.973691
2026-03-04T19:42:34.967691,7.307680,-7.527819,-1.871187,-1.600466,0.645073,-2.959030
2026-03-04T19:42:34.976691,7.700103,-9.973284,-3.359522,-1.958433,0.491135,-2.863735
2026-03-04T19:42:34.986691,8.805587,-11.715259,-3.857230,-1.885129,0.299323,-2.831970
2026-03-04T19:42:34.995691,10.451849,-12.643674,-2.991028,-1.389107,0.178372,-2.829527
2026-03-04T19:42:35.005691,11.638689,-12.327822,-2.000399,-0.778242,0.196698,-2.731788
2026-03-04T19:42:35.015691,11.839686,-11.251051,-1.540977,-0.492357,0.208915,-2.557081
2026-03-04T19:42:35.024691,11.978469,-10.456634,-0.976271,-0.646295,0.160046,-2.397034
2026-03-04T19:42:35.034691,12.236894,-10.389635,-0.421136,-1.059240,0.150272,-2.269974
2026-03-04T19:42:35.043691,12.088539,-10.633703,-0.406779,-1.430646,0.219911,-2.166127
2026-03-04T19:42:35.053691,11.456834,-10.987841,-0.564706,-1.595579,0.304210,-2.095267
2026-03-04T19:42:35.063691,10.863414,-11.901899,-0.660419,-1.659109,0.343306,-2.020741
2026-03-04T19:42:35.072691,10.293922,-12.433106,-1.201196,-1.545488,0.309097,-1.943772
2026-03-04T19:42:35.082691,9.978070,-12.543176,-2.091326,-1.248608,0.197920,-1.870468
2026-03-04T19:42:35.092691,10.418349,-12.729816,-2.029113,-0.944397,0.041538,-1.782504
2026-03-04T19:42:35.101691,11.590832,-13.586446,-1.416550,-0.783129,-0.079412,-1.644448
2026-03-04T19:42:35.111691,12.509676,-14.400006,-0.899701,-0.706160,-0.094073,-1.448972
2026-03-04T19:42:35.120691,12.772887,-14.648859,-0.765703,-0.627969,-0.042760,-1.263269
2026-03-04T19:42:35.130691,12.586246,-14.218151,-0.760917,-0.491135,-0.008552,-1.133765
2026-03-04T19:42:35.140691,12.088539,-13.232308,-0.641276,-0.312762,0.010995,-1.038470
2026-03-04T19:42:35.149691,11.389835,-12.126824,-0.416351,-0.119729,-0.006108,-0.954171
2026-03-04T19:42:35.159691,10.906485,-11.093125,-0.234496,-0.037873,-0.034208,-0.874758
2026-03-04T19:42:35.168691,10.442277,-10.126425,-0.631705,-0.085521,-0.047647,-0.803898
2026-03-04T19:42:35.178691,10.274780,-9.891928,-1.052841,-0.174707,-0.101403,-0.728151
2026-03-04T19:42:35.188691,10.949556,-10.561918,-1.043270,-0.240680,-0.189368,-0.663399
2026-03-04T19:42:35.197691,12.174681,-11.868400,-1.138983,-0.291993,-0.251676,-0.581543
2026-03-04T19:42:35.207691,13.313664,-13.294522,-1.119840,-0.265115,-0.265115,-0.458148
2026-03-04T19:42:35.217691,14.122438,-14.309079,-0.870987,-0.186924,-0.239459,-0.334754
2026-03-04T19:42:35.226691,14.782858,-14.639288,-0.736989,-0.057421,-0.195476,-0.248011
2026-03-04T19:42:35.236691,14.902499,-14.337793,-0.378065,0.100181,-0.163711,-0.201585
2026-03-04T19:42:35.245691,15.060425,-13.940584,0.023928,0.190589,-0.139277,-0.163711
2026-03-04T19:42:35.255691,15.237494,-13.658231,0.066999,0.171042,-0.095294,-0.122173
2026-03-04T19:42:35.265691,15.113067,-13.581661,-0.162711,0.081855,-0.037873,-0.096516
2026-03-04T19:42:35.274691,14.840285,-13.500305,-0.650847,-0.023212,-0.003665,-0.091629
2026-03-04T19:42:35.284691,14.596217,-13.710873,-1.497906,-0.118507,-0.007330,-0.087964
2026-03-04T19:42:35.293691,14.663216,-14.088939,-2.187039,-0.117286,-0.050090,-0.106290
2026-03-04T19:42:35.303691,15.060425,-15.050854,-2.756531,-0.051312,-0.108733,-0.144164
2026-03-04T19:42:35.313691,15.725630,-16.539188,-3.225524,0.122173,-0.169820,-0.160046
2026-03-04T19:42:35.322691,16.409977,-17.448462,-3.263810,0.426383,-0.257785,-0.167377
2026-03-04T19:42:35.332691,17.285749,-17.505890,-3.297309,0.712268,-0.400727,-0.139277
2026-03-04T19:42:35.342691,17.998812,-16.342978,-2.885744,0.938288,-0.530230,-0.063529
2026-03-04T19:42:35.351691,17.860027,-14.577075,-2.311466,0.979827,-0.518013,0.083077
2026-03-04T19:42:35.361691,16.878969,-13.217952,-1.359123,0.819780,-0.378736,0.288328
2026-03-04T19:42:35.370691,15.414563,-12.212966,-0.497707,0.552222,-0.267558,0.505796
2026-03-04T19:42:35.380691,14.069796,-11.289337,-0.358923,0.329867,-0.266337,0.686612
2026-03-04T19:42:35.390691,13.241880,-9.973284,-0.736989,0.262671,-0.333532,0.797789
2026-03-04T19:42:35.399691,12.595818,-8.733802,-1.450050,0.278554,-0.381179,0.867428
2026-03-04T19:42:35.409691,12.083754,-8.408378,-1.847259,0.293215,-0.370184,0.943175
2026-03-04T19:42:35.418691,11.308479,-8.762516,-1.880758,0.342084,-0.316428,1.027475
2026-03-04T19:42:35.428691,10.518848,-9.279366,-1.928615,0.425162,-0.270002,1.100778
2026-03-04T19:42:35.438691,9.829715,-9.954142,-2.024327,0.553443,-0.272445,1.181413
2026-03-04T19:42:35.447691,9.274580,-10.097711,-2.096112,0.763581,-0.340862,1.268155
2026-03-04T19:42:35.457691,9.121439,-9.284151,-1.799402,1.009149,-0.449596,1.343903
2026-03-04T19:42:35.467691,9.528219,-8.518448,-1.421336,1.076344,-0.566882,1.401324
2026-03-04T19:42:35.476691,10.322636,-8.499305,-1.488335,0.987158,-0.630412,1.472184
2026-03-04T19:42:35.486691,10.542776,-8.475377,-1.536192,0.915075,-0.582765,1.530827
2026-03-04T19:42:35.495691,10.155139,-8.427521,-1.459621,0.831998,-0.494800,1.580918
2026-03-04T19:42:35.505691,9.623932,-8.561519,-1.670190,0.745255,-0.466700,1.620014
2026-03-04T19:42:35.515691,9.221938,-8.690731,-1.569691,0.731816,-0.483805,1.670105
2026-03-04T19:42:35.524691,8.848657,-8.571090,-1.574477,0.741590,-0.503352,1.715309
2026-03-04T19:42:35.534691,8.451449,-8.748159,-1.631905,0.737925,-0.515570,1.761734
2026-03-04T19:42:35.543691,8.068597,-9.054440,-1.521835,0.763581,-0.541226,1.811825
2026-03-04T19:42:35.553691,8.121239,-9.504291,-1.440479,0.834441,-0.610865,1.857029
2026-03-04T19:42:35.563691,8.451449,-9.609575,-1.378265,0.976162,-0.700051,1.880242
2026-03-04T19:42:35.572691,8.968299,-9.260223,-1.330409,1.120326,-0.747698,1.893681
2026-03-04T19:42:35.582691,9.221938,-8.958727,-1.268195,1.172861,-0.715933,1.909564
2026-03-04T19:42:35.592691,8.977870,-8.738588,-1.325623,1.138652,-0.642630,1.942551
2026-03-04T19:42:35.601691,8.580661,-8.461020,-1.071984,1.089783,-0.587652,1.965763
2026-03-04T19:42:35.611691,8.121239,-8.279166,-0.952343,0.992044,-0.566882,1.990198
2026-03-04T19:42:35.620691,7.872386,-8.508877,-0.966700,0.878424,-0.570548,2.023185
2026-03-04T19:42:35.630691,7.757530,-9.188438,-1.033699,0.757472,-0.577878,2.054950
2026-03-04T19:42:35.640691,7.767102,-9.633503,-0.937986,0.692721,-0.570548,2.089158
2026-03-04T19:42:35.649691,7.499106,-9.820143,-0.775274,0.706160,-0.509461,2.123367
2026-03-04T19:42:35.659691,7.049255,-9.934999,-0.655633,0.731816,-0.434935,2.157575
2026-03-04T19:42:35.668691,6.671189,-10.049854,-0.440279,0.799011,-0.382401,2.183231
2026-03-04T19:42:35.678691,6.360122,-10.073783,-0.162711,0.893084,-0.344527,2.188118
2026-03-04T19:42:35.688691,6.340979,-10.332207,0.143569,0.983492,-0.317649,2.185675
2026-03-04T19:42:35.697691,6.513263,-10.686345,0.435493,1.037248,-0.315206,2.188118
2026-03-04T19:42:35.707691,6.719045,-10.729416,0.373280,1.094670,-0.300545,2.185675
2026-03-04T19:42:35.717691,6.781259,-10.523633,0.445065,1.142317,-0.273667,2.182010
2026-03-04T19:42:35.726691,6.489334,-9.738787,0.334995,1.172861,-0.256563,2.184453
2026-03-04T19:42:35.736691,6.058626,-8.877371,0.239282,1.152091,-0.255341,2.194227
2026-03-04T19:42:35.745691,5.881557,-8.551947,0.287138,1.027475,-0.245567,2.227214
2026-03-04T19:42:35.755691,5.637490,-8.480163,0.363709,0.851545,-0.205250,2.277305
2026-03-04T19:42:35.765691,5.187639,-8.662017,0.248853,0.690277,-0.150272,2.329839
2026-03-04T19:42:35.774691,4.589433,-8.796015,0.200997,0.602312,-0.127059,2.372600
2026-03-04T19:42:35.784691,4.043870,-8.772087,0.124426,0.620638,-0.153938,2.401921
2026-03-04T19:42:35.793691,3.732803,-8.437092,0.234496,0.722042,-0.212581,2.425134
2026-03-04T19:42:35.803691,3.450450,-8.039883,0.263210,0.818559,-0.267558,2.458121
2026-03-04T19:42:35.813691,3.244667,-7.269395,0.483350,0.889419,-0.339641,2.497216
2026-03-04T19:42:35.822691,2.981456,-6.656832,0.406779,0.871093,-0.398284,2.531425
2026-03-04T19:42:35.832691,2.895315,-6.135197,0.569491,0.786794,-0.447153,2.565633
2026-03-04T19:42:35.842691,2.665604,-5.857629,0.583848,0.693942,-0.455705,2.608394
2026-03-04T19:42:35.851691,2.349751,-5.943771,0.531206,0.621860,-0.461814,2.658484
2026-03-04T19:42:35.861691,2.057827,-5.733202,0.521635,0.673173,-0.493579,2.696358
2026-03-04T19:42:35.870691,1.842473,-5.355136,0.540777,0.775798,-0.522900,2.714684
2026-03-04T19:42:35.880691,1.732403,-5.441278,0.497707,0.855211,-0.555887,2.729345
2026-03-04T19:42:35.890691,1.718046,-5.661418,0.579063,0.960279,-0.583987,2.735453
2026-03-04T19:42:35.899691,1.813759,-5.627918,0.478564,1.111774,-0.588873,2.740340
2026-03-04T19:42:35.909691,1.751546,-5.546562,0.602991,1.299920,-0.586430,2.750114
2026-03-04T19:42:35.918691,1.775474,-5.235495,0.689132,1.479515,-0.580321,2.757445
2026-03-04T19:42:35.928691,1.789831,-5.168496,0.660419,1.580918,-0.563217,2.775771
2026-03-04T19:42:35.938691,1.813759,-4.742574,0.722632,1.687209,-0.536339,2.785544
2026-03-04T19:42:35.947691,1.598405,-4.168296,0.808774,1.758069,-0.482583,2.776992
2026-03-04T19:42:35.957691,1.473978,-4.110869,0.961914,1.775174,-0.428827,2.770884
2026-03-04T19:42:35.967691,1.239482,-3.814159,0.784845,1.814269,-0.349414,2.748893
2026-03-04T19:42:35.976691,0.689132,-3.507877,0.818345,1.890016,-0.282219,2.709797
2026-03-04T19:42:35.986691,0.320638,-3.694518,1.258624,1.946216,-0.262671,2.680476
2026-03-04T19:42:35.995691,0.267996,-4.010370,1.473978,2.012189,-0.279776,2.654819
2026-03-04T19:42:36.005691,0.105284,-3.976871,1.698904,2.155132,-0.279776,2.616946
2026-03-04T19:42:36.015691,-0.119641,-3.574876,1.981257,2.317622,-0.302989,2.559524
2026-03-04T19:42:36.024691,-0.368494,-3.335594,2.239681,2.463008,-0.326201,2.476447
2026-03-04T19:42:36.034691,-0.526420,-3.058027,2.478964,2.546085,-0.342084,2.394591
2026-03-04T19:42:36.043691,-0.665204,-2.924029,2.455035,2.579072,-0.342084,2.289522
2026-03-04T19:42:36.053691,-0.971485,-2.641676,2.220539,2.575407,-0.333532,2.152688
2026-03-04T19:42:36.063691,-0.928415,-2.703889,2.234896,2.511877,-0.305432,1.991420
2026-03-04T19:42:36.072691,-1.004985,-2.981456,2.321037,2.409251,-0.238237,1.820378
2026-03-04T19:42:36.082691,-1.210768,-3.345165,2.282752,2.309070,-0.146607,1.667661
2026-03-04T19:42:36.092691,-1.655833,-3.354737,2.469392,2.241874,-0.081855,1.506393
2026-03-04T19:42:36.101691,-2.115255,-3.211167,2.507678,2.163684,-0.057421,1.332907
2026-03-04T19:42:36.111691,-2.498106,-2.699103,2.914457,2.025628,-0.076969,1.164308
2026-03-04T19:42:36.120691,-2.775674,-2.086541,3.067598,1.759291,-0.117286,0.994488
2026-03-04T19:42:36.130691,-2.790031,-1.627119,3.330809,1.356120,-0.141720,0.816115
2026-03-04T19:42:36.140691,-2.794816,-1.473978,3.450450,0.861319,-0.139277,0.627969
2026-03-04T19:42:36.149691,-2.746960,-1.737189,3.598805,0.359188,-0.122173,0.450818
2026-03-04T19:42:36.159691,-2.799602,-2.531606,3.723231,-0.076969,-0.069638,0.293215
2026-03-04T19:42:36.168691,-2.861815,-3.546163,3.847658,-0.349414,-0.034208,0.158824
2026-03-04T19:42:36.178691,-2.967100,-4.077369,4.053441,-0.417831,-0.030543,0.047647
2026-03-04T19:42:36.188691,-3.038884,-4.661218,4.197010,-0.365297,-0.030543,-0.043982
2026-03-04T19:42:36.197691,-2.971885,-5.077569,4.421936,-0.245567,-0.030543,-0.131946
2026-03-04T19:42:36.207691,-3.038884,-5.134997,4.546362,-0.114842,-0.029321,-0.199142
2026-03-04T19:42:36.217691,-2.924029,-4.972285,4.632504,-0.009773,-0.025656,-0.255341
2026-03-04T19:42:36.226691,-2.833101,-4.761716,4.675575,0.031764,-0.019547,-0.316428
2026-03-04T19:42:36.236691,-2.622533,-4.785645,4.680361,-0.009773,0.018325,-0.367740
2026-03-04T19:42:36.245691,-2.478964,-5.120640,4.579862,-0.100181,0.065973,-0.412944
2026-03-04T19:42:36.255691,-2.574677,-5.532205,4.666004,-0.190589,0.109955,-0.454483
2026-03-04T19:42:36.265691,-2.670390,-6.010770,4.546362,-0.248011,0.139277,-0.499687
2026-03-04T19:42:36.274691,-2.770888,-6.297909,4.498506,-0.263893,0.155159,-0.552222
2026-03-04T19:42:36.284691,-2.909672,-6.360122,4.407579,-0.259006,0.153938,-0.616973
2026-03-04T19:42:36.293691,-3.029313,-6.168696,4.369294,-0.234572,0.140498,-0.700051
2026-03-04T19:42:36.303691,-2.976671,-5.804987,4.335794,-0.244346,0.117286,-0.788015
2026-03-04T19:42:36.313691,-2.943171,-5.546562,4.235296,-0.280997,0.111177,-0.877202
2026-03-04T19:42:36.322691,-2.933600,-5.053641,4.311866,-0.345749,0.112399,-0.970053
2026-03-04T19:42:36.332691,-2.809173,-4.718646,4.364508,-0.430049,0.112399,-1.061683
2026-03-04T19:42:36.342691,-2.713460,-4.402793,4.345365,-0.530230,0.117286,-1.153313
2026-03-04T19:42:36.351691,-2.651247,-4.287938,4.273581,-0.630412,0.128281,-1.241277
2026-03-04T19:42:36.361691,-2.531606,-4.168296,4.211367,-0.701273,0.135612,-1.328020
2026-03-04T19:42:36.370691,-2.517249,-3.929014,4.106083,-0.729372,0.131946,-1.418428
2026-03-04T19:42:36.380691,-2.335394,-3.675375,3.890729,-0.726929,0.117286,-1.507615
2026-03-04T19:42:36.390691,-2.067398,-3.306880,3.627519,-0.725707,0.102625,-1.596801
2026-03-04T19:42:36.399691,-1.837687,-2.895315,3.493520,-0.739146,0.092851,-1.690874
2026-03-04T19:42:36.409691,-1.517049,-2.636890,3.302095,-0.800233,0.101403,-1.776395
2026-03-04T19:42:36.418691,-1.205982,-2.522035,3.067598,-0.893084,0.106290,-1.850921
2026-03-04T19:42:36.428691,-0.885344,-2.402393,2.785245,-0.993266,0.118507,-1.913229
2026-03-04T19:42:36.438691,-0.468993,-2.445464,2.517249,-1.091005,0.130725,-1.958433
2026-03-04T19:42:36.447691,-0.215354,-2.569891,2.254038,-1.167974,0.141720,-1.980424
2026-03-04T19:42:36.457691,-0.019142,-2.761317,1.947757,-1.210734,0.150272,-1.995085
2026-03-04T19:42:36.467691,0.172283,-2.794816,1.708475,-1.215621,0.161268,-1.991420
2026-03-04T19:42:36.476691,0.440279,-2.995813,1.406979,-1.210734,0.169820,-1.977981
2026-03-04T19:42:36.486691,0.583848,-3.101098,1.119840,-1.178969,0.166155,-1.946216
2026-03-04T19:42:36.495691,0.703489,-3.211167,0.808774,-1.130100,0.153938,-1.918116
2026-03-04T19:42:36.505691,0.899701,-3.345165,0.631705,-1.098335,0.153938,-1.894903
2026-03-04T19:42:36.515691,1.086341,-3.527020,0.655633,-1.040914,0.160046,-1.885129
2026-03-04T19:42:36.524691,1.282552,-3.641875,0.559920,-0.962723,0.178372,-1.877799
2026-03-04T19:42:36.534691,1.430907,-3.579662,0.516849,-0.873537,0.199142,-1.886351
2026-03-04T19:42:36.543691,1.612762,-3.507877,0.478564,-0.800233,0.221133,-1.923003
2026-03-04T19:42:36.553691,1.828116,-3.330809,0.478564,-0.764803,0.246789,-1.980424
2026-03-04T19:42:36.563691,2.014756,-3.134597,0.368494,-0.770911,0.287106,-2.056171
2026-03-04T19:42:36.572691,2.110469,-2.857030,0.248853,-0.811228,0.332310,-2.144136
2026-03-04T19:42:36.582691,2.163111,-2.627319,0.200997,-0.889419,0.368962,-2.232101
2026-03-04T19:42:36.592691,2.134397,-2.431107,0.129212,-0.995710,0.389731,-2.329839
2026-03-04T19:42:36.601691,2.225325,-2.330609,0.133998,-1.099557,0.403170,-2.438573
2026-03-04T19:42:36.611691,2.311466,-2.388036,0.000000,-1.220508,0.414166,-2.541198
2026-03-04T19:42:36.620691,2.455035,-2.742174,-0.133998,-1.353677,0.403170,-2.634050
2026-03-04T19:42:36.630691,2.699103,-3.206382,-0.186640,-1.433089,0.382401,-2.740340
2026-03-04T19:42:36.640691,3.091526,-3.622733,-0.181854,-1.436754,0.379958,-2.866179
2026-03-04T19:42:36.649691,3.393022,-4.249652,-0.224925,-1.428202,0.399505,-2.985908
2026-03-04T19:42:36.659691,3.885943,-4.914857,-0.119641,-1.391550,0.406836,-3.095864
2026-03-04T19:42:36.668691,4.316651,-5.565705,0.071784,-1.318246,0.426383,-3.219259
2026-03-04T19:42:36.678691,4.924428,-6.139982,0.086141,-1.247386,0.449596,-3.335323
2026-03-04T19:42:36.688691,5.431707,-6.771687,-0.043070,-1.196073,0.476474,-3.448944
2026-03-04T19:42:36.697691,6.063412,-7.384250,-0.172283,-1.193630,0.469144,-3.545461
2026-03-04T19:42:36.707691,6.628118,-7.810172,-0.392422,-1.247386,0.438601,-3.613877
2026-03-04T19:42:36.717691,6.963113,-7.968099,-0.823130,-1.374446,0.378736,-3.639534
2026-03-04T19:42:36.726691,7.278966,-7.795816,-1.143769,-1.527162,0.304210,-3.656638
2026-03-04T19:42:36.736691,7.743173,-8.484948,-1.363908,-1.853364,0.248011,-3.622430
2026-03-04T19:42:36.745691,8.571090,-9.872786,-1.153340,-2.244318,0.224798,-3.552791
2026-03-04T19:42:36.755691,9.446863,-11.806186,-1.263410,-2.549750,0.272445,-3.475822
2026-03-04T19:42:36.765691,10.609775,-13.806586,-0.760917,-2.684141,0.360410,-3.408627
2026-03-04T19:42:36.774691,11.863614,-16.232908,-0.459421,-2.538755,0.509461,-3.359758
2026-03-04T19:42:36.784691,13.088739,-18.654444,0.186640,-2.182010,0.675616,-3.247358
2026-03-04T19:42:36.793691,13.696516,-19.759930,0.660419,-1.566258,0.841772,-3.120298
2026-03-04T19:42:36.803691,13.390235,-19.094725,1.086341,-0.886976,0.906523,-2.945591
2026-03-04T19:42:36.813691,12.576675,-17.089539,1.502692,-0.444709,0.851545,-2.735453
2026-03-04T19:42:36.822691,11.117053,-13.366307,0.803988,-0.272445,0.671951,-2.517985
2026-03-04T19:42:36.832691,9.336793,-7.886743,-0.646062,-0.300545,0.393397,-2.404365
2026-03-04T19:42:36.842691,8.977870,-5.489135,-2.823530,-0.671951,0.004886,-2.337169
2026-03-04T19:42:36.851691,10.849057,-7.561319,-4.278366,-1.467297,-0.356745,-2.169792
2026-03-04T19:42:36.861691,12.993026,-12.437891,-4.680361,-2.371378,-0.406836,-1.890016
2026-03-04T19:42:36.870691,14.160724,-17.314465,-3.201596,-2.794097,-0.065973,-1.599244
2026-03-04T19:42:36.880691,12.174681,-19.415361,-2.263610,-2.251648,0.452040,-1.363450
2026-03-04T19:42:36.890691,8.307880,-15.955341,-1.004985,-1.005483,0.631634,-1.249830
2026-03-04T19:42:36.899691,6.025127,-11.380264,0.957129,-0.087964,0.280997,-1.277929
2026-03-04T19:42:36.909691,5.972485,-8.504091,2.455035,0.157603,-0.270002,-1.313359
2026-03-04T19:42:36.918691,7.738388,-7.403393,3.148954,-0.265115,-0.604756,-1.324355
2026-03-04T19:42:36.928691,9.576076,-8.556733,2.847458,-0.941954,-0.469144,-1.306029
2026-03-04T19:42:36.938691,9.815358,-10.466206,2.330609,-1.374446,-0.079412,-1.271821
2026-03-04T19:42:36.947691,9.370293,-12.284751,1.689332,-1.473406,0.153938,-1.225395
2026-03-04T19:42:36.957691,9.054440,-12.801600,0.880558,-1.161865,0.212581,-1.174082
2026-03-04T19:42:36.967691,9.011369,-12.342178,0.148355,-0.802676,0.156381,-1.130100
2026-03-04T19:42:36.976691,9.403792,-11.968898,-0.535992,-0.591317,0.072082,-1.087339
2026-03-04T19:42:36.986691,9.934999,-12.332607,-1.095912,-0.532674,0.014660,-1.044579
2026-03-04T19:42:36.995691,10.284351,-13.289736,-1.378265,-0.555887,-0.009773,-0.985936
2026-03-04T19:42:37.005691,10.877771,-14.830714,-1.205982,-0.637743,-0.008552,-0.910189
2026-03-04T19:42:37.015691,11.365907,-16.299908,-1.301695,-0.680503,0.030543,-0.833220
2026-03-04T19:42:37.024691,11.897113,-17.309677,-1.421336,-0.627969,0.062308,-0.752585
2026-03-04T19:42:37.034691,12.768101,-18.606588,-1.363908,-0.533896,0.068416,-0.671951
2026-03-04T19:42:37.043691,13.954941,-19.587645,-1.507478,-0.403170,0.057421,-0.559552
2026-03-04T19:42:37.053691,14.964712,-19.396219,-1.832902,-0.160046,0.057421,-0.459370
2026-03-04T19:42:37.063691,15.663416,-18.597017,-2.536391,0.024434,0.043982,-0.362853
2026-03-04T19:42:37.072691,16.529617,-18.482161,-3.144168,0.043982,0.001221,-0.245567
2026-03-04T19:42:37.082691,17.481960,-18.932013,-3.479164,-0.002443,-0.045204,-0.141720
2026-03-04T19:42:37.092691,18.448662,-19.587645,-3.986442,-0.010995,-0.081855,-0.039095
2026-03-04T19:42:37.101691,19.066010,-20.085352,-4.187439,0.004886,-0.105068,0.083077
2026-03-04T19:42:37.111691,18.903297,-20.233707,-3.976871,0.064751,-0.056199,0.218689
2026-03-04T19:42:37.120691,17.620745,-19.152151,-3.771088,0.241902,0.003665,0.373849
2026-03-04T19:42:37.130691,15.979269,-16.984255,-3.019742,0.461814,-0.052534,0.522900
2026-03-04T19:42:37.140691,14.648859,-14.605789,-2.100898,0.563217,-0.216246,0.663399
2026-03-04T19:42:37.149691,13.868799,-13.074382,-1.464407,0.504574,-0.375071,0.808785
2026-03-04T19:42:37.159691,12.930813,-12.232109,-1.105484,0.401949,-0.449596,0.966388
2026-03-04T19:42:37.168691,11.743973,-11.882757,-1.091127,0.349414,-0.469144,1.126435
2026-03-04T19:42:37.178691,10.595418,-11.748758,-1.091127,0.427605,-0.507018,1.263269
2026-03-04T19:42:37.188691,9.824929,-11.442477,-1.000199,0.652403,-0.594982,1.358564
2026-03-04T19:42:37.197691,9.647860,-11.136196,-1.177268,0.911410,-0.717155,1.434311
2026-03-04T19:42:37.207691,10.068997,-10.758130,-1.603191,1.178969,-0.805120,1.492954
2026-03-04T19:42:37.217691,10.528419,-10.423135,-1.804188,1.439198,-0.802676,1.535714
2026-03-04T19:42:37.226691,10.801201,-9.781858,-1.952543,1.609018,-0.737925,1.580918
2026-03-04T19:42:37.236691,10.581061,-9.202795,-2.024327,1.673770,-0.645073,1.645670
2026-03-04T19:42:37.245691,9.934999,-8.772087,-1.775474,1.606575,-0.569326,1.732413
2026-03-04T19:42:37.255691,9.107082,-8.283951,-1.612762,1.431867,-0.522900,1.821599
2026-03-04T19:42:37.265691,8.441878,-8.059026,-1.373480,1.178969,-0.533896,1.914451
2026-03-04T19:42:37.274691,8.049455,-8.279166,-1.244267,0.885754,-0.575434,2.010967
2026-03-04T19:42:37.284691,7.719245,-8.513662,-1.272981,0.671951,-0.624304,2.094045
2026-03-04T19:42:37.293691,7.570890,-8.408378,-1.296909,0.561995,-0.686612,2.147801
2026-03-04T19:42:37.303691,7.642675,-8.288737,-1.368694,0.502131,-0.757472,2.163684
2026-03-04T19:42:37.313691,7.680960,-8.202595,-1.636690,0.477696,-0.805120,2.145358
2026-03-04T19:42:37.322691,7.934599,-8.561519,-1.579262,0.467922,-0.840550,2.103819
2026-03-04T19:42:37.332691,8.360522,-9.475577,-1.344766,0.475253,-0.855211,2.064724
2026-03-04T19:42:37.342691,8.628518,-10.413563,-1.397408,0.564439,-0.838106,2.050063
2026-03-04T19:42:37.351691,8.628518,-10.691131,-1.416550,0.755029,-0.816115,2.031737
2026-03-04T19:42:37.361691,8.494520,-10.791629,-1.469193,0.916297,-0.816115,2.032959
2026-03-04T19:42:37.370691,8.422735,-10.365707,-1.440479,1.073900,-0.816115,2.051285
2026-03-04T19:42:37.380691,8.159525,-9.461220,-1.325623,1.215621,-0.797789,2.054950
2026-03-04T19:42:37.390691,7.724031,-8.767302,-1.272981,1.240056,-0.784350,2.058615
2026-03-04T19:42:37.399691,7.432106,-8.322237,-1.143769,1.172861,-0.769690,2.053728
2026-03-04T19:42:37.409691,7.097111,-8.035098,-1.272981,1.081231,-0.752585,2.050063
2026-03-04T19:42:37.418691,6.867400,-7.920242,-1.239482,1.009149,-0.746477,2.036624
2026-03-04T19:42:37.428691,6.920042,-8.523234,-1.124626,0.906523,-0.746477,2.024406
2026-03-04T19:42:37.438691,7.054041,-9.303294,-0.856630,0.828333,-0.731816,2.020741
2026-03-04T19:42:37.447691,6.972685,-9.614361,-0.713061,0.851545,-0.678060,2.003637
2026-03-04T19:42:37.457691,6.695117,-9.542576,-0.703489,0.917519,-0.632856,1.979202
2026-03-04T19:42:37.467691,6.345765,-9.279366,-0.502492,0.996931,-0.624304,1.948659
2026-03-04T19:42:37.476691,6.116054,-8.709874,-0.210568,1.053131,-0.620638,1.915672
2026-03-04T19:42:37.486691,6.015556,-8.298308,-0.019142,1.026253,-0.605978,1.892460
2026-03-04T19:42:37.495691,5.910271,-8.154739,0.143569,0.938288,-0.552222,1.882686
2026-03-04T19:42:37.505691,5.608776,-8.403592,0.047856,0.795346,-0.476474,1.902233
2026-03-04T19:42:37.515691,5.278566,-8.528019,-0.052642,0.684168,-0.428827,1.927890
2026-03-04T19:42:37.524691,4.737788,-8.231309,-0.124426,0.626747,-0.415388,1.949881
2026-03-04T19:42:37.534691,4.335794,-7.968099,-0.090927,0.569326,-0.415388,1.965763
2026-03-04T19:42:37.543691,4.029513,-7.695317,-0.019142,0.500909,-0.412944,1.977981
2026-03-04T19:42:37.553691,3.823730,-7.537391,-0.052642,0.443488,-0.392175,1.992641
