Timestamp,Acceleration_X,Acceleration_Y,Acceleration_Z,Gyro_X,Gyro_Y,Gyro_Z
2026-03-04T20:03:45.620569,0.780060,-4.378865,9.317651,0.036651,-0.048869,0.019547
2026-03-04T20:03:45.630569,0.746560,-4.278366,9.365507,0.040317,-0.045204,0.019547
2026-03-04T20:03:45.639569,0.722632,-4.316651,9.317651,0.031764,-0.041538,0.017104
2026-03-04T20:03:45.649569,0.794417,-4.335794,9.322436,0.021991,-0.041538,0.015882
2026-03-04T20:03:45.658569,0.741775,-4.378865,9.336793,0.015882,-0.043982,0.017104
2026-03-04T20:03:45.668569,0.784845,-4.412364,9.332008,0.015882,-0.045204,0.013439
2026-03-04T20:03:45.678569,0.746560,-4.465006,9.312865,0.019547,-0.042760,0.012217
2026-03-04T20:03:45.687569,0.717846,-4.359722,9.312865,0.024434,-0.040317,0.012217
2026-03-04T20:03:45.697569,0.746560,-4.388436,9.293722,0.026878,-0.039095,0.013439
2026-03-04T20:03:45.707569,0.732203,-4.383651,9.317651,0.026878,-0.040317,0.009773
2026-03-04T20:03:45.716569,0.770488,-4.374079,9.332008,0.025656,-0.042760,0.012217
2026-03-04T20:03:45.726569,0.722632,-4.345365,9.303294,0.023212,-0.043982,0.013439
2026-03-04T20:03:45.735569,0.727418,-4.374079,9.384650,0.024434,-0.043982,0.012217
2026-03-04T20:03:45.745569,0.741775,-4.359722,9.303294,0.025656,-0.043982,0.014660
2026-03-04T20:03:45.755569,0.693918,-4.321437,9.317651,0.023212,-0.043982,0.017104
2026-03-04T20:03:45.764569,0.741775,-4.335794,9.351150,0.024434,-0.048869,0.019547
2026-03-04T20:03:45.774569,0.741775,-4.393222,9.317651,0.024434,-0.043982,0.019547
2026-03-04T20:03:45.783569,0.722632,-4.359722,9.332008,0.025656,-0.040317,0.017104
2026-03-04T20:03:45.793569,0.784845,-4.364508,9.351150,0.024434,-0.039095,0.017104
2026-03-04T20:03:45.803569,0.727418,-4.321437,9.322436,0.021991,-0.041538,0.018325
2026-03-04T20:03:45.812569,0.751346,-4.307080,9.303294,0.019547,-0.043982,0.018325
2026-03-04T20:03:45.822569,0.727418,-4.364508,9.317651,0.017104,-0.043982,0.018325
2026-03-04T20:03:45.832569,0.703489,-4.350151,9.351150,0.010995,-0.040317,0.017104
2026-03-04T20:03:45.841569,0.746560,-4.417150,9.269794,0.010995,-0.037873,0.015882
2026-03-04T20:03:45.851569,0.722632,-4.378865,9.293722,0.014660,-0.040317,0.014660
2026-03-04T20:03:45.860569,0.722632,-4.383651,9.245866,0.021991,-0.043982,0.012217
2026-03-04T20:03:45.870569,0.746560,-4.388436,9.341579,0.028099,-0.046425,0.015882
2026-03-04T20:03:45.880569,0.799202,-4.364508,9.284151,0.031764,-0.045204,0.017104
2026-03-04T20:03:45.889569,0.808774,-4.393222,9.293722,0.029321,-0.045204,0.017104
2026-03-04T20:03:45.899569,0.751346,-4.268795,9.336793,0.025656,-0.046425,0.019547
2026-03-04T20:03:45.908569,0.713061,-4.369294,9.351150,0.021991,-0.045204,0.015882
2026-03-04T20:03:45.918569,0.756131,-4.402793,9.298508,0.014660,-0.041538,0.013439
2026-03-04T20:03:45.928569,0.760917,-4.364508,9.317651,0.009773,-0.042760,0.017104
2026-03-04T20:03:45.937569,0.684347,-4.445864,9.355936,0.013439,-0.042760,0.015882
2026-03-04T20:03:45.947569,0.636490,-4.402793,9.308079,0.023212,-0.039095,0.012217
2026-03-04T20:03:45.957569,0.626919,-4.469792,9.288937,0.030543,-0.043982,0.010995
2026-03-04T20:03:45.966569,0.703489,-4.407579,9.332008,0.035430,-0.051312,0.014660
2026-03-04T20:03:45.976569,0.751346,-4.374079,9.317651,0.035430,-0.052534,0.015882
2026-03-04T20:03:45.985569,0.880558,-4.340580,9.394221,0.032986,-0.045204,0.015882
2026-03-04T20:03:45.995569,0.803988,-4.369294,9.341579,0.030543,-0.041538,0.018325
2026-03-04T20:03:46.005569,0.794417,-4.359722,9.293722,0.025656,-0.041538,0.017104
2026-03-04T20:03:46.014569,0.713061,-4.326223,9.308079,0.020769,-0.043982,0.014660
2026-03-04T20:03:46.024569,0.770488,-4.374079,9.322436,0.020769,-0.046425,0.015882
2026-03-04T20:03:46.033569,0.784845,-4.383651,9.379864,0.020769,-0.045204,0.017104
2026-03-04T20:03:46.043569,0.660419,-4.393222,9.341579,0.024434,-0.043982,0.015882
2026-03-04T20:03:46.053569,0.727418,-4.407579,9.336793,0.023212,-0.043982,0.014660
2026-03-04T20:03:46.062569,0.684347,-4.398007,9.308079,0.021991,-0.039095,0.012217
2026-03-04T20:03:46.072569,0.722632,-4.402793,9.293722,0.026878,-0.041538,0.012217
2026-03-04T20:03:46.082569,0.756131,-4.407579,9.360722,0.025656,-0.047647,0.014660
2026-03-04T20:03:46.091569,0.765703,-4.316651,9.327222,0.029321,-0.045204,0.009773
2026-03-04T20:03:46.101569,0.760917,-4.378865,9.351150,0.028099,-0.040317,0.009773
2026-03-04T20:03:46.110569,0.717846,-4.398007,9.308079,0.029321,-0.041538,0.009773
2026-03-04T20:03:46.120569,0.736989,-4.364508,9.341579,0.028099,-0.043982,0.010995
2026-03-04T20:03:46.130569,0.732203,-4.364508,9.332008,0.028099,-0.042760,0.010995
2026-03-04T20:03:46.139569,0.732203,-4.350151,9.351150,0.029321,-0.043982,0.010995
2026-03-04T20:03:46.149569,0.770488,-4.316651,9.351150,0.029321,-0.040317,0.010995
2026-03-04T20:03:46.158569,0.765703,-4.359722,9.327222,0.024434,-0.036651,0.008552
2026-03-04T20:03:46.168569,0.713061,-4.350151,9.269794,0.017104,-0.035430,0.006108
2026-03-04T20:03:46.178569,0.746560,-4.354937,9.312865,0.014660,-0.037873,0.004886
2026-03-04T20:03:46.187569,0.765703,-4.283152,9.284151,0.008552,-0.040317,0.004886
2026-03-04T20:03:46.197569,0.765703,-4.340580,9.284151,0.003665,-0.037873,-0.002443
2026-03-04T20:03:46.207569,0.698704,-4.326223,9.207581,0.001221,-0.037873,-0.002443
2026-03-04T20:03:46.216569,0.722632,-4.340580,9.226723,-0.002443,-0.039095,-0.002443
2026-03-04T20:03:46.226569,0.655633,-4.268795,9.111868,-0.006108,-0.041538,-0.004886
2026-03-04T20:03:46.235569,0.650847,-4.268795,8.968299,-0.028099,-0.047647,-0.006108
2026-03-04T20:03:46.245569,0.722632,-4.278366,9.121439,-0.046425,-0.061086,-0.009773
2026-03-04T20:03:46.255569,0.770488,-4.287938,9.116654,-0.053756,-0.073303,-0.019547
2026-03-04T20:03:46.264569,0.746560,-4.168296,9.068797,-0.053756,-0.070860,-0.030543
2026-03-04T20:03:46.274569,0.736989,-4.201796,9.001798,-0.056199,-0.065973,-0.046425
2026-03-04T20:03:46.283569,0.703489,-4.359722,8.910871,-0.075747,-0.068416,-0.053756
2026-03-04T20:03:46.293569,0.665204,-4.512863,8.915657,-0.079412,-0.079412,-0.057421
2026-03-04T20:03:46.303569,0.569491,-4.752145,8.997012,-0.039095,-0.097738,-0.057421
2026-03-04T20:03:46.312569,0.736989,-4.804787,9.073583,0.032986,-0.107512,-0.057421
2026-03-04T20:03:46.322569,0.689132,-4.766502,8.963513,0.133168,-0.111177,-0.048869
2026-03-04T20:03:46.332569,0.866201,-4.541577,8.886943,0.160046,-0.119729,-0.035430
2026-03-04T20:03:46.341569,0.760917,-4.685146,8.934799,0.206472,-0.123394,-0.030543
2026-03-04T20:03:46.351569,0.746560,-4.546362,9.126225,0.238237,-0.156381,-0.029321
2026-03-04T20:03:46.360569,0.832702,-4.555934,9.265009,0.302989,-0.189368,-0.035430
2026-03-04T20:03:46.370569,0.847059,-4.469792,9.035298,0.377514,-0.186924,-0.035430
2026-03-04T20:03:46.380569,0.851844,-4.412364,9.054440,0.467922,-0.166155,-0.029321
2026-03-04T20:03:46.389569,0.775274,-4.316651,8.987441,0.535117,-0.177150,-0.020769
2026-03-04T20:03:46.399569,0.526420,-4.053441,8.953942,0.531452,-0.199142,-0.014660
2026-03-04T20:03:46.408569,0.784845,-4.091726,9.619146,0.533896,-0.190589,-0.020769
2026-03-04T20:03:46.418569,0.885344,-4.173082,9.509077,0.472809,-0.227241,-0.018325
2026-03-04T20:03:46.428569,1.004985,-4.273581,9.839286,0.454483,-0.224798,-0.031764
2026-03-04T20:03:46.437569,1.071984,-4.163511,10.207781,0.507018,-0.216246,-0.036651
2026-03-04T20:03:46.447569,1.091127,-3.862015,10.633703,0.549778,-0.184481,-0.039095
2026-03-04T20:03:46.457569,1.210768,-3.641875,10.590632,0.489913,-0.139277,-0.023212
2026-03-04T20:03:46.466569,1.009771,-3.483949,10.226923,0.381179,-0.097738,0.010995
2026-03-04T20:03:46.476569,1.024128,-3.440878,10.001998,0.284663,-0.079412,0.032986
2026-03-04T20:03:46.485569,0.961914,-3.517449,9.829715,0.185702,-0.072082,0.054977
2026-03-04T20:03:46.495569,1.057627,-3.531806,9.710074,0.098960,-0.074525,0.065973
2026-03-04T20:03:46.505569,1.052841,-3.684946,9.686145,0.014660,-0.073303,0.064751
2026-03-04T20:03:46.514569,1.081555,-3.833301,9.547362,-0.043982,-0.058643,0.067195
2026-03-04T20:03:46.524569,1.014556,-4.010370,9.442077,-0.061086,-0.043982,0.078190
2026-03-04T20:03:46.533569,0.837487,-4.125226,9.188438,-0.013439,-0.037873,0.089186
2026-03-04T20:03:46.543569,0.746560,-4.192225,9.035298,0.048869,-0.054977,0.109955
2026-03-04T20:03:46.553569,0.674775,-4.019941,9.217152,0.120951,-0.087964,0.124616
2026-03-04T20:03:46.562569,0.780060,-3.785445,9.470791,0.180816,-0.120951,0.131946
2026-03-04T20:03:46.572569,0.971485,-3.737588,9.700502,0.243124,-0.134390,0.117286
2026-03-04T20:03:46.582569,1.105484,-3.560520,10.016355,0.201585,-0.068416,0.136833
2026-03-04T20:03:46.591569,0.918843,-3.546163,9.217152,0.028099,-0.072082,0.147829
2026-03-04T20:03:46.601569,0.842273,-3.397808,9.777073,-0.048869,-0.119729,0.133168
2026-03-04T20:03:46.610569,0.971485,-3.646661,9.939785,-0.141720,-0.136833,0.133168
2026-03-04T20:03:46.620569,1.158126,-3.747160,10.064211,-0.145385,-0.116064,0.138055
2026-03-04T20:03:46.630569,1.119840,-3.943371,9.863214,-0.136833,-0.089186,0.157603
2026-03-04T20:03:46.639569,1.071984,-4.034298,9.528219,-0.065973,-0.062308,0.177150
2026-03-04T20:03:46.649569,0.818345,-4.340580,8.920442,-0.039095,-0.051312,0.201585
2026-03-04T20:03:46.658569,0.641276,-4.474578,8.920442,0.045204,-0.081855,0.204028
2026-03-04T20:03:46.668569,0.698704,-4.455435,8.977870,0.172263,-0.138055,0.195476
2026-03-04T20:03:46.678569,0.976271,-4.043870,9.389435,0.285884,-0.179594,0.177150
2026-03-04T20:03:46.687569,1.301695,-3.440878,9.934999,0.302989,-0.193033,0.161268
2026-03-04T20:03:46.697569,1.698904,-3.019742,10.250852,0.226020,-0.149051,0.153938
2026-03-04T20:03:46.707569,1.670190,-2.828316,10.403992,0.045204,-0.068416,0.151494
2026-03-04T20:03:46.716569,1.483550,-3.163311,10.169496,-0.150272,0.004886,0.146607
2026-03-04T20:03:46.726569,1.205982,-3.732803,9.269794,-0.261450,0.076969,0.142942
2026-03-04T20:03:46.735569,0.607776,-4.565505,8.513662,-0.290771,0.089186,0.146607
2026-03-04T20:03:46.745569,0.330209,-5.187639,8.341379,-0.142942,0.001221,0.141720
2026-03-04T20:03:46.755569,0.334995,-5.489135,8.422735,0.096516,-0.117286,0.128281
2026-03-04T20:03:46.764569,0.650847,-5.115854,9.020941,0.397062,-0.226020,0.101403
2026-03-04T20:03:46.774569,1.320838,-4.149154,9.705288,0.648738,-0.280997,0.065973
2026-03-04T20:03:46.783569,1.746760,-3.278166,10.174281,0.709825,-0.246789,0.045204
2026-03-04T20:03:46.793569,1.804188,-2.857030,10.207781,0.599869,-0.166155,0.046425
2026-03-04T20:03:46.803569,1.378265,-2.866601,10.068997,0.381179,-0.086742,0.054977
2026-03-04T20:03:46.812569,0.909272,-3.287738,9.729216,0.185702,-0.050090,0.062308
2026-03-04T20:03:46.822569,0.727418,-3.756731,9.518648,0.116064,-0.067195,0.054977
2026-03-04T20:03:46.832569,0.823130,-4.000799,9.623932,0.144164,-0.106290,0.045204
2026-03-04T20:03:46.841569,1.134197,-3.852444,9.839286,0.200363,-0.124616,0.039095
2026-03-04T20:03:46.851569,1.311266,-3.689732,10.025926,0.216246,-0.103847,0.028099
2026-03-04T20:03:46.860569,1.225125,-3.493520,9.911071,0.180816,-0.069638,0.023212
2026-03-04T20:03:46.870569,1.115055,-3.369094,9.676574,0.135612,-0.042760,0.010995
2026-03-04T20:03:46.880569,0.990628,-3.282952,9.619146,0.069638,-0.046425,-0.004886
2026-03-04T20:03:46.889569,1.052841,-3.522234,9.700502,0.012217,-0.062308,-0.030543
2026-03-04T20:03:46.899569,1.148554,-3.723231,9.767501,0.001221,-0.057421,-0.056199
2026-03-04T20:03:46.908569,1.129412,-3.747160,9.772287,0.014660,-0.041538,-0.072082
2026-03-04T20:03:46.918569,1.148554,-3.756731,9.690931,0.046425,-0.023212,-0.084299
2026-03-04T20:03:46.928569,1.004985,-3.699303,9.619146,0.056199,-0.015882,-0.084299
2026-03-04T20:03:46.937569,0.947557,-3.689732,9.647860,0.075747,-0.037873,-0.080634
2026-03-04T20:03:46.947569,0.971485,-3.527020,9.671788,0.091629,-0.058643,-0.081855
2026-03-04T20:03:46.957569,1.024128,-3.574876,9.652646,0.057421,-0.067195,-0.080634
2026-03-04T20:03:46.966569,1.129412,-3.598805,9.662217,0.053756,-0.064751,-0.095294
2026-03-04T20:03:46.976569,1.201196,-3.651447,9.652646,0.054977,-0.058643,-0.113620
2026-03-04T20:03:46.985569,1.186840,-3.646661,9.475577,0.061086,-0.045204,-0.140498
2026-03-04T20:03:46.995569,1.052841,-3.646661,9.571290,0.059864,-0.029321,-0.171042
2026-03-04T20:03:47.005569,0.942772,-3.723231,9.576076,0.036651,-0.023212,-0.201585
2026-03-04T20:03:47.014569,0.928415,-3.771088,9.705288,0.059864,-0.029321,-0.235793
2026-03-04T20:03:47.024569,0.847059,-3.833301,9.690931,0.073303,-0.031764,-0.256563
2026-03-04T20:03:47.033569,0.847059,-3.823730,9.690931,0.086742,-0.040317,-0.277332
2026-03-04T20:03:47.043569,0.957129,-3.823730,9.824929,0.092851,-0.053756,-0.302989
2026-03-04T20:03:47.053569,1.138983,-3.651447,9.901499,0.106290,-0.065973,-0.337197
2026-03-04T20:03:47.062569,1.354337,-3.512663,9.963713,0.087964,-0.059864,-0.364075
2026-03-04T20:03:47.072569,1.411765,-3.345165,9.738787,0.063529,-0.048869,-0.377514
2026-03-04T20:03:47.082569,1.708475,-3.177668,9.576076,0.002443,-0.034208,-0.390953
2026-03-04T20:03:47.091569,1.727617,-3.139383,9.131011,-0.089186,0.009773,-0.408057
2026-03-04T20:03:47.101569,1.612762,-3.005385,9.308079,-0.152716,0.053756,-0.438601
2026-03-04T20:03:47.110569,1.435693,-3.268595,9.255437,-0.252898,0.080634,-0.469144
2026-03-04T20:03:47.120569,1.296909,-3.431307,9.375078,-0.317649,0.101403,-0.493579
2026-03-04T20:03:47.130569,1.282552,-3.503092,9.437292,-0.386066,0.101403,-0.515570
2026-03-04T20:03:47.139569,1.335195,-3.651447,9.652646,-0.410501,0.122173,-0.551000
2026-03-04T20:03:47.149569,1.115055,-3.905086,9.647860,-0.443488,0.147829,-0.568104
2026-03-04T20:03:47.158569,0.990628,-4.019941,9.690931,-0.433714,0.160046,-0.581543
2026-03-04T20:03:47.168569,0.890130,-3.895515,9.700502,-0.379958,0.157603,-0.585208
2026-03-04T20:03:47.178569,0.981057,-3.684946,9.537790,-0.350636,0.155159,-0.580321
2026-03-04T20:03:47.187569,1.052841,-3.493520,9.418149,-0.355523,0.164933,-0.569326
2026-03-04T20:03:47.197569,1.028913,-3.550948,9.145367,-0.415388,0.175929,-0.555887
2026-03-04T20:03:47.207569,1.076770,-3.455235,9.585647,-0.442266,0.160046,-0.568104
2026-03-04T20:03:47.216569,1.263410,-3.675375,9.925428,-0.481361,0.146607,-0.574213
2026-03-04T20:03:47.226569,1.464407,-3.790230,10.145567,-0.511904,0.155159,-0.582765
2026-03-04T20:03:47.235569,1.622333,-3.948157,10.021141,-0.549778,0.183259,-0.585208
2026-03-04T20:03:47.245569,1.493121,-3.996013,9.848857,-0.560774,0.227241,-0.590095
2026-03-04T20:03:47.255569,1.320838,-4.153940,9.475577,-0.583987,0.263893,-0.581543
2026-03-04T20:03:47.264569,0.957129,-4.197010,9.217152,-0.596204,0.261450,-0.564439
2026-03-04T20:03:47.274569,0.808774,-4.278366,9.164510,-0.560774,0.223576,-0.544891
2026-03-04T20:03:47.283569,0.693918,-4.206582,9.140582,-0.493579,0.178372,-0.519235
2026-03-04T20:03:47.293569,0.703489,-4.101297,9.241080,-0.409279,0.127059,-0.493579
2026-03-04T20:03:47.303569,0.803988,-4.106083,9.379864,-0.386066,0.083077,-0.463035
2026-03-04T20:03:47.312569,0.861416,-4.187439,9.336793,-0.381179,0.039095,-0.441044
2026-03-04T20:03:47.322569,1.071984,-4.220939,9.427721,-0.362853,-0.013439,-0.419053
2026-03-04T20:03:47.332569,1.234696,-3.909872,9.939785,-0.362853,-0.045204,-0.400727
2026-03-04T20:03:47.341569,-1.234696,-0.669990,3.737588,-0.956614,0.020769,-0.183259
2026-03-04T20:03:47.351569,0.650847,-4.287938,9.906285,-0.450818,-0.012217,-0.338419
2026-03-04T20:03:47.360569,1.502692,-4.053441,10.657631,-0.682947,-0.083077,-0.311541
2026-03-04T20:03:47.370569,1.612762,-5.575276,8.796015,-0.575434,-0.083077,-0.321315
2026-03-04T20:03:47.380569,0.837487,-5.024927,9.198010,-0.390953,-0.166155,-0.306654
2026-03-04T20:03:47.389569,0.890130,-5.503491,8.695517,-0.173485,-0.287106,-0.283441
2026-03-04T20:03:47.399569,1.359123,-4.709074,9.068797,0.086742,-0.392175,-0.282219
2026-03-04T20:03:47.408569,2.038684,-4.393222,9.006584,0.184481,-0.445931,-0.277332
2026-03-04T20:03:47.418569,2.378465,-3.842873,9.150153,0.233350,-0.397062,-0.282219
2026-03-04T20:03:47.428569,2.196611,-3.852444,9.097511,0.113620,-0.316428,-0.270002
2026-03-04T20:03:47.437569,1.976471,-3.895515,9.092725,0.018325,-0.263893,-0.270002
2026-03-04T20:03:47.447569,1.794616,-4.086941,9.154939,-0.041538,-0.241902,-0.289550
2026-03-04T20:03:47.457569,1.832902,-4.254438,9.509077,-0.046425,-0.229685,-0.306654
2026-03-04T20:03:47.466569,1.986042,-4.302295,9.686145,-0.067195,-0.213802,-0.306654
2026-03-04T20:03:47.476569,2.249253,-4.254438,9.686145,-0.080634,-0.163711,-0.299323
2026-03-04T20:03:47.485569,2.105683,-4.063012,9.427721,-0.145385,-0.083077,-0.293215
2026-03-04T20:03:47.495569,1.789831,-4.192225,8.987441,-0.252898,-0.017104,-0.289550
2026-03-04T20:03:47.505569,1.459621,-4.278366,8.738588,-0.359188,0.007330,-0.279776
2026-03-04T20:03:47.514569,1.335195,-4.393222,8.839086,-0.404392,-0.028099,-0.279776
2026-03-04T20:03:47.524569,1.507478,-4.441078,9.236295,-0.397062,-0.083077,-0.277332
2026-03-04T20:03:47.533569,1.942971,-4.460221,9.298508,-0.378736,-0.107512,-0.268780
2026-03-04T20:03:47.543569,2.129612,-4.398007,9.341579,-0.364075,-0.097738,-0.263893
2026-03-04T20:03:47.553569,2.196611,-4.345365,9.360722,-0.375071,-0.083077,-0.265115
2026-03-04T20:03:47.562569,2.177468,-4.441078,9.178867,-0.392175,-0.059864,-0.260228
2026-03-04T20:03:47.572569,1.995614,-4.579862,8.791230,-0.377514,-0.031764,-0.251676
2026-03-04T20:03:47.582569,1.665404,-4.776073,8.614161,-0.353080,-0.025656,-0.244346
2026-03-04T20:03:47.591569,1.387837,-5.163711,8.542376,-0.318871,-0.057421,-0.232128
2026-03-04T20:03:47.601569,1.344766,-5.331208,8.700302,-0.204028,-0.125838,-0.224798
2026-03-04T20:03:47.610569,1.569691,-5.498706,8.843872,-0.045204,-0.186924,-0.210137
2026-03-04T20:03:47.620569,1.741974,-5.345565,8.743373,0.141720,-0.219911,-0.193033
2026-03-04T20:03:47.630569,1.823330,-4.938785,8.886943,0.283441,-0.234572,-0.182037
2026-03-04T20:03:47.639569,1.899901,-4.579862,8.930013,0.316428,-0.234572,-0.178372
2026-03-04T20:03:47.649569,2.062613,-4.508077,8.819944,0.274889,-0.228463,-0.188146
2026-03-04T20:03:47.658569,2.134397,-4.479363,8.786444,0.226020,-0.218689,-0.199142
2026-03-04T20:03:47.668569,2.187039,-4.479363,8.757730,0.186924,-0.205250,-0.211359
2026-03-04T20:03:47.678569,2.110469,-4.503292,8.920442,0.157603,-0.174707,-0.224798
2026-03-04T20:03:47.687569,2.000399,-4.517649,9.049655,0.106290,-0.149051,-0.238237
2026-03-04T20:03:47.697569,1.923829,-4.517649,8.963513,0.064751,-0.149051,-0.256563
2026-03-04T20:03:47.707569,1.990828,-4.436293,9.250652,0.041538,-0.160046,-0.271224
2026-03-04T20:03:47.716569,2.100898,-4.570291,9.241080,0.013439,-0.164933,-0.282219
2026-03-04T20:03:47.726569,2.177468,-4.570291,9.207581,-0.007330,-0.177150,-0.291993
2026-03-04T20:03:47.735569,2.268395,-4.484149,9.355936,-0.003665,-0.191811,-0.302989
2026-03-04T20:03:47.745569,2.435893,-4.307080,9.442077,-0.002443,-0.182037,-0.306654
2026-03-04T20:03:47.755569,2.426322,-4.254438,9.255437,-0.047647,-0.163711,-0.301767
2026-03-04T20:03:47.764569,2.431107,-4.063012,9.111868,-0.085521,-0.146607,-0.294436
2026-03-04T20:03:47.774569,2.273181,-4.144368,8.805587,-0.150272,-0.125838,-0.279776
2026-03-04T20:03:47.783569,2.105683,-4.254438,8.733802,-0.185702,-0.131946,-0.289550
2026-03-04T20:03:47.793569,2.033899,-4.398007,8.824729,-0.202807,-0.164933,-0.302989
2026-03-04T20:03:47.803569,2.210968,-4.637290,8.963513,-0.182037,-0.201585,-0.312762
2026-03-04T20:03:47.812569,2.383251,-4.642075,9.174081,-0.156381,-0.235793,-0.324980
2026-03-04T20:03:47.822569,2.498106,-4.594219,9.437292,-0.113620,-0.256563,-0.342084
2026-03-04T20:03:47.832569,2.569891,-4.536791,9.475577,-0.114842,-0.252898,-0.351858
2026-03-04T20:03:47.841569,2.584248,-4.608576,9.274580,-0.129503,-0.255341,-0.360410
2026-03-04T20:03:47.851569,2.445464,-4.522434,9.336793,-0.150272,-0.262671,-0.361632
2026-03-04T20:03:47.860569,2.426322,-4.455435,9.140582,-0.173485,-0.273667,-0.362853
2026-03-04T20:03:47.870569,2.335394,-4.484149,8.992227,-0.200363,-0.288328,-0.364075
2026-03-04T20:03:47.880569,2.277967,-4.536791,9.001798,-0.226020,-0.324980,-0.365297
2026-03-04T20:03:47.889569,2.373680,-4.536791,8.939585,-0.215024,-0.366519,-0.373849
2026-03-04T20:03:47.899569,2.517249,-4.608576,8.882157,-0.186924,-0.403170,-0.381179
2026-03-04T20:03:47.908569,2.732603,-4.651647,8.858229,-0.160046,-0.436157,-0.387288
2026-03-04T20:03:47.918569,2.876172,-4.747360,8.676374,-0.118507,-0.454483,-0.390953
2026-03-04T20:03:47.928569,2.919243,-4.622933,8.714659,-0.080634,-0.459370,-0.398284
2026-03-04T20:03:47.937569,2.991028,-4.560719,8.700302,-0.073303,-0.463035,-0.398284
2026-03-04T20:03:47.947569,2.967100,-4.445864,8.714659,-0.042760,-0.448374,-0.399505
2026-03-04T20:03:47.957569,2.967100,-4.407579,8.657232,-0.076969,-0.439822,-0.394618
2026-03-04T20:03:47.966569,3.014956,-4.455435,8.556733,-0.081855,-0.453261,-0.401949
2026-03-04T20:03:47.976569,3.110669,-4.532006,8.628518,-0.087964,-0.458148,-0.406836
2026-03-04T20:03:47.985569,3.192025,-4.675575,8.346165,-0.094073,-0.447153,-0.403170
2026-03-04T20:03:47.995569,2.981456,-4.661218,8.312665,-0.070860,-0.448374,-0.415388
2026-03-04T20:03:48.005569,3.062812,-4.670789,8.776873,-0.037873,-0.482583,-0.431270
2026-03-04T20:03:48.014569,3.268595,-4.613361,8.886943,0.028099,-0.503352,-0.454483
2026-03-04T20:03:48.024569,3.450450,-4.560719,8.781658,0.061086,-0.503352,-0.481361
2026-03-04T20:03:48.033569,3.598805,-4.436293,8.566304,0.053756,-0.507018,-0.519235
2026-03-04T20:03:48.043569,3.661018,-4.378865,8.504091,0.023212,-0.486248,-0.561995
2026-03-04T20:03:48.053569,3.608376,-4.546362,8.504091,-0.043982,-0.456927,-0.607199
2026-03-04T20:03:48.062569,3.661018,-4.527220,8.446663,-0.101403,-0.445931,-0.647517
2026-03-04T20:03:48.072569,3.622733,-4.417150,8.781658,-0.130725,-0.427605,-0.681725
2026-03-04T20:03:48.082569,3.684946,-4.412364,8.657232,-0.168598,-0.416610,-0.706160
2026-03-04T20:03:48.091569,3.780659,-4.335794,8.547162,-0.178372,-0.419053,-0.728151
2026-03-04T20:03:48.101569,3.804587,-4.115654,8.848657,-0.179594,-0.417831,-0.768468
2026-03-04T20:03:48.110569,3.536591,-3.354737,7.408178,-0.162490,-0.370184,-0.795346
2026-03-04T20:03:48.120569,3.661018,-4.613361,7.800601,-0.399505,-0.463035,-0.766024
2026-03-04T20:03:48.130569,4.287938,-4.201796,8.958727,-0.295658,-0.482583,-0.807563
2026-03-04T20:03:48.139569,4.436293,-4.670789,8.944370,-0.375071,-0.433714,-0.845437
2026-03-04T20:03:48.149569,4.173082,-4.709074,8.461020,-0.366519,-0.394618,-0.844215
2026-03-04T20:03:48.158569,3.986442,-4.814359,8.207381,-0.433714,-0.388510,-0.846659
2026-03-04T20:03:48.168569,3.929014,-5.010570,7.920242,-0.439822,-0.442266,-0.862541
2026-03-04T20:03:48.178569,3.929014,-4.919643,8.092526,-0.377514,-0.480139,-0.885754
2026-03-04T20:03:48.187569,4.000799,-5.024927,8.102097,-0.333532,-0.525343,-0.913854
2026-03-04T20:03:48.197569,4.412364,-5.067998,8.408378,-0.294436,-0.597426,-0.951727
2026-03-04T20:03:48.207569,4.785645,-4.957928,8.595018,-0.232128,-0.623082,-0.978605
2026-03-04T20:03:48.216569,4.838287,-4.689932,8.422735,-0.147829,-0.605978,-1.006705
2026-03-04T20:03:48.226569,4.689932,-4.532006,8.216952,-0.109955,-0.613308,-1.011592
2026-03-04T20:03:48.235569,4.508077,-4.465006,8.346165,-0.061086,-0.660956,-1.023809
2026-03-04T20:03:48.245569,4.503292,-4.225724,8.939585,-0.006108,-0.751364,-1.021366
2026-03-04T20:03:48.255569,4.828716,-3.747160,9.475577,0.053756,-0.839328,-0.981049
2026-03-04T20:03:48.264569,5.331208,-3.215953,9.466006,-0.002443,-0.897971,-0.875980
2026-03-04T20:03:48.274569,5.718846,-2.775674,8.676374,-0.153938,-0.890641,-0.774576
2026-03-04T20:03:48.283569,5.876772,-2.694318,8.092526,-0.410501,-0.846659,-0.682947
2026-03-04T20:03:48.293569,5.881557,-3.244667,7.829315,-0.706160,-0.801455,-0.646295
2026-03-04T20:03:48.303569,5.938985,-4.153940,7.633104,-0.791681,-0.740368,-0.669508
2026-03-04T20:03:48.312569,6.072983,-5.206781,7.484749,-0.702494,-0.658512,-0.704938
2026-03-04T20:03:48.322569,6.039484,-6.116054,7.269395,-0.442266,-0.551000,-0.746477
2026-03-04T20:03:48.332569,5.685346,-6.326622,6.350551,-0.028099,-0.500909,-0.775798
2026-03-04T20:03:48.341569,5.541777,-5.680560,5.919843,0.437379,-0.546113,-0.805120
2026-03-04T20:03:48.351569,5.881557,-4.474578,6.460621,0.691499,-0.613308,-0.823446
2026-03-04T20:03:48.360569,6.441478,-3.665804,6.872186,0.577878,-0.648738,-0.784350
2026-03-04T20:03:48.370569,6.896114,-3.235096,6.948756,0.213802,-0.597426,-0.700051
2026-03-04T20:03:48.380569,7.030112,-3.445664,7.508677,-0.212581,-0.471587,-0.586430
2026-03-04T20:03:48.389569,6.943971,-4.106083,7.393821,-0.549778,-0.397062,-0.499687
2026-03-04T20:03:48.399569,6.996613,-4.919643,6.948756,-0.685390,-0.329867,-0.433714
2026-03-04T20:03:48.408569,7.221538,-4.876572,7.188039,-0.551000,-0.368962,-0.395840
2026-03-04T20:03:48.418569,7.867600,-4.388436,7.771887,-0.371405,-0.471587,-0.386066
2026-03-04T20:03:48.428569,8.470592,-4.517649,7.116254,-0.537561,-0.499687,-0.241902
2026-03-04T20:03:48.437569,7.633104,-4.986642,3.996013,-1.400102,-0.476474,0.105068
2026-03-04T20:03:48.447569,8.609375,-5.838487,6.326622,-1.726304,-0.419053,-0.003665
2026-03-04T20:03:48.457569,9.068797,-6.340979,8.724231,-1.825264,-0.436157,-0.013439
2026-03-04T20:03:48.466569,8.910871,-7.082754,7.259823,-1.624901,-0.305432,0.073303
2026-03-04T20:03:48.476569,8.499305,-6.460621,6.326622,-1.257160,-0.273667,0.133168
2026-03-04T20:03:48.485569,8.461020,-5.656632,7.374679,-0.978605,-0.331088,0.158824
2026-03-04T20:03:48.495569,8.394021,-5.412564,7.427321,-0.875980,-0.321315,0.200363
2026-03-04T20:03:48.505569,8.341379,-5.508277,6.527620,-0.831998,-0.294436,0.239459
2026-03-04T20:03:48.514569,8.245666,-5.747559,6.671189,-0.762359,-0.305432,0.279776
2026-03-04T20:03:48.524569,8.193024,-5.929414,6.929614,-0.625525,-0.307876,0.331088
2026-03-04T20:03:48.533569,7.910671,-5.718846,6.608976,-0.441044,-0.309097,0.384845
2026-03-04T20:03:48.543569,7.714460,-5.326423,6.427121,-0.293215,-0.340862,0.428827
2026-03-04T20:03:48.553569,7.690531,-5.024927,6.604190,-0.239459,-0.386066,0.455705
2026-03-04T20:03:48.562569,7.791030,-4.929214,6.771687,-0.241902,-0.406836,0.492357
2026-03-04T20:03:48.572569,7.700103,-4.948357,6.589833,-0.241902,-0.392175,0.522900
2026-03-04T20:03:48.582569,7.484749,-4.900500,6.532405,-0.210137,-0.366519,0.531452
2026-03-04T20:03:48.591569,7.216752,-4.689932,6.623332,-0.157603,-0.346971,0.526565
2026-03-04T20:03:48.601569,7.010970,-4.608576,6.714260,-0.112399,-0.343306,0.509461
2026-03-04T20:03:48.610569,6.958328,-4.618147,6.647261,-0.054977,-0.348193,0.489913
2026-03-04T20:03:48.620569,6.891329,-4.642075,6.599404,0.012217,-0.345749,0.472809
2026-03-04T20:03:48.630569,6.699903,-4.661218,6.599404,0.095294,-0.334754,0.458148
2026-03-04T20:03:48.639569,6.565905,-4.560719,6.719045,0.156381,-0.321315,0.452040
2026-03-04T20:03:48.649569,6.522834,-4.498506,6.690331,0.188146,-0.309097,0.450818
2026-03-04T20:03:48.658569,6.336194,-4.460221,6.661618,0.191811,-0.293215,0.449596
2026-03-04T20:03:48.668569,6.288337,-4.331008,6.647261,0.162490,-0.267558,0.453261
2026-03-04T20:03:48.678569,6.139982,-4.292723,6.513263,0.101403,-0.238237,0.469144
2026-03-04T20:03:48.687569,5.915057,-4.091726,6.254838,0.032986,-0.195476,0.476474
2026-03-04T20:03:48.697569,5.771488,-4.034298,6.015556,-0.053756,-0.157603,0.485026
2026-03-04T20:03:48.707569,5.460421,-3.981656,6.053841,-0.116064,-0.114842,0.469144
2026-03-04T20:03:48.716569,5.254638,-4.249652,6.192624,-0.153938,-0.078190,0.453261
2026-03-04T20:03:48.726569,5.197210,-4.450650,6.197410,-0.134390,-0.056199,0.442266
2026-03-04T20:03:48.735569,5.283352,-4.575076,6.317051,-0.091629,-0.051312,0.432492
2026-03-04T20:03:48.745569,5.536991,-4.694717,6.326622,-0.043982,-0.051312,0.406836
2026-03-04T20:03:48.755569,5.742774,-4.823930,6.369693,-0.008552,-0.032986,0.376292
2026-03-04T20:03:48.764569,5.958128,-4.800002,6.427121,0.024434,0.006108,0.340862
2026-03-04T20:03:48.774569,6.082555,-4.694717,6.407978,0.062308,0.058643,0.301767
2026-03-04T20:03:48.783569,5.996413,-4.661218,6.221338,0.076969,0.122173,0.265115
2026-03-04T20:03:48.793569,5.948556,-4.828716,6.111268,0.084299,0.191811,0.229685
2026-03-04T20:03:48.803569,5.804987,-4.900500,6.144768,0.096516,0.256563,0.217467
2026-03-04T20:03:48.812569,5.709274,-5.144568,6.116054,0.119729,0.315206,0.212581
2026-03-04T20:03:48.822569,5.651846,-5.197210,6.116054,0.134390,0.350636,0.202807
2026-03-04T20:03:48.832569,5.632704,-5.230710,6.111268,0.155159,0.367740,0.185702
2026-03-04T20:03:48.841569,5.642275,-5.278566,6.001199,0.167377,0.376292,0.152716
2026-03-04T20:03:48.851569,5.718846,-5.431707,5.895914,0.162490,0.376292,0.103847
2026-03-04T20:03:48.860569,5.694917,-5.422136,5.852844,0.144164,0.365297,0.051312
2026-03-04T20:03:48.870569,5.824130,-5.441278,5.881557,0.102625,0.342084,0.003665
2026-03-04T20:03:48.880569,5.843272,-5.359922,5.857629,0.030543,0.334754,-0.035430
2026-03-04T20:03:48.889569,5.785845,-5.264209,5.828915,-0.079412,0.337197,-0.050090
2026-03-04T20:03:48.899569,5.613561,-5.254638,5.972485,-0.213802,0.357966,-0.043982
2026-03-04T20:03:48.908569,5.383850,-5.417350,6.116054,-0.361632,0.389731,-0.026878
2026-03-04T20:03:48.918569,5.101497,-5.728417,6.187839,-0.431270,0.421496,0.001221
2026-03-04T20:03:48.928569,4.833501,-5.891129,6.250052,-0.419053,0.438601,0.032986
2026-03-04T20:03:48.937569,4.651647,-6.168696,6.245266,-0.324980,0.434935,0.063529
2026-03-04T20:03:48.947569,4.541577,-6.077769,6.135197,-0.168598,0.420275,0.095294
2026-03-04T20:03:48.957569,4.512863,-5.781059,5.991627,-0.010995,0.411723,0.131946
2026-03-04T20:03:48.966569,4.311866,-5.508277,5.915057,0.105068,0.411723,0.157603
2026-03-04T20:03:48.976569,4.125226,-5.048855,5.886343,0.169820,0.409279,0.175929
2026-03-04T20:03:48.985569,4.125226,-4.838287,5.895914,0.160046,0.406836,0.174707
2026-03-04T20:03:48.995569,4.158725,-4.862215,6.049055,0.123394,0.398284,0.155159
2026-03-04T20:03:49.005569,4.331008,-4.996213,6.154339,0.086742,0.386066,0.119729
2026-03-04T20:03:49.014569,4.455435,-5.134997,6.192624,0.078190,0.375071,0.091629
2026-03-04T20:03:49.024569,4.316651,-5.091926,6.226124,0.081855,0.370184,0.079412
2026-03-04T20:03:49.033569,4.192225,-4.938785,6.226124,0.063529,0.365297,0.076969
2026-03-04T20:03:49.043569,4.010370,-4.800002,6.283552,0.008552,0.351858,0.073303
2026-03-04T20:03:49.053569,3.895515,-4.881358,6.422335,-0.067195,0.328645,0.069638
2026-03-04T20:03:49.062569,3.929014,-4.929214,6.537191,-0.125838,0.290771,0.059864
2026-03-04T20:03:49.072569,4.173082,-5.163711,6.532405,-0.146607,0.249232,0.029321
2026-03-04T20:03:49.082569,4.350151,-5.446064,6.766902,-0.097738,0.219911,-0.006108
2026-03-04T20:03:49.091569,4.565505,-5.642275,6.967899,-0.012217,0.183259,-0.040317
2026-03-04T20:03:49.101569,4.914857,-5.709274,7.302894,0.092851,0.150272,-0.075747
2026-03-04T20:03:49.110569,5.259424,-5.714060,7.700103,0.168598,0.145385,-0.100181
2026-03-04T20:03:49.120569,5.446064,-5.828915,7.795816,0.195476,0.172263,-0.103847
2026-03-04T20:03:49.130569,5.556134,-5.814558,7.824529,0.194255,0.208915,-0.083077
2026-03-04T20:03:49.139569,5.513063,-5.699703,7.724031,0.175929,0.243124,-0.059864
2026-03-04T20:03:49.149569,5.312066,-5.737988,7.609175,0.162490,0.270002,-0.045204
2026-03-04T20:03:49.158569,5.158925,-5.819344,7.575676,0.179594,0.280997,-0.026878
2026-03-04T20:03:49.168569,5.130211,-5.704489,7.580461,0.238237,0.273667,-0.009773
2026-03-04T20:03:49.178569,5.087140,-5.556134,7.599604,0.299323,0.261450,0.002443
2026-03-04T20:03:49.187569,5.053641,-5.249852,7.590033,0.338419,0.245567,0.015882
2026-03-04T20:03:49.197569,4.938785,-4.929214,7.623532,0.324980,0.228463,0.039095
2026-03-04T20:03:49.207569,4.828716,-4.642075,7.633104,0.256563,0.219911,0.059864
2026-03-04T20:03:49.216569,4.579862,-4.364508,7.685746,0.153938,0.217467,0.078190
2026-03-04T20:03:49.226569,4.345365,-4.125226,7.743173,0.031764,0.206472,0.091629
2026-03-04T20:03:49.235569,4.273581,-4.086941,7.795816,-0.095294,0.186924,0.102625
2026-03-04T20:03:49.245569,4.158725,-4.106083,7.877171,-0.183259,0.164933,0.101403
2026-03-04T20:03:49.255569,4.206582,-4.000799,8.092526,-0.223576,0.152716,0.090408
2026-03-04T20:03:49.264569,4.235296,-4.125226,8.236095,-0.234572,0.155159,0.079412
2026-03-04T20:03:49.274569,4.201796,-4.177868,8.451449,-0.191811,0.158824,0.072082
2026-03-04T20:03:49.283569,4.220939,-4.249652,8.556733,-0.120951,0.164933,0.076969
2026-03-04T20:03:49.293569,4.249652,-4.264009,8.609375,-0.040317,0.178372,0.090408
2026-03-04T20:03:49.303569,4.287938,-4.244867,8.475377,0.030543,0.190589,0.102625
2026-03-04T20:03:49.312569,4.316651,-4.287938,8.231309,0.087964,0.200363,0.109955
2026-03-04T20:03:49.322569,4.378865,-4.287938,7.953742,0.141720,0.200363,0.109955
2026-03-04T20:03:49.332569,4.340580,-4.273581,7.853243,0.186924,0.191811,0.106290
2026-03-04T20:03:49.341569,4.388436,-4.197010,7.843672,0.215024,0.179594,0.098960
2026-03-04T20:03:49.351569,4.364508,-4.063012,7.905885,0.217467,0.161268,0.083077
2026-03-04T20:03:49.360569,4.359722,-3.938585,7.805387,0.188146,0.150272,0.063529
2026-03-04T20:03:49.370569,4.302295,-3.909872,7.891528,0.119729,0.146607,0.042760
2026-03-04T20:03:49.380569,4.249652,-3.881158,7.934599,0.025656,0.149051,0.015882
2026-03-04T20:03:49.389569,4.254438,-4.015156,7.953742,-0.076969,0.147829,-0.012217
2026-03-04T20:03:49.399569,4.287938,-4.244867,7.958527,-0.149051,0.146607,-0.039095
2026-03-04T20:03:49.408569,4.350151,-4.417150,8.015955,-0.196698,0.144164,-0.059864
2026-03-04T20:03:49.418569,4.436293,-4.532006,8.039883,-0.233350,0.138055,-0.072082
2026-03-04T20:03:49.428569,4.465006,-4.656432,8.039883,-0.262671,0.135612,-0.087964
2026-03-04T20:03:49.437569,4.484149,-4.723431,8.015955,-0.283441,0.133168,-0.101403
2026-03-04T20:03:49.447569,4.527220,-4.742574,7.996813,-0.301767,0.134390,-0.105068
2026-03-04T20:03:49.457569,4.407579,-4.809573,7.776673,-0.338419,0.134390,-0.111177
2026-03-04T20:03:49.466569,4.216153,-5.091926,7.393821,-0.379958,0.129503,-0.117286
2026-03-04T20:03:49.476569,4.067798,-5.182853,7.202396,-0.351858,0.114842,-0.130725
2026-03-04T20:03:49.485569,3.972085,-5.178068,7.231109,-0.273667,0.075747,-0.147829
2026-03-04T20:03:49.495569,3.967299,-5.125426,7.369893,-0.191811,0.026878,-0.158824
2026-03-04T20:03:49.505569,4.067798,-4.867001,7.503891,-0.134390,-0.009773,-0.156381
2026-03-04T20:03:49.514569,4.110869,-4.733003,7.743173,-0.139277,-0.024434,-0.147829
2026-03-04T20:03:49.524569,4.177868,-4.685146,7.776673,-0.189368,-0.021991,-0.135612
2026-03-04T20:03:49.533569,4.168296,-4.689932,7.786244,-0.245567,-0.007330,-0.124616
2026-03-04T20:03:49.543569,4.101297,-4.867001,7.642675,-0.278554,0.003665,-0.130725
2026-03-04T20:03:49.553569,3.996013,-5.039284,7.475177,-0.274889,-0.001221,-0.141720
2026-03-04T20:03:49.562569,4.019941,-5.111069,7.379464,-0.221133,-0.019547,-0.156381
2026-03-04T20:03:49.572569,4.086941,-5.163711,7.345965,-0.152716,-0.042760,-0.172263
2026-03-04T20:03:49.582569,4.163511,-5.211567,7.422535,-0.086742,-0.054977,-0.183259
2026-03-04T20:03:49.591569,4.259224,-5.230710,7.470392,-0.031764,-0.056199,-0.186924
2026-03-04T20:03:49.601569,4.192225,-5.249852,7.369893,0.002443,-0.051312,-0.184481
2026-03-04T20:03:49.610569,4.149154,-5.235495,7.269395,0.032986,-0.053756,-0.174707
2026-03-04T20:03:49.620569,4.125226,-5.292923,7.197610,0.057421,-0.065973,-0.167377
2026-03-04T20:03:49.630569,4.153940,-5.283352,7.173682,0.078190,-0.085521,-0.161268
2026-03-04T20:03:49.639569,4.192225,-5.249852,7.178467,0.091629,-0.105068,-0.158824
2026-03-04T20:03:49.649569,4.354937,-5.130211,7.312465,0.090408,-0.120951,-0.158824
2026-03-04T20:03:49.658569,4.441078,-5.115854,7.269395,0.067195,-0.119729,-0.161268
2026-03-04T20:03:49.668569,4.431507,-5.154139,7.269395,0.026878,-0.113620,-0.156381
2026-03-04T20:03:49.678569,4.378865,-5.178068,7.226324,-0.006108,-0.108733,-0.151494
2026-03-04T20:03:49.687569,4.331008,-5.331208,7.092326,-0.019547,-0.118507,-0.150272
2026-03-04T20:03:49.697569,4.369294,-5.441278,6.972685,-0.009773,-0.135612,-0.155159
2026-03-04T20:03:49.707569,4.436293,-5.503491,7.006184,0.026878,-0.160046,-0.163711
2026-03-04T20:03:49.716569,4.570291,-5.527420,7.034898,0.062308,-0.182037,-0.164933
2026-03-04T20:03:49.726569,4.670789,-5.460421,7.073183,0.078190,-0.193033,-0.162490
2026-03-04T20:03:49.735569,4.589433,-5.316851,7.063612,0.058643,-0.190589,-0.155159
2026-03-04T20:03:49.745569,4.594219,-5.340780,7.092326,0.025656,-0.188146,-0.146607
2026-03-04T20:03:49.755569,4.541577,-5.398207,7.092326,-0.013439,-0.189368,-0.138055
2026-03-04T20:03:49.764569,4.522434,-5.446064,7.058826,-0.028099,-0.200363,-0.134390
2026-03-04T20:03:49.774569,4.651647,-5.627918,7.039684,-0.017104,-0.218689,-0.134390
2026-03-04T20:03:49.783569,4.723431,-5.647061,7.116254,0.018325,-0.235793,-0.130725
2026-03-04T20:03:49.793569,4.756931,-5.580062,7.144968,0.051312,-0.248011,-0.125838
2026-03-04T20:03:49.803569,4.800002,-5.489135,7.149753,0.068416,-0.249232,-0.119729
2026-03-04T20:03:49.812569,4.814359,-5.388636,7.216752,0.064751,-0.246789,-0.114842
2026-03-04T20:03:49.822569,4.847858,-5.374279,7.231109,0.054977,-0.243124,-0.109955
2026-03-04T20:03:49.832569,4.814359,-5.359922,7.087540,0.045204,-0.239459,-0.106290
2026-03-04T20:03:49.841569,4.857429,-5.450849,7.125825,0.043982,-0.244346,-0.103847
2026-03-04T20:03:49.851569,4.996213,-5.489135,7.092326,0.052534,-0.248011,-0.108733
2026-03-04T20:03:49.860569,5.072783,-5.455635,7.082754,0.061086,-0.246789,-0.109955
2026-03-04T20:03:49.870569,5.039284,-5.388636,7.101897,0.062308,-0.238237,-0.103847
2026-03-04T20:03:49.880569,5.053641,-5.259424,7.092326,0.041538,-0.232128,-0.094073
2026-03-04T20:03:49.889569,4.981856,-5.120640,7.092326,-0.007330,-0.224798,-0.083077
2026-03-04T20:03:49.899569,4.881358,-5.163711,7.054041,-0.058643,-0.216246,-0.076969
2026-03-04T20:03:49.908569,4.962714,-5.182853,6.977470,-0.087964,-0.208915,-0.079412
2026-03-04T20:03:49.918569,4.943571,-5.173282,6.943971,-0.095294,-0.207694,-0.083077
2026-03-04T20:03:49.928569,5.029713,-5.235495,7.054041,-0.081855,-0.206472,-0.091629
2026-03-04T20:03:49.937569,5.087140,-5.134997,6.915257,-0.065973,-0.206472,-0.102625
2026-03-04T20:03:49.947569,5.000999,-5.010570,6.762116,-0.068416,-0.200363,-0.118507
2026-03-04T20:03:49.957569,5.020141,-5.005784,6.666403,-0.084299,-0.199142,-0.131946
2026-03-04T20:03:49.966569,5.077569,-5.053641,6.637689,-0.108733,-0.201585,-0.144164
2026-03-04T20:03:49.976569,5.192425,-5.120640,6.637689,-0.139277,-0.205250,-0.151494
2026-03-04T20:03:49.985569,5.273781,-5.111069,6.680760,-0.163711,-0.208915,-0.163711
2026-03-04T20:03:49.995569,5.355136,-5.230710,6.795616,-0.177150,-0.210137,-0.178372
2026-03-04T20:03:50.005569,5.479563,-5.307280,6.786044,-0.177150,-0.211359,-0.193033
2026-03-04T20:03:50.014569,5.546562,-5.297709,6.833901,-0.167377,-0.208915,-0.207694
2026-03-04T20:03:50.024569,5.532205,-5.240281,6.795616,-0.150272,-0.200363,-0.218689
2026-03-04T20:03:50.033569,5.603990,-5.292923,6.819544,-0.134390,-0.190589,-0.228463
2026-03-04T20:03:50.043569,5.589633,-5.288137,6.752545,-0.111177,-0.183259,-0.233350
2026-03-04T20:03:50.053569,5.618347,-5.383850,6.685546,-0.083077,-0.184481,-0.233350
2026-03-04T20:03:50.062569,5.704489,-5.359922,6.709474,-0.050090,-0.190589,-0.232128
2026-03-04T20:03:50.072569,5.766702,-5.340780,6.652046,-0.024434,-0.191811,-0.233350
2026-03-04T20:03:50.082569,5.752345,-5.288137,6.719045,-0.008552,-0.191811,-0.240680
2026-03-04T20:03:50.091569,5.838487,-5.230710,6.762116,0.007330,-0.190589,-0.250454
2026-03-04T20:03:50.101569,5.838487,-5.163711,6.795616,0.018325,-0.185702,-0.261450
2026-03-04T20:03:50.110569,5.891129,-5.235495,6.757331,0.026878,-0.178372,-0.271224
2026-03-04T20:03:50.120569,5.838487,-5.158925,6.661618,0.030543,-0.173485,-0.282219
2026-03-04T20:03:50.130569,5.795416,-5.139782,6.604190,0.035430,-0.174707,-0.294436
2026-03-04T20:03:50.139569,5.809773,-5.000999,6.465406,0.046425,-0.178372,-0.302989
2026-03-04T20:03:50.149569,5.761916,-5.020141,6.360122,0.048869,-0.186924,-0.310319
2026-03-04T20:03:50.158569,5.819344,-4.986642,6.436692,0.051312,-0.195476,-0.320093
2026-03-04T20:03:50.168569,5.828915,-4.914857,6.518048,0.059864,-0.204028,-0.327423
2026-03-04T20:03:50.178569,5.867201,-4.737788,6.599404,0.058643,-0.207694,-0.337197
2026-03-04T20:03:50.187569,5.934200,-4.560719,6.642475,0.045204,-0.207694,-0.349414
2026-03-04T20:03:50.197569,6.015556,-4.541577,6.704688,0.012217,-0.200363,-0.368962
2026-03-04T20:03:50.207569,5.962913,-4.532006,6.604190,-0.013439,-0.185702,-0.398284
2026-03-04T20:03:50.216569,5.905486,-4.594219,6.570690,-0.017104,-0.179594,-0.417831
2026-03-04T20:03:50.226569,5.862415,-4.450650,6.551548,-0.017104,-0.182037,-0.437379
2026-03-04T20:03:50.235569,5.934200,-4.335794,6.561119,-0.020769,-0.183259,-0.453261
2026-03-04T20:03:50.245569,5.867201,-4.173082,6.532405,-0.034208,-0.179594,-0.475253
2026-03-04T20:03:50.255569,5.862415,-4.077369,6.451049,-0.059864,-0.174707,-0.504574
2026-03-04T20:03:50.264569,5.910271,-4.144368,6.412764,-0.085521,-0.177150,-0.540004
2026-03-04T20:03:50.274569,6.034698,-4.235296,6.594619,-0.091629,-0.186924,-0.568104
2026-03-04T20:03:50.283569,6.178267,-4.244867,6.838686,-0.091629,-0.178372,-0.588873
2026-03-04T20:03:50.293569,6.264409,-4.201796,6.833901,-0.107512,-0.140498,-0.602312
2026-03-04T20:03:50.303569,6.250052,-4.211367,6.805187,-0.149051,-0.101403,-0.608421
2026-03-04T20:03:50.312569,6.254838,-4.273581,6.613761,-0.210137,-0.067195,-0.618195
2026-03-04T20:03:50.322569,6.173482,-4.374079,6.321837,-0.262671,-0.043982,-0.627969
2026-03-04T20:03:50.332569,6.025127,-4.345365,6.130411,-0.279776,-0.039095,-0.637743
2026-03-04T20:03:50.341569,5.996413,-4.426721,6.068198,-0.288328,-0.053756,-0.648738
2026-03-04T20:03:50.351569,6.063412,-4.441078,6.173482,-0.284663,-0.074525,-0.660956
2026-03-04T20:03:50.360569,6.130411,-4.316651,6.388836,-0.288328,-0.078190,-0.671951
2026-03-04T20:03:50.370569,6.250052,-4.249652,6.594619,-0.312762,-0.068416,-0.685390
2026-03-04T20:03:50.380569,6.455835,-4.244867,6.608976,-0.370184,-0.057421,-0.692721
2026-03-04T20:03:50.389569,6.508477,-4.321437,6.738188,-0.422718,-0.035430,-0.692721
2026-03-04T20:03:50.399569,6.522834,-4.220939,6.613761,-0.480139,0.000000,-0.692721
2026-03-04T20:03:50.408569,6.384050,-4.321437,6.336194,-0.526565,0.039095,-0.696386
2026-03-04T20:03:50.418569,6.269195,-4.407579,6.130411,-0.527787,0.062308,-0.703716
2026-03-04T20:03:50.428569,6.159125,-4.484149,6.082555,-0.502131,0.064751,-0.712268
2026-03-04T20:03:50.437569,6.159125,-4.512863,6.293123,-0.430049,0.046425,-0.734259
2026-03-04T20:03:50.447569,6.293123,-4.450650,6.451049,-0.344527,0.034208,-0.755029
2026-03-04T20:03:50.457569,6.417550,-4.421936,6.695117,-0.278554,0.030543,-0.767246
2026-03-04T20:03:50.466569,6.565905,-4.307080,6.733402,-0.262671,0.036651,-0.775798
2026-03-04T20:03:50.476569,6.776473,-4.206582,6.642475,-0.289550,0.053756,-0.778242
2026-03-04T20:03:50.485569,6.637689,-4.173082,6.513263,-0.338419,0.076969,-0.775798
2026-03-04T20:03:50.495569,6.642475,-4.149154,6.350551,-0.397062,0.087964,-0.772133
2026-03-04T20:03:50.505569,6.522834,-4.268795,6.187839,-0.443488,0.086742,-0.761137
2026-03-04T20:03:50.514569,6.585047,-4.297509,6.178267,-0.465479,0.074525,-0.746477
2026-03-04T20:03:50.524569,6.671189,-4.374079,6.139982,-0.465479,0.056199,-0.728151
2026-03-04T20:03:50.533569,6.738188,-4.436293,6.254838,-0.431270,0.037873,-0.722042
2026-03-04T20:03:50.543569,6.814758,-4.484149,6.403193,-0.371405,0.035430,-0.714712
2026-03-04T20:03:50.553569,6.809973,-4.445864,6.345765,-0.271224,0.052534,-0.698829
2026-03-04T20:03:50.562569,6.685546,-4.240081,6.465406,-0.157603,0.067195,-0.686612
2026-03-04T20:03:50.572569,6.618547,-4.110869,6.336194,-0.061086,0.073303,-0.674395
2026-03-04T20:03:50.582569,6.532405,-3.900300,6.369693,0.032986,0.067195,-0.664621
2026-03-04T20:03:50.591569,6.537191,-3.790230,6.278766,0.096516,0.052534,-0.651182
2026-03-04T20:03:50.601569,6.652046,-3.603590,6.326622,0.144164,0.032986,-0.640186
2026-03-04T20:03:50.610569,6.738188,-3.560520,6.379265,0.182037,0.025656,-0.623082
2026-03-04T20:03:50.620569,6.843472,-3.479164,6.518048,0.204028,0.029321,-0.603534
2026-03-04T20:03:50.630569,6.910471,-3.292523,6.460621,0.227241,0.041538,-0.586430
2026-03-04T20:03:50.639569,6.857829,-3.225524,6.364908,0.241902,0.062308,-0.576656
2026-03-04T20:03:50.649569,6.977470,-3.101098,6.436692,0.267558,0.084299,-0.569326
2026-03-04T20:03:50.658569,6.943971,-2.890529,6.345765,0.278554,0.103847,-0.569326
2026-03-04T20:03:50.668569,6.953542,-2.689532,6.384050,0.271224,0.124616,-0.576656
2026-03-04T20:03:50.678569,6.982256,-2.565105,6.331408,0.248011,0.155159,-0.576656
2026-03-04T20:03:50.687569,6.900900,-2.435893,6.264409,0.216246,0.177150,-0.577878
2026-03-04T20:03:50.697569,6.829115,-2.498106,6.283552,0.177150,0.202807,-0.581543
2026-03-04T20:03:50.707569,6.838686,-2.517249,6.302694,0.150272,0.217467,-0.581543
2026-03-04T20:03:50.716569,6.905686,-2.622533,6.211767,0.149051,0.210137,-0.587652
2026-03-04T20:03:50.726569,6.943971,-2.723032,6.092126,0.175929,0.185702,-0.602312
2026-03-04T20:03:50.735569,7.211967,-2.727817,6.125625,0.227241,0.157603,-0.631634
2026-03-04T20:03:50.745569,7.456035,-2.718246,6.101697,0.274889,0.139277,-0.665842
2026-03-04T20:03:50.755569,7.724031,-2.699103,5.886343,0.337197,0.136833,-0.692721
2026-03-04T20:03:50.764569,7.867600,-2.584248,5.828915,0.373849,0.151494,-0.714712
2026-03-04T20:03:50.774569,7.929814,-2.483749,5.905486,0.393397,0.197920,-0.722042
2026-03-04T20:03:50.783569,7.676174,-2.431107,6.053841,0.379958,0.267558,-0.711046
2026-03-04T20:03:50.793569,7.494320,-2.474178,6.125625,0.335975,0.327423,-0.678060
2026-03-04T20:03:50.803569,7.259823,-2.416750,6.197410,0.277332,0.353080,-0.629191
2026-03-04T20:03:50.812569,7.116254,-2.431107,6.101697,0.216246,0.357966,-0.585208
2026-03-04T20:03:50.822569,7.058826,-2.407179,5.972485,0.162490,0.333532,-0.552222
2026-03-04T20:03:50.832569,7.149753,-2.612962,5.886343,0.136833,0.270002,-0.536339
2026-03-04T20:03:50.841569,7.451249,-2.756531,5.891129,0.128281,0.190589,-0.513126
2026-03-04T20:03:50.851569,7.910671,-2.780459,5.953342,0.150272,0.136833,-0.502131
2026-03-04T20:03:50.860569,8.240881,-2.847458,6.230910,0.195476,0.116064,-0.475253
2026-03-04T20:03:50.870569,8.618947,-2.746960,6.489334,0.232128,0.153938,-0.427605
2026-03-04T20:03:50.880569,8.714659,-2.885744,6.340979,0.238237,0.238237,-0.356745
2026-03-04T20:03:50.889569,8.609375,-3.019742,6.063412,0.250454,0.328645,-0.266337
2026-03-04T20:03:50.899569,8.207381,-3.139383,5.900700,0.254119,0.398284,-0.169820
2026-03-04T20:03:50.908569,7.747959,-3.192025,5.642275,0.266337,0.425162,-0.067195
2026-03-04T20:03:50.918569,7.570890,-3.148954,5.570491,0.273667,0.386066,0.039095
2026-03-04T20:03:50.928569,7.728816,-3.230310,5.953342,0.279776,0.346971,0.147829
2026-03-04T20:03:50.937569,7.762316,-3.627519,6.149554,0.320093,0.404392,0.266337
2026-03-04T20:03:50.947569,7.843672,-4.345365,6.556333,0.353080,0.507018,0.379958
2026-03-04T20:03:50.957569,7.877171,-5.211567,7.389036,0.492357,0.542448,0.496022
2026-03-04T20:03:50.966569,8.049455,-5.278566,7.590033,0.665842,0.591317,0.649960
2026-03-04T20:03:50.976569,8.073383,-4.756931,7.044469,0.830776,0.631634,0.772133
2026-03-04T20:03:50.985569,7.819744,-3.723231,6.699903,0.938288,0.651182,0.853989
2026-03-04T20:03:50.995569,7.360322,-2.876172,6.360122,0.855211,0.651182,0.922406
2026-03-04T20:03:51.005569,6.795616,-2.316252,5.661418,0.682947,0.647517,0.959058
2026-03-04T20:03:51.014569,6.288337,-2.187039,5.240281,0.478918,0.609643,0.976162
2026-03-04T20:03:51.024569,5.886343,-2.306680,5.020141,0.288328,0.548556,0.984714
2026-03-04T20:03:51.033569,5.938985,-4.575076,5.824130,-0.118507,0.360410,1.021366
2026-03-04T20:03:51.043569,18.869799,-6.900900,37.050465,-0.100181,-0.674395,0.439822
2026-03-04T20:03:51.053569,14.438291,-4.445864,12.299108,-1.240056,0.907745,1.470963
2026-03-04T20:03:51.062569,9.475577,-3.412165,-8.843872,0.073303,1.109331,2.006081
2026-03-04T20:03:51.072569,7.494320,2.593819,-1.033699,1.951103,1.663996,1.108109
2026-03-04T20:03:51.082569,4.015156,1.904686,10.916056,0.912632,0.995710,0.966388
2026-03-04T20:03:51.091569,4.871786,-0.727418,15.031711,0.349414,0.538783,1.109331
2026-03-04T20:03:51.101569,5.532205,-0.760917,8.776873,0.019547,0.511904,1.356120
2026-03-04T20:03:51.110569,5.934200,-1.622333,5.187639,-0.098960,0.497244,1.365894
2026-03-04T20:03:51.120569,6.005984,-1.679761,7.733602,-0.100181,0.486248,1.232725
2026-03-04T20:03:51.130569,5.623133,-3.201596,9.016155,-0.339641,0.560774,1.198517
2026-03-04T20:03:51.139569,5.096712,-4.560719,9.475577,-0.260228,0.637743,1.175304
2026-03-04T20:03:51.149569,4.450650,-4.962714,9.614361,-0.070860,0.657290,1.131322
2026-03-04T20:03:51.158569,3.972085,-4.962714,7.714460,0.160046,0.615752,1.094670
2026-03-04T20:03:51.168569,3.890729,-4.694717,7.207181,0.333532,0.554665,1.049466
2026-03-04T20:03:51.178569,4.130011,-4.910071,8.173882,0.340862,0.502131,0.988379
2026-03-04T20:03:51.187569,4.512863,-5.245067,8.288737,0.417831,0.516791,0.959058
2026-03-04T20:03:51.197569,4.934000,-5.053641,8.106882,0.656069,0.572991,0.933401
2026-03-04T20:03:51.207569,5.340780,-4.168296,8.513662,0.868650,0.637743,0.902858
2026-03-04T20:03:51.216569,5.517848,-3.273381,8.164310,0.916297,0.715933,0.894306
2026-03-04T20:03:51.226569,5.546562,-2.579462,7.838886,0.852767,0.791681,0.904080
2026-03-04T20:03:51.235569,5.570491,-2.019542,8.087740,0.693942,0.852767,0.911410
2026-03-04T20:03:51.245569,5.489135,-1.775474,8.183453,0.465479,0.917519,0.918741
2026-03-04T20:03:51.255569,5.350351,-1.818545,8.350950,0.199142,0.984714,0.938288
2026-03-04T20:03:51.264569,5.101497,-2.143969,8.690731,-0.053756,1.040914,0.943175
2026-03-04T20:03:51.274569,4.718646,-2.416750,8.977870,-0.202807,1.071457,0.957836
2026-03-04T20:03:51.283569,4.421936,-2.603390,9.217152,-0.266337,1.061683,0.966388
2026-03-04T20:03:51.293569,4.685146,-2.737389,9.288937,-0.304210,1.032362,0.955393
2026-03-04T20:03:51.303569,4.594219,-3.828516,9.351150,-0.311541,0.996931,0.933401
2026-03-04T20:03:51.312569,4.067798,-3.938585,9.346365,-0.186924,1.032362,0.917519
2026-03-04T20:03:51.322569,3.460021,-4.264009,9.241080,-0.091629,1.048244,0.910189
2026-03-04T20:03:51.332569,2.924029,-4.297509,9.078368,-0.001221,0.982271,0.912632
2026-03-04T20:03:51.341569,2.627319,-4.278366,9.169296,0.100181,0.856432,0.912632
2026-03-04T20:03:51.351569,2.584248,-4.058227,9.446863,0.195476,0.740368,0.899193
2026-03-04T20:03:51.360569,2.675175,-3.498306,9.748359,0.266337,0.623082,0.916297
2026-03-04T20:03:51.370569,3.268595,-1.378265,10.810772,0.123394,0.355523,0.976162
2026-03-04T20:03:51.380569,2.924029,-3.144168,9.121439,-0.621860,0.410501,1.025031
2026-03-04T20:03:51.389569,2.617747,-4.455435,9.140582,-0.702494,0.453261,1.014036
2026-03-04T20:03:51.399569,2.143969,-4.474578,9.207581,-0.504574,0.368962,1.011592
2026-03-04T20:03:51.408569,2.167897,-4.086941,9.293722,-0.466700,0.248011,1.021366
2026-03-04T20:03:51.418569,2.354537,-4.536791,9.040083,-0.548556,0.158824,1.026253
2026-03-04T20:03:51.428569,2.560320,-4.790430,9.030512,-0.489913,0.089186,1.025031
2026-03-04T20:03:51.437569,2.737389,-4.436293,9.049655,-0.394618,0.062308,1.014036
2026-03-04T20:03:51.447569,2.890529,-4.110869,9.207581,-0.389731,0.069638,1.010370
2026-03-04T20:03:51.457569,2.679961,-4.063012,9.150153,-0.456927,0.085521,1.003040
2026-03-04T20:03:51.466569,2.723032,-4.350151,9.336793,-0.575434,0.101403,0.984714
2026-03-04T20:03:51.476569,2.526820,-4.527220,9.188438,-0.618195,0.133168,0.941954
2026-03-04T20:03:51.485569,2.072184,-4.484149,9.183653,-0.658512,0.150272,0.877202
2026-03-04T20:03:51.495569,1.746760,-4.876572,9.183653,-0.742811,0.101403,0.792902
2026-03-04T20:03:51.505569,1.545763,-5.288137,9.030512,-0.744033,0.009773,0.693942
2026-03-04T20:03:51.514569,1.459621,-5.575276,8.743373,-0.692721,-0.101403,0.613308
2026-03-04T20:03:51.524569,1.550549,-5.651846,8.528019,-0.596204,-0.224798,0.559552
2026-03-04T20:03:51.533569,1.914258,-5.446064,8.743373,-0.471587,-0.324980,0.526565
2026-03-04T20:03:51.543569,2.215753,-5.288137,8.604590,-0.403170,-0.378736,0.511904
2026-03-04T20:03:51.553569,2.536391,-5.130211,8.537591,-0.333532,-0.401949,0.515570
2026-03-04T20:03:51.562569,2.770888,-4.651647,8.312665,-0.277332,-0.386066,0.519235
2026-03-04T20:03:51.572569,3.110669,-4.498506,8.145168,-0.343306,-0.351858,0.540004
2026-03-04T20:03:51.582569,3.469592,-4.962714,8.317451,-0.421496,-0.267558,0.561995
2026-03-04T20:03:51.591569,3.627519,-5.321637,8.264809,-0.384845,-0.136833,0.593760
2026-03-04T20:03:51.601569,3.608376,-5.556134,8.183453,-0.299323,0.030543,0.632856
2026-03-04T20:03:51.610569,3.440878,-5.709274,8.226524,-0.211359,0.189368,0.681725
2026-03-04T20:03:51.620569,3.201596,-5.594419,8.264809,-0.074525,0.320093,0.717155
2026-03-04T20:03:51.630569,3.062812,-5.312066,8.743373,0.008552,0.425162,0.744033
2026-03-04T20:03:51.639569,2.689532,-5.149354,8.762516,0.002443,0.543669,0.745255
2026-03-04T20:03:51.649569,2.215753,-5.307280,8.489734,-0.032986,0.642630,0.739146
2026-03-04T20:03:51.658569,1.483550,-5.642275,8.580661,-0.036651,0.656069,0.706160
2026-03-04T20:03:51.668569,1.004985,-5.871986,8.499305,0.017104,0.598647,0.660956
2026-03-04T20:03:51.678569,0.976271,-5.790630,8.432306,0.073303,0.493579,0.608421
2026-03-04T20:03:51.687569,1.253839,-5.771488,8.676374,0.084299,0.389731,0.564439
2026-03-04T20:03:51.697569,1.545763,-5.881557,8.681160,0.090408,0.343306,0.508239
2026-03-04T20:03:51.707569,1.517049,-6.130411,8.575876,0.108733,0.333532,0.469144
2026-03-04T20:03:51.716569,1.416550,-6.053841,8.604590,0.191811,0.324980,0.436157
2026-03-04T20:03:51.726569,1.383051,-5.785845,8.647660,0.266337,0.300545,0.405614
2026-03-04T20:03:51.735569,1.363908,-5.737988,8.638089,0.276111,0.277332,0.371405
2026-03-04T20:03:51.745569,1.392622,-5.680560,8.585447,0.316428,0.255341,0.340862
2026-03-04T20:03:51.755569,1.440479,-5.541777,8.671589,0.348193,0.246789,0.316428
2026-03-04T20:03:51.764569,1.402194,-5.551348,8.839086,0.359188,0.241902,0.290771
2026-03-04T20:03:51.774569,1.430907,-5.623133,8.800801,0.386066,0.244346,0.263893
2026-03-04T20:03:51.783569,1.416550,-5.570491,8.834301,0.416610,0.250454,0.260228
2026-03-04T20:03:51.793569,1.411765,-5.355136,8.925228,0.449596,0.265115,0.249232
2026-03-04T20:03:51.803569,1.373480,-5.402993,8.949156,0.447153,0.272445,0.245567
2026-03-04T20:03:51.812569,1.368694,-5.316851,8.786444,0.465479,0.273667,0.246789
2026-03-04T20:03:51.822569,1.287338,-4.919643,8.843872,0.509461,0.294436,0.233350
2026-03-04T20:03:51.832569,1.115055,-4.742574,9.164510,0.478918,0.307876,0.212581
2026-03-04T20:03:51.841569,1.028913,-4.905286,9.145367,0.415388,0.298102,0.196698
2026-03-04T20:03:51.851569,0.957129,-5.063212,8.992227,0.372627,0.287106,0.174707
2026-03-04T20:03:51.860569,0.832702,-5.144568,8.800801,0.370184,0.270002,0.147829
2026-03-04T20:03:51.870569,0.607776,-5.307280,8.843872,0.408057,0.237015,0.119729
2026-03-04T20:03:51.880569,0.445065,-5.111069,8.786444,0.453261,0.167377,0.098960
2026-03-04T20:03:51.889569,0.454636,-4.828716,8.853443,0.504574,0.089186,0.069638
2026-03-04T20:03:51.899569,0.555134,-4.369294,9.111868,0.510683,0.007330,0.051312
2026-03-04T20:03:51.908569,0.842273,-4.043870,9.202795,0.428827,-0.052534,0.046425
2026-03-04T20:03:51.918569,1.028913,-4.287938,9.212367,0.338419,-0.065973,0.035430
2026-03-04T20:03:51.928569,1.110269,-4.364508,9.178867,0.279776,-0.047647,0.028099
2026-03-04T20:03:51.937569,1.081555,-4.838287,9.126225,0.237015,-0.032986,0.025656
2026-03-04T20:03:51.947569,1.086341,-4.948357,8.920442,0.266337,-0.020769,0.021991
2026-03-04T20:03:51.957569,1.057627,-4.847858,9.035298,0.316428,-0.014660,0.024434
2026-03-04T20:03:51.966569,1.024128,-4.632504,9.140582,0.334754,0.000000,0.028099
2026-03-04T20:03:51.976569,1.019342,-4.560719,9.217152,0.334754,0.012217,0.031764
2026-03-04T20:03:51.985569,0.952343,-4.412364,9.183653,0.317649,0.020769,0.032986
2026-03-04T20:03:51.995569,0.803988,-4.354937,9.260223,0.287106,0.015882,0.035430
2026-03-04T20:03:52.005569,0.842273,-4.259224,9.183653,0.251676,0.001221,0.040317
2026-03-04T20:03:52.014569,0.894915,-4.197010,9.303294,0.211359,-0.010995,0.045204
2026-03-04T20:03:52.024569,0.914058,-4.197010,9.255437,0.169820,-0.020769,0.042760
2026-03-04T20:03:52.033569,0.861416,-4.292723,9.241080,0.120951,-0.031764,0.046425
2026-03-04T20:03:52.043569,0.909272,-4.398007,9.269794,0.092851,-0.037873,0.042760
2026-03-04T20:03:52.053569,0.957129,-4.474578,9.288937,0.078190,-0.041538,0.039095
2026-03-04T20:03:52.062569,0.937986,-4.378865,9.250652,0.064751,-0.042760,0.032986
2026-03-04T20:03:52.072569,0.957129,-4.402793,9.265009,0.046425,-0.042760,0.026878
2026-03-04T20:03:52.082569,0.904486,-4.388436,9.207581,0.024434,-0.047647,0.023212
2026-03-04T20:03:52.091569,0.928415,-4.522434,9.255437,0.013439,-0.053756,0.019547
2026-03-04T20:03:52.101569,0.933200,-4.555934,9.245866,0.018325,-0.053756,0.009773
2026-03-04T20:03:52.110569,0.981057,-4.579862,9.255437,0.012217,-0.050090,0.007330
2026-03-04T20:03:52.120569,0.995414,-4.608576,9.145367,0.021991,-0.046425,0.007330
2026-03-04T20:03:52.130569,1.014556,-4.589433,9.279366,0.031764,-0.045204,0.008552
2026-03-04T20:03:52.139569,1.062413,-4.570291,9.279366,0.034208,-0.043982,0.008552
2026-03-04T20:03:52.149569,1.038485,-4.536791,9.255437,0.029321,-0.037873,0.006108
2026-03-04T20:03:52.158569,1.009771,-4.493720,9.241080,0.030543,-0.032986,0.008552
2026-03-04T20:03:52.168569,0.890130,-4.479363,9.217152,0.034208,-0.035430,0.008552
2026-03-04T20:03:52.178569,0.880558,-4.364508,9.250652,0.032986,-0.035430,0.004886
2026-03-04T20:03:52.187569,0.899701,-4.465006,9.284151,0.015882,-0.042760,0.004886
2026-03-04T20:03:52.197569,0.923629,-4.536791,9.217152,0.017104,-0.043982,0.003665
2026-03-04T20:03:52.207569,0.861416,-4.575076,9.250652,0.014660,-0.048869,0.008552
2026-03-04T20:03:52.216569,0.942772,-4.522434,9.260223,0.023212,-0.047647,0.008552
2026-03-04T20:03:52.226569,0.981057,-4.479363,9.241080,0.019547,-0.042760,0.012217
2026-03-04T20:03:52.235569,0.923629,-4.445864,9.255437,0.007330,-0.043982,0.017104
2026-03-04T20:03:52.245569,1.009771,-4.407579,9.260223,-0.002443,-0.047647,0.021991
2026-03-04T20:03:52.255569,1.004985,-4.441078,9.298508,-0.023212,-0.047647,0.021991
2026-03-04T20:03:52.264569,1.000199,-4.546362,9.236295,-0.042760,-0.046425,0.025656
2026-03-04T20:03:52.274569,1.014556,-4.584648,9.245866,-0.042760,-0.045204,0.028099
2026-03-04T20:03:52.283569,0.957129,-4.661218,9.202795,-0.032986,-0.045204,0.032986
2026-03-04T20:03:52.293569,1.014556,-4.666004,9.193224,-0.019547,-0.041538,0.035430
2026-03-04T20:03:52.303569,0.985842,-4.632504,9.202795,-0.009773,-0.039095,0.036651
2026-03-04T20:03:52.312569,1.014556,-4.622933,9.183653,0.006108,-0.037873,0.037873
2026-03-04T20:03:52.322569,1.004985,-4.761716,9.202795,0.006108,-0.035430,0.041538
2026-03-04T20:03:52.332569,1.009771,-4.694717,9.260223,0.039095,-0.037873,0.037873
2026-03-04T20:03:52.341569,1.024128,-4.541577,9.188438,0.042760,-0.030543,0.039095
2026-03-04T20:03:52.351569,0.952343,-4.584648,9.174081,0.052534,-0.025656,0.039095
2026-03-04T20:03:52.360569,0.933200,-4.637290,9.217152,0.070860,-0.029321,0.037873
2026-03-04T20:03:52.370569,0.995414,-4.603790,9.255437,0.078190,-0.032986,0.039095
2026-03-04T20:03:52.380569,1.024128,-4.584648,9.212367,0.080634,-0.030543,0.039095
2026-03-04T20:03:52.389569,0.995414,-4.575076,9.274580,0.073303,-0.023212,0.041538
2026-03-04T20:03:52.399569,0.957129,-4.680361,9.221938,0.062308,-0.025656,0.050090
2026-03-04T20:03:52.408569,0.861416,-4.546362,9.126225,0.117286,-0.017104,0.046425
2026-03-04T20:03:52.418569,0.870987,-4.398007,9.303294,0.133168,-0.015882,0.043982
2026-03-04T20:03:52.428569,0.885344,-4.479363,9.279366,0.091629,-0.028099,0.050090
2026-03-04T20:03:52.437569,0.880558,-4.627718,9.221938,0.084299,-0.039095,0.051312
2026-03-04T20:03:52.447569,0.976271,-5.216353,9.154939,0.078190,-0.062308,0.054977
2026-03-04T20:03:52.457569,0.890130,-5.513063,8.145168,0.109955,-0.048869,0.097738
2026-03-04T20:03:52.466569,1.205982,-3.737588,10.001998,0.485026,0.010995,0.026878
2026-03-04T20:03:52.476569,0.775274,-2.981456,9.796215,0.222354,0.025656,0.034208
2026-03-04T20:03:52.485569,0.588634,-4.292723,9.288937,-0.051312,-0.001221,0.041538
2026-03-04T20:03:52.495569,0.602991,-4.761716,8.973084,0.003665,-0.040317,0.021991
2026-03-04T20:03:52.505569,0.866201,-4.713860,9.231509,0.050090,-0.080634,0.028099
2026-03-04T20:03:52.514569,1.143769,-4.560719,9.241080,0.100181,-0.067195,0.024434
2026-03-04T20:03:52.524569,1.028913,-4.220939,9.317651,0.128281,-0.026878,0.020769
2026-03-04T20:03:52.533569,0.827916,-4.158725,9.384650,0.096516,-0.014660,0.028099
2026-03-04T20:03:52.543569,0.775274,-4.168296,9.341579,0.058643,-0.026878,0.030543
2026-03-04T20:03:52.553569,0.899701,-4.340580,9.284151,0.012217,-0.045204,0.030543
2026-03-04T20:03:52.562569,0.942772,-4.498506,9.250652,0.018325,-0.045204,0.032986
2026-03-04T20:03:52.572569,0.961914,-4.359722,9.265009,0.046425,-0.031764,0.035430
2026-03-04T20:03:52.582569,0.870987,-4.307080,9.346365,0.026878,-0.026878,0.034208
2026-03-04T20:03:52.591569,0.823130,-4.445864,9.308079,0.006108,-0.034208,0.032986
2026-03-04T20:03:52.601569,0.875773,-4.407579,9.312865,0.002443,-0.043982,0.023212
2026-03-04T20:03:52.610569,0.899701,-4.402793,9.260223,-0.008552,-0.042760,0.014660
2026-03-04T20:03:52.620569,0.813559,-4.522434,9.298508,-0.015882,-0.042760,0.008552
2026-03-04T20:03:52.630569,0.827916,-4.570291,9.236295,-0.001221,-0.045204,0.001221
2026-03-04T20:03:52.639569,0.918843,-4.670789,9.169296,0.014660,-0.050090,-0.004886
2026-03-04T20:03:52.649569,0.856630,-4.723431,9.236295,0.037873,-0.053756,-0.006108
2026-03-04T20:03:52.658569,0.942772,-4.680361,9.231509,0.075747,-0.047647,-0.004886
2026-03-04T20:03:52.668569,1.014556,-4.575076,9.269794,0.097738,-0.043982,0.000000
2026-03-04T20:03:52.678569,0.909272,-4.541577,9.274580,0.117286,-0.040317,0.006108
2026-03-04T20:03:52.687569,0.957129,-4.450650,9.269794,0.135612,-0.037873,0.008552
2026-03-04T20:03:52.697569,0.966700,-4.402793,9.336793,0.144164,-0.036651,0.013439
2026-03-04T20:03:52.707569,0.957129,-4.350151,9.317651,0.151494,-0.034208,0.013439
2026-03-04T20:03:52.716569,0.875773,-4.273581,9.360722,0.153938,-0.026878,0.012217
2026-03-04T20:03:52.726569,0.842273,-4.158725,9.341579,0.135612,-0.026878,0.012217
2026-03-04T20:03:52.735569,0.784845,-4.197010,9.317651,0.109955,-0.030543,0.008552
2026-03-04T20:03:52.745569,0.866201,-4.220939,9.413364,0.085521,-0.037873,0.006108
2026-03-04T20:03:52.755569,0.875773,-4.230510,9.336793,0.063529,-0.042760,0.007330
2026-03-04T20:03:52.764569,0.894915,-4.359722,9.336793,0.057421,-0.047647,0.006108
2026-03-04T20:03:52.774569,0.933200,-4.465006,9.341579,0.052534,-0.047647,0.009773
2026-03-04T20:03:52.783569,0.918843,-4.388436,9.260223,0.064751,-0.043982,0.009773
2026-03-04T20:03:52.793569,0.961914,-4.441078,9.303294,0.076969,-0.041538,0.014660
2026-03-04T20:03:52.803569,0.880558,-4.398007,9.327222,0.095294,-0.037873,0.018325
2026-03-04T20:03:52.812569,0.885344,-4.374079,9.284151,0.107512,-0.037873,0.023212
2026-03-04T20:03:52.822569,0.885344,-4.335794,9.322436,0.120951,-0.039095,0.025656
2026-03-04T20:03:52.832569,0.918843,-4.354937,9.308079,0.120951,-0.039095,0.025656
2026-03-04T20:03:52.841569,0.885344,-4.268795,9.379864,0.108733,-0.039095,0.026878
2026-03-04T20:03:52.851569,0.875773,-4.316651,9.312865,0.105068,-0.037873,0.031764
2026-03-04T20:03:52.860569,0.899701,-4.211367,9.322436,0.113620,-0.040317,0.031764
2026-03-04T20:03:52.870569,0.880558,-4.153940,9.485148,0.102625,-0.039095,0.029321
2026-03-04T20:03:52.880569,0.918843,-4.182653,9.413364,0.078190,-0.042760,0.030543
2026-03-04T20:03:52.889569,0.947557,-4.149154,9.370293,0.052534,-0.041538,0.029321
2026-03-04T20:03:52.899569,0.875773,-4.187439,9.403792,0.032986,-0.042760,0.028099
2026-03-04T20:03:52.908569,0.890130,-4.268795,9.346365,0.028099,-0.043982,0.026878
2026-03-04T20:03:52.918569,0.875773,-4.311866,9.365507,0.026878,-0.043982,0.023212
2026-03-04T20:03:52.928569,0.914058,-4.378865,9.341579,0.023212,-0.046425,0.024434
2026-03-04T20:03:52.937569,0.875773,-4.412364,9.303294,0.032986,-0.045204,0.023212
2026-03-04T20:03:52.947569,0.937986,-4.378865,9.284151,0.056199,-0.042760,0.021991
2026-03-04T20:03:52.957569,0.890130,-4.249652,9.346365,0.074525,-0.035430,0.020769
2026-03-04T20:03:52.966569,0.885344,-4.182653,9.403792,0.065973,-0.031764,0.018325
2026-03-04T20:03:52.976569,0.851844,-4.235296,9.336793,0.054977,-0.039095,0.017104
2026-03-04T20:03:52.985569,0.890130,-4.297509,9.303294,0.052534,-0.043982,0.014660
2026-03-04T20:03:52.995569,0.856630,-4.230510,9.413364,0.057421,-0.046425,0.014660
2026-03-04T20:03:53.005569,0.957129,-4.149154,9.346365,0.056199,-0.043982,0.014660
2026-03-04T20:03:53.014569,0.933200,-4.235296,9.370293,0.050090,-0.042760,0.014660
2026-03-04T20:03:53.024569,0.904486,-4.249652,9.355936,0.046425,-0.041538,0.015882
2026-03-04T20:03:53.033569,0.870987,-4.216153,9.360722,0.045204,-0.043982,0.015882
2026-03-04T20:03:53.043569,0.904486,-4.254438,9.370293,0.037873,-0.043982,0.018325
2026-03-04T20:03:53.053569,0.918843,-4.206582,9.360722,0.039095,-0.042760,0.018325
2026-03-04T20:03:53.062569,0.952343,-4.240081,9.355936,0.050090,-0.045204,0.020769
2026-03-04T20:03:53.072569,0.894915,-4.230510,9.365507,0.047647,-0.043982,0.023212
2026-03-04T20:03:53.082569,0.909272,-4.249652,9.346365,0.047647,-0.039095,0.023212
2026-03-04T20:03:53.091569,0.923629,-4.163511,9.384650,0.051312,-0.037873,0.024434
2026-03-04T20:03:53.101569,0.866201,-4.158725,9.379864,0.043982,-0.039095,0.026878
2026-03-04T20:03:53.110569,0.890130,-4.153940,9.427721,0.037873,-0.042760,0.023212
2026-03-04T20:03:53.120569,0.861416,-4.163511,9.360722,0.029321,-0.045204,0.020769
2026-03-04T20:03:53.130569,0.861416,-4.249652,9.336793,0.018325,-0.047647,0.019547
2026-03-04T20:03:53.139569,0.904486,-4.321437,9.384650,0.021991,-0.047647,0.015882
2026-03-04T20:03:53.149569,0.904486,-4.278366,9.384650,0.030543,-0.048869,0.017104
2026-03-04T20:03:53.158569,0.971485,-4.268795,9.355936,0.043982,-0.045204,0.019547
2026-03-04T20:03:53.168569,0.933200,-4.220939,9.351150,0.047647,-0.040317,0.019547
2026-03-04T20:03:53.178569,0.885344,-4.235296,9.389435,0.045204,-0.039095,0.019547
2026-03-04T20:03:53.187569,0.885344,-4.197010,9.370293,0.048869,-0.040317,0.021991
2026-03-04T20:03:53.197569,0.837487,-4.182653,9.322436,0.050090,-0.041538,0.023212
2026-03-04T20:03:53.207569,0.880558,-4.177868,9.365507,0.050090,-0.041538,0.021991
2026-03-04T20:03:53.216569,0.861416,-4.173082,9.370293,0.047647,-0.039095,0.024434
2026-03-04T20:03:53.226569,0.856630,-4.182653,9.446863,0.037873,-0.041538,0.023212
2026-03-04T20:03:53.235569,0.923629,-4.220939,9.394221,0.031764,-0.042760,0.023212
2026-03-04T20:03:53.245569,0.923629,-4.158725,9.437292,0.031764,-0.042760,0.020769
2026-03-04T20:03:53.255569,0.885344,-4.197010,9.375078,0.024434,-0.042760,0.023212
2026-03-04T20:03:53.264569,0.933200,-4.249652,9.408578,0.021991,-0.042760,0.021991
2026-03-04T20:03:53.274569,0.875773,-4.240081,9.399007,0.029321,-0.042760,0.019547
2026-03-04T20:03:53.283569,0.914058,-4.187439,9.379864,0.032986,-0.042760,0.019547
2026-03-04T20:03:53.293569,0.923629,-4.268795,9.375078,0.032986,-0.040317,0.021991
2026-03-04T20:03:53.303569,0.870987,-4.158725,9.351150,0.036651,-0.040317,0.023212
2026-03-04T20:03:53.312569,0.890130,-4.144368,9.379864,0.036651,-0.040317,0.023212
2026-03-04T20:03:53.322569,0.866201,-4.153940,9.437292,0.031764,-0.041538,0.024434
2026-03-04T20:03:53.332569,0.885344,-4.168296,9.379864,0.030543,-0.041538,0.025656
2026-03-04T20:03:53.341569,0.885344,-4.149154,9.336793,0.026878,-0.041538,0.024434
2026-03-04T20:03:53.351569,0.856630,-4.192225,9.389435,0.025656,-0.040317,0.023212
2026-03-04T20:03:53.360569,0.880558,-4.130011,9.485148,0.023212,-0.041538,0.020769
2026-03-04T20:03:53.370569,0.875773,-4.230510,9.293722,0.000000,-0.042760,0.021991
2026-03-04T20:03:53.380569,0.942772,-4.359722,9.255437,0.025656,-0.041538,0.021991
2026-03-04T20:03:53.389569,0.899701,-4.235296,9.547362,0.070860,-0.042760,0.024434
2026-03-04T20:03:53.399569,0.952343,-4.043870,9.446863,0.056199,-0.041538,0.024434
2026-03-04T20:03:53.408569,0.861416,-4.125226,9.375078,0.026878,-0.034208,0.019547
2026-03-04T20:03:53.418569,0.842273,-4.139583,9.422935,0.021991,-0.037873,0.018325
2026-03-04T20:03:53.428569,0.880558,-4.173082,9.451649,0.020769,-0.045204,0.018325
2026-03-04T20:03:53.437569,0.914058,-4.230510,9.360722,0.018325,-0.047647,0.018325
2026-03-04T20:03:53.447569,0.847059,-4.211367,9.384650,0.034208,-0.041538,0.015882
2026-03-04T20:03:53.457569,0.837487,-4.110869,9.351150,0.025656,-0.039095,0.019547
2026-03-04T20:03:53.466569,0.909272,-4.216153,9.394221,0.015882,-0.043982,0.019547
2026-03-04T20:03:53.476569,0.885344,-4.177868,9.389435,0.013439,-0.046425,0.017104
2026-03-04T20:03:53.485569,0.957129,-4.235296,9.394221,0.013439,-0.046425,0.015882
2026-03-04T20:03:53.495569,0.856630,-4.225724,9.403792,0.021991,-0.040317,0.017104
2026-03-04T20:03:53.505569,0.933200,-4.192225,9.389435,0.030543,-0.036651,0.018325
2026-03-04T20:03:53.514569,0.861416,-4.240081,9.408578,0.026878,-0.039095,0.020769
2026-03-04T20:03:53.524569,0.847059,-4.153940,9.360722,0.026878,-0.042760,0.018325
2026-03-04T20:03:53.533569,0.832702,-4.187439,9.384650,0.026878,-0.043982,0.018325
2026-03-04T20:03:53.543569,0.918843,-4.168296,9.394221,0.020769,-0.045204,0.018325
2026-03-04T20:03:53.553569,0.870987,-4.192225,9.399007,0.020769,-0.043982,0.019547
2026-03-04T20:03:53.562569,0.894915,-4.149154,9.418149,0.026878,-0.043982,0.019547
2026-03-04T20:03:53.572569,0.880558,-4.182653,9.427721,0.026878,-0.043982,0.020769
2026-03-04T20:03:53.582569,0.885344,-4.182653,9.375078,0.023212,-0.042760,0.018325
2026-03-04T20:03:53.591569,0.928415,-4.182653,9.346365,0.021991,-0.045204,0.021991
2026-03-04T20:03:53.601569,0.914058,-4.173082,9.375078,0.020769,-0.045204,0.021991
2026-03-04T20:03:53.610569,0.875773,-4.216153,9.360722,0.024434,-0.043982,0.017104
2026-03-04T20:03:53.620569,0.914058,-4.177868,9.355936,0.026878,-0.046425,0.017104
2026-03-04T20:03:53.630569,0.866201,-4.192225,9.365507,0.028099,-0.047647,0.018325
2026-03-04T20:03:53.639569,0.918843,-4.173082,9.418149,0.031764,-0.045204,0.018325
2026-03-04T20:03:53.649569,0.914058,-4.264009,9.384650,0.031764,-0.045204,0.019547
2026-03-04T20:03:53.658569,0.909272,-4.192225,9.375078,0.032986,-0.043982,0.019547
2026-03-04T20:03:53.668569,0.918843,-4.163511,9.379864,0.035430,-0.042760,0.019547
2026-03-04T20:03:53.678569,0.875773,-4.153940,9.389435,0.031764,-0.043982,0.020769
2026-03-04T20:03:53.687569,0.918843,-4.149154,9.422935,0.028099,-0.041538,0.021991
2026-03-04T20:03:53.697569,0.837487,-4.168296,9.446863,0.028099,-0.041538,0.019547
2026-03-04T20:03:53.707569,0.890130,-4.144368,9.394221,0.031764,-0.042760,0.018325
2026-03-04T20:03:53.716569,0.899701,-4.144368,9.394221,0.029321,-0.042760,0.017104
2026-03-04T20:03:53.726569,0.847059,-4.192225,9.384650,0.029321,-0.042760,0.019547
2026-03-04T20:03:53.735569,0.894915,-4.168296,9.389435,0.034208,-0.040317,0.017104
2026-03-04T20:03:53.745569,0.870987,-4.115654,9.437292,0.032986,-0.041538,0.015882
2026-03-04T20:03:53.755569,0.885344,-4.182653,9.399007,0.031764,-0.041538,0.015882
2026-03-04T20:03:53.764569,0.904486,-4.197010,9.379864,0.029321,-0.042760,0.015882
2026-03-04T20:03:53.774569,0.885344,-4.177868,9.432506,0.030543,-0.042760,0.013439
2026-03-04T20:03:53.783569,0.894915,-4.163511,9.384650,0.026878,-0.041538,0.015882
2026-03-04T20:03:53.793569,0.880558,-4.139583,9.418149,0.029321,-0.040317,0.015882
2026-03-04T20:03:53.803569,0.870987,-4.163511,9.351150,0.030543,-0.043982,0.019547
2026-03-04T20:03:53.812569,0.918843,-4.206582,9.379864,0.036651,-0.042760,0.019547
2026-03-04T20:03:53.822569,0.856630,-4.139583,9.446863,0.037873,-0.041538,0.018325
2026-03-04T20:03:53.832569,0.899701,-4.144368,9.413364,0.032986,-0.041538,0.019547
2026-03-04T20:03:53.841569,0.914058,-4.091726,9.394221,0.030543,-0.040317,0.018325
2026-03-04T20:03:53.851569,0.870987,-4.134797,9.437292,0.025656,-0.043982,0.020769
2026-03-04T20:03:53.860569,0.890130,-4.153940,9.375078,0.020769,-0.042760,0.023212
2026-03-04T20:03:53.870569,0.880558,-4.120440,9.351150,0.020769,-0.041538,0.018325
2026-03-04T20:03:53.880569,0.942772,-4.153940,9.422935,0.019547,-0.041538,0.019547
2026-03-04T20:03:53.889569,0.856630,-4.158725,9.403792,0.014660,-0.041538,0.019547
2026-03-04T20:03:53.899569,0.937986,-4.192225,9.413364,0.014660,-0.042760,0.020769
2026-03-04T20:03:53.908569,0.880558,-4.134797,9.427721,0.017104,-0.042760,0.020769
2026-03-04T20:03:53.918569,0.890130,-4.163511,9.384650,0.020769,-0.041538,0.021991
2026-03-04T20:03:53.928569,0.870987,-4.144368,9.413364,0.018325,-0.040317,0.021991
2026-03-04T20:03:53.937569,0.885344,-4.177868,9.365507,0.018325,-0.041538,0.023212
2026-03-04T20:03:53.947569,0.847059,-4.153940,9.408578,0.015882,-0.042760,0.023212
2026-03-04T20:03:53.957569,0.904486,-4.134797,9.403792,0.014660,-0.042760,0.021991
2026-03-04T20:03:53.966569,0.866201,-4.225724,9.413364,0.012217,-0.041538,0.018325
2026-03-04T20:03:53.976569,0.918843,-4.230510,9.341579,0.018325,-0.043982,0.019547
2026-03-04T20:03:53.985569,0.861416,-4.173082,9.432506,0.021991,-0.043982,0.020769
2026-03-04T20:03:53.995569,0.875773,-4.182653,9.370293,0.024434,-0.042760,0.020769
2026-03-04T20:03:54.005569,0.957129,-4.163511,9.418149,0.024434,-0.040317,0.018325
2026-03-04T20:03:54.014569,0.914058,-4.182653,9.399007,0.021991,-0.042760,0.019547
2026-03-04T20:03:54.024569,0.875773,-4.120440,9.422935,0.018325,-0.043982,0.021991
2026-03-04T20:03:54.033569,0.923629,-4.163511,9.379864,0.018325,-0.043982,0.020769
2026-03-04T20:03:54.043569,0.870987,-4.134797,9.379864,0.015882,-0.043982,0.021991
2026-03-04T20:03:54.053569,0.899701,-4.168296,9.442077,0.013439,-0.043982,0.021991
2026-03-04T20:03:54.062569,0.842273,-4.153940,9.389435,0.013439,-0.040317,0.020769
2026-03-04T20:03:54.072569,0.957129,-4.182653,9.456434,0.009773,-0.041538,0.024434
2026-03-04T20:03:54.082569,0.875773,-4.201796,9.379864,0.008552,-0.041538,0.023212
2026-03-04T20:03:54.091569,0.827916,-4.182653,9.437292,0.014660,-0.041538,0.021991
2026-03-04T20:03:54.101569,0.890130,-4.182653,9.375078,0.014660,-0.040317,0.019547
2026-03-04T20:03:54.110569,0.847059,-4.211367,9.379864,0.014660,-0.042760,0.019547
2026-03-04T20:03:54.120569,0.866201,-4.201796,9.432506,0.019547,-0.042760,0.018325
2026-03-04T20:03:54.130569,0.947557,-4.206582,9.365507,0.019547,-0.043982,0.018325
2026-03-04T20:03:54.139569,0.870987,-4.235296,9.399007,0.024434,-0.042760,0.017104
2026-03-04T20:03:54.149569,0.914058,-4.163511,9.394221,0.026878,-0.040317,0.018325
2026-03-04T20:03:54.158569,0.904486,-4.192225,9.427721,0.026878,-0.040317,0.017104
2026-03-04T20:03:54.168569,0.885344,-4.115654,9.399007,0.023212,-0.042760,0.018325
2026-03-04T20:03:54.178569,0.923629,-4.144368,9.456434,0.024434,-0.042760,0.018325
2026-03-04T20:03:54.187569,0.894915,-4.086941,9.394221,0.020769,-0.042760,0.020769
2026-03-04T20:03:54.197569,0.842273,-4.220939,9.375078,0.009773,-0.041538,0.021991
2026-03-04T20:03:54.207569,0.823130,-4.235296,9.403792,0.013439,-0.042760,0.023212
2026-03-04T20:03:54.216569,0.885344,-4.225724,9.399007,0.014660,-0.042760,0.021991
2026-03-04T20:03:54.226569,0.875773,-4.125226,9.365507,0.018325,-0.042760,0.021991
2026-03-04T20:03:54.235569,0.914058,-4.130011,9.432506,0.015882,-0.042760,0.023212
2026-03-04T20:03:54.245569,0.923629,-4.187439,9.413364,0.007330,-0.043982,0.023212
2026-03-04T20:03:54.255569,0.928415,-4.120440,9.365507,0.010995,-0.043982,0.020769
2026-03-04T20:03:54.264569,0.890130,-4.182653,9.403792,0.018325,-0.045204,0.020769
2026-03-04T20:03:54.274569,0.866201,-4.158725,9.437292,0.015882,-0.042760,0.018325
2026-03-04T20:03:54.283569,0.894915,-4.220939,9.375078,0.010995,-0.042760,0.018325
2026-03-04T20:03:54.293569,0.904486,-4.249652,9.418149,0.017104,-0.042760,0.015882
2026-03-04T20:03:54.303569,0.851844,-4.240081,9.360722,0.024434,-0.042760,0.017104
2026-03-04T20:03:54.312569,0.995414,-4.158725,9.360722,0.031764,-0.040317,0.017104
2026-03-04T20:03:54.322569,0.832702,-4.206582,9.413364,0.032986,-0.039095,0.018325
2026-03-04T20:03:54.332569,0.851844,-4.182653,9.399007,0.031764,-0.039095,0.018325
2026-03-04T20:03:54.341569,0.899701,-4.120440,9.408578,0.028099,-0.040317,0.019547
2026-03-04T20:03:54.351569,0.880558,-4.134797,9.370293,0.021991,-0.042760,0.018325
2026-03-04T20:03:54.360569,0.847059,-4.130011,9.418149,0.013439,-0.041538,0.019547
2026-03-04T20:03:54.370569,0.827916,-4.225724,9.422935,0.010995,-0.041538,0.018325
2026-03-04T20:03:54.380569,0.856630,-4.211367,9.389435,0.014660,-0.043982,0.019547
2026-03-04T20:03:54.389569,0.880558,-4.211367,9.399007,0.019547,-0.043982,0.019547
2026-03-04T20:03:54.399569,0.875773,-4.192225,9.408578,0.018325,-0.041538,0.021991
2026-03-04T20:03:54.408569,0.885344,-4.173082,9.408578,0.018325,-0.042760,0.019547
2026-03-04T20:03:54.418569,0.909272,-4.173082,9.394221,0.020769,-0.042760,0.020769
2026-03-04T20:03:54.428569,0.880558,-4.192225,9.375078,0.024434,-0.041538,0.017104
2026-03-04T20:03:54.437569,0.851844,-4.144368,9.403792,0.020769,-0.043982,0.018325
2026-03-04T20:03:54.447569,0.866201,-4.201796,9.394221,0.018325,-0.042760,0.018325
2026-03-04T20:03:54.457569,0.890130,-4.153940,9.351150,0.018325,-0.042760,0.019547
2026-03-04T20:03:54.466569,0.918843,-4.144368,9.432506,0.015882,-0.042760,0.019547
2026-03-04T20:03:54.476569,0.880558,-4.201796,9.403792,0.017104,-0.040317,0.021991
2026-03-04T20:03:54.485569,0.851844,-4.177868,9.403792,0.018325,-0.040317,0.020769
2026-03-04T20:03:54.495569,0.875773,-4.182653,9.413364,0.013439,-0.042760,0.023212
2026-03-04T20:03:54.505569,0.851844,-4.149154,9.427721,0.020769,-0.041538,0.019547
2026-03-04T20:03:54.514569,0.832702,-4.130011,9.389435,0.017104,-0.041538,0.019547
2026-03-04T20:03:54.524569,0.847059,-4.182653,9.399007,0.013439,-0.042760,0.019547
2026-03-04T20:03:54.533569,0.870987,-4.182653,9.422935,0.008552,-0.042760,0.018325
2026-03-04T20:03:54.543569,0.894915,-4.249652,9.403792,0.010995,-0.040317,0.019547
2026-03-04T20:03:54.553569,0.890130,-4.206582,9.365507,0.019547,-0.041538,0.019547
2026-03-04T20:03:54.562569,0.866201,-4.187439,9.394221,0.026878,-0.040317,0.015882
2026-03-04T20:03:54.572569,0.861416,-4.173082,9.399007,0.028099,-0.042760,0.017104
2026-03-04T20:03:54.582569,0.842273,-4.149154,9.403792,0.028099,-0.040317,0.017104
2026-03-04T20:03:54.591569,0.866201,-4.168296,9.427721,0.025656,-0.043982,0.018325
2026-03-04T20:03:54.601569,0.885344,-4.158725,9.365507,0.019547,-0.043982,0.018325
2026-03-04T20:03:54.610569,0.890130,-4.168296,9.466006,0.019547,-0.045204,0.019547
2026-03-04T20:03:54.620569,0.904486,-4.149154,9.446863,0.015882,-0.042760,0.020769
2026-03-04T20:03:54.630569,0.909272,-4.115654,9.432506,0.009773,-0.042760,0.024434
2026-03-04T20:03:54.639569,0.937986,-4.153940,9.422935,0.008552,-0.043982,0.021991
2026-03-04T20:03:54.649569,0.918843,-4.163511,9.389435,0.008552,-0.042760,0.020769
2026-03-04T20:03:54.658569,0.914058,-4.235296,9.422935,0.009773,-0.042760,0.021991
2026-03-04T20:03:54.668569,0.875773,-4.240081,9.370293,0.014660,-0.043982,0.023212
2026-03-04T20:03:54.678569,0.870987,-4.206582,9.341579,0.018325,-0.041538,0.020769
2026-03-04T20:03:54.687569,0.875773,-4.211367,9.336793,0.015882,-0.043982,0.020769
2026-03-04T20:03:54.697569,0.909272,-4.259224,9.413364,0.023212,-0.045204,0.019547
2026-03-04T20:03:54.707569,0.842273,-4.197010,9.394221,0.023212,-0.045204,0.018325
2026-03-04T20:03:54.716569,0.923629,-4.182653,9.446863,0.023212,-0.041538,0.019547
2026-03-04T20:03:54.726569,0.847059,-4.230510,9.365507,0.028099,-0.040317,0.020769
2026-03-04T20:03:54.735569,0.842273,-4.197010,9.418149,0.026878,-0.042760,0.019547
2026-03-04T20:03:54.745569,0.904486,-4.187439,9.408578,0.028099,-0.042760,0.018325
2026-03-04T20:03:54.755569,0.880558,-4.168296,9.408578,0.026878,-0.041538,0.020769
2026-03-04T20:03:54.764569,0.894915,-4.173082,9.365507,0.024434,-0.042760,0.019547
2026-03-04T20:03:54.774569,0.885344,-4.125226,9.437292,0.020769,-0.043982,0.019547
2026-03-04T20:03:54.783569,0.851844,-4.182653,9.312865,0.019547,-0.045204,0.019547
2026-03-04T20:03:54.793569,0.875773,-4.153940,9.355936,0.019547,-0.042760,0.019547
2026-03-04T20:03:54.803569,0.890130,-4.182653,9.375078,0.015882,-0.042760,0.019547
2026-03-04T20:03:54.812569,0.780060,-4.182653,9.360722,0.018325,-0.039095,0.023212
2026-03-04T20:03:54.822569,0.880558,-4.206582,9.413364,0.019547,-0.040317,0.021991
2026-03-04T20:03:54.832569,0.880558,-4.201796,9.432506,0.015882,-0.040317,0.020769
2026-03-04T20:03:54.841569,0.880558,-4.187439,9.399007,0.015882,-0.042760,0.021991
2026-03-04T20:03:54.851569,0.813559,-4.216153,9.408578,0.014660,-0.039095,0.021991
2026-03-04T20:03:54.860569,0.866201,-4.201796,9.427721,0.014660,-0.042760,0.021991
2026-03-04T20:03:54.870569,0.894915,-4.225724,9.413364,0.015882,-0.043982,0.020769
2026-03-04T20:03:54.880569,0.856630,-4.225724,9.370293,0.021991,-0.043982,0.018325
2026-03-04T20:03:54.889569,0.842273,-4.235296,9.394221,0.024434,-0.042760,0.021991
2026-03-04T20:03:54.899569,0.880558,-4.216153,9.442077,0.030543,-0.040317,0.018325
2026-03-04T20:03:54.908569,0.851844,-4.292723,9.422935,0.032986,-0.040317,0.017104
2026-03-04T20:03:54.918569,0.942772,-4.182653,9.394221,0.039095,-0.042760,0.018325
2026-03-04T20:03:54.928569,0.875773,-4.168296,9.408578,0.036651,-0.041538,0.017104
2026-03-04T20:03:54.937569,0.837487,-4.077369,9.394221,0.029321,-0.042760,0.018325
2026-03-04T20:03:54.947569,0.861416,-4.130011,9.384650,0.020769,-0.042760,0.018325
2026-03-04T20:03:54.957569,0.870987,-4.163511,9.375078,0.015882,-0.045204,0.017104
2026-03-04T20:03:54.966569,0.866201,-4.130011,9.403792,0.013439,-0.043982,0.014660
2026-03-04T20:03:54.976569,0.880558,-4.149154,9.370293,0.010995,-0.043982,0.017104
2026-03-04T20:03:54.985569,0.909272,-4.201796,9.394221,0.010995,-0.041538,0.019547
2026-03-04T20:03:54.995569,0.880558,-4.153940,9.422935,0.012217,-0.041538,0.020769
2026-03-04T20:03:55.005569,0.847059,-4.153940,9.418149,0.014660,-0.042760,0.019547
2026-03-04T20:03:55.014569,0.866201,-4.134797,9.413364,0.013439,-0.043982,0.017104
2026-03-04T20:03:55.024569,0.880558,-4.173082,9.456434,0.012217,-0.045204,0.017104
2026-03-04T20:03:55.033569,0.866201,-4.168296,9.418149,0.009773,-0.045204,0.018325
2026-03-04T20:03:55.043569,0.880558,-4.206582,9.427721,0.010995,-0.043982,0.014660
2026-03-04T20:03:55.053569,0.890130,-4.177868,9.408578,0.012217,-0.043982,0.014660
2026-03-04T20:03:55.062569,0.875773,-4.197010,9.346365,0.013439,-0.042760,0.017104
2026-03-04T20:03:55.072569,0.904486,-4.168296,9.394221,0.018325,-0.045204,0.018325
2026-03-04T20:03:55.082569,0.880558,-4.173082,9.375078,0.020769,-0.045204,0.019547
2026-03-04T20:03:55.091569,0.875773,-4.158725,9.379864,0.019547,-0.042760,0.019547
2026-03-04T20:03:55.101569,0.861416,-4.216153,9.365507,0.021991,-0.042760,0.019547
2026-03-04T20:03:55.110569,0.923629,-4.187439,9.379864,0.021991,-0.042760,0.020769
2026-03-04T20:03:55.120569,0.794417,-4.144368,9.346365,0.021991,-0.042760,0.018325
2026-03-04T20:03:55.130569,0.885344,-4.173082,9.375078,0.021991,-0.042760,0.018325
2026-03-04T20:03:55.139569,0.923629,-4.153940,9.422935,0.017104,-0.042760,0.019547
2026-03-04T20:03:55.149569,0.875773,-4.220939,9.370293,0.018325,-0.041538,0.018325
2026-03-04T20:03:55.158569,0.799202,-4.244867,9.379864,0.024434,-0.041538,0.018325
2026-03-04T20:03:55.168569,0.918843,-4.187439,9.384650,0.024434,-0.041538,0.019547
2026-03-04T20:03:55.178569,0.808774,-4.230510,9.399007,0.029321,-0.042760,0.017104
2026-03-04T20:03:55.187569,0.928415,-4.139583,9.422935,0.031764,-0.043982,0.018325
2026-03-04T20:03:55.197569,0.909272,-4.173082,9.418149,0.026878,-0.043982,0.018325
2026-03-04T20:03:55.207569,0.880558,-4.125226,9.418149,0.019547,-0.042760,0.019547
2026-03-04T20:03:55.216569,0.914058,-4.187439,9.389435,0.018325,-0.042760,0.020769
2026-03-04T20:03:55.226569,0.899701,-4.197010,9.442077,0.018325,-0.043982,0.019547
2026-03-04T20:03:55.235569,0.875773,-4.206582,9.432506,0.015882,-0.042760,0.020769
2026-03-04T20:03:55.245569,0.842273,-4.173082,9.379864,0.013439,-0.042760,0.019547
2026-03-04T20:03:55.255569,0.861416,-4.230510,9.413364,0.018325,-0.040317,0.019547
2026-03-04T20:03:55.264569,0.827916,-4.173082,9.432506,0.019547,-0.041538,0.020769
2026-03-04T20:03:55.274569,0.851844,-4.182653,9.384650,0.021991,-0.041538,0.019547
2026-03-04T20:03:55.283569,0.856630,-4.168296,9.413364,0.026878,-0.040317,0.020769
2026-03-04T20:03:55.293569,0.832702,-4.187439,9.418149,0.025656,-0.040317,0.017104
2026-03-04T20:03:55.303569,0.870987,-4.134797,9.422935,0.020769,-0.042760,0.018325
2026-03-04T20:03:55.312569,0.918843,-4.158725,9.413364,0.015882,-0.045204,0.015882
2026-03-04T20:03:55.322569,0.870987,-4.134797,9.394221,0.014660,-0.043982,0.013439
2026-03-04T20:03:55.332569,0.847059,-4.211367,9.355936,0.018325,-0.042760,0.012217
2026-03-04T20:03:55.341569,0.870987,-4.149154,9.418149,0.020769,-0.041538,0.015882
2026-03-04T20:03:55.351569,0.880558,-4.206582,9.432506,0.018325,-0.039095,0.014660
2026-03-04T20:03:55.360569,0.894915,-4.173082,9.446863,0.015882,-0.040317,0.017104
2026-03-04T20:03:55.370569,0.813559,-4.158725,9.408578,0.015882,-0.042760,0.015882
2026-03-04T20:03:55.380569,0.861416,-4.201796,9.399007,0.015882,-0.043982,0.014660
2026-03-04T20:03:55.389569,0.904486,-4.149154,9.375078,0.018325,-0.043982,0.017104
2026-03-04T20:03:55.399569,0.914058,-4.168296,9.399007,0.021991,-0.043982,0.017104
2026-03-04T20:03:55.408569,0.918843,-4.173082,9.379864,0.020769,-0.042760,0.018325
2026-03-04T20:03:55.418569,0.866201,-4.149154,9.413364,0.018325,-0.041538,0.017104
2026-03-04T20:03:55.428569,0.842273,-4.201796,9.394221,0.023212,-0.040317,0.014660
2026-03-04T20:03:55.437569,0.880558,-4.158725,9.394221,0.023212,-0.042760,0.019547
2026-03-04T20:03:55.447569,0.890130,-4.120440,9.403792,0.015882,-0.041538,0.020769
2026-03-04T20:03:55.457569,0.899701,-4.158725,9.403792,0.010995,-0.043982,0.019547
2026-03-04T20:03:55.466569,0.880558,-4.197010,9.360722,0.007330,-0.043982,0.018325
2026-03-04T20:03:55.476569,0.880558,-4.211367,9.403792,0.010995,-0.045204,0.018325
2026-03-04T20:03:55.485569,0.856630,-4.211367,9.475577,0.014660,-0.040317,0.018325
2026-03-04T20:03:55.495569,0.909272,-4.197010,9.365507,0.020769,-0.043982,0.019547
2026-03-04T20:03:55.505569,0.856630,-4.230510,9.427721,0.028099,-0.042760,0.018325
2026-03-04T20:03:55.514569,0.880558,-4.187439,9.432506,0.030543,-0.041538,0.019547
2026-03-04T20:03:55.524569,0.866201,-4.177868,9.437292,0.032986,-0.039095,0.018325
2026-03-04T20:03:55.533569,0.837487,-4.144368,9.379864,0.034208,-0.040317,0.018325
2026-03-04T20:03:55.543569,0.870987,-4.153940,9.451649,0.029321,-0.040317,0.015882
2026-03-04T20:03:55.553569,0.923629,-4.115654,9.422935,0.018325,-0.042760,0.017104
2026-03-04T20:03:55.562569,0.866201,-4.153940,9.379864,0.012217,-0.043982,0.017104
2026-03-04T20:03:55.572569,0.842273,-4.149154,9.456434,0.013439,-0.045204,0.015882
2026-03-04T20:03:55.582569,0.918843,-4.158725,9.399007,0.009773,-0.045204,0.014660
2026-03-04T20:03:55.591569,0.933200,-4.268795,9.351150,0.009773,-0.045204,0.017104
2026-03-04T20:03:55.601569,0.851844,-4.177868,9.413364,0.013439,-0.042760,0.015882
2026-03-04T20:03:55.610569,0.885344,-4.235296,9.413364,0.018325,-0.042760,0.017104
2026-03-04T20:03:55.620569,0.885344,-4.168296,9.370293,0.021991,-0.041538,0.017104
2026-03-04T20:03:55.630569,0.880558,-4.139583,9.389435,0.020769,-0.041538,0.017104
2026-03-04T20:03:55.639569,0.842273,-4.220939,9.379864,0.018325,-0.042760,0.017104
2026-03-04T20:03:55.649569,0.832702,-4.173082,9.408578,0.021991,-0.045204,0.018325
2026-03-04T20:03:55.658569,0.870987,-4.149154,9.403792,0.018325,-0.045204,0.018325
2026-03-04T20:03:55.668569,0.914058,-4.153940,9.437292,0.015882,-0.042760,0.017104
2026-03-04T20:03:55.678569,0.856630,-4.163511,9.389435,0.014660,-0.041538,0.018325
2026-03-04T20:03:55.687569,0.870987,-4.134797,9.403792,0.012217,-0.043982,0.020769
2026-03-04T20:03:55.697569,0.813559,-4.230510,9.332008,0.015882,-0.045204,0.019547
2026-03-04T20:03:55.707569,0.847059,-4.211367,9.394221,0.018325,-0.043982,0.020769
2026-03-04T20:03:55.716569,0.885344,-4.182653,9.418149,0.017104,-0.042760,0.018325
2026-03-04T20:03:55.726569,0.875773,-4.201796,9.389435,0.014660,-0.041538,0.015882
2026-03-04T20:03:55.735569,0.856630,-4.220939,9.341579,0.018325,-0.042760,0.017104
2026-03-04T20:03:55.745569,0.866201,-4.163511,9.427721,0.020769,-0.043982,0.019547
2026-03-04T20:03:55.755569,0.933200,-4.182653,9.384650,0.019547,-0.043982,0.018325
2026-03-04T20:03:55.764569,0.890130,-4.216153,9.365507,0.015882,-0.042760,0.018325
2026-03-04T20:03:55.774569,0.909272,-4.211367,9.360722,0.021991,-0.041538,0.015882
2026-03-04T20:03:55.783569,0.904486,-4.216153,9.375078,0.024434,-0.041538,0.017104
2026-03-04T20:03:55.793569,0.851844,-4.182653,9.403792,0.023212,-0.041538,0.015882
2026-03-04T20:03:55.803569,0.885344,-4.149154,9.384650,0.021991,-0.042760,0.017104
2026-03-04T20:03:55.812569,0.866201,-4.149154,9.408578,0.020769,-0.041538,0.018325
2026-03-04T20:03:55.822569,0.880558,-4.163511,9.355936,0.020769,-0.041538,0.017104
2026-03-04T20:03:55.832569,0.837487,-4.182653,9.375078,0.018325,-0.042760,0.018325
2026-03-04T20:03:55.841569,0.837487,-4.192225,9.399007,0.015882,-0.042760,0.017104
2026-03-04T20:03:55.851569,0.832702,-4.230510,9.446863,0.014660,-0.042760,0.015882
2026-03-04T20:03:55.860569,0.904486,-4.192225,9.351150,0.013439,-0.042760,0.018325
2026-03-04T20:03:55.870569,0.880558,-4.173082,9.399007,0.015882,-0.041538,0.014660
2026-03-04T20:03:55.880569,0.899701,-4.158725,9.370293,0.018325,-0.041538,0.014660
2026-03-04T20:03:55.889569,0.904486,-4.187439,9.394221,0.023212,-0.042760,0.015882
2026-03-04T20:03:55.899569,0.784845,-4.230510,9.413364,0.028099,-0.041538,0.018325
2026-03-04T20:03:55.908569,0.842273,-4.206582,9.418149,0.028099,-0.041538,0.015882
2026-03-04T20:03:55.918569,0.861416,-4.153940,9.375078,0.023212,-0.041538,0.015882
2026-03-04T20:03:55.928569,0.918843,-4.211367,9.370293,0.017104,-0.042760,0.017104
2026-03-04T20:03:55.937569,0.899701,-4.220939,9.422935,0.017104,-0.043982,0.013439
2026-03-04T20:03:55.947569,0.875773,-4.163511,9.379864,0.020769,-0.043982,0.013439
2026-03-04T20:03:55.957569,0.885344,-4.158725,9.370293,0.021991,-0.040317,0.013439
2026-03-04T20:03:55.966569,0.914058,-4.192225,9.461220,0.019547,-0.042760,0.010995
2026-03-04T20:03:55.976569,0.851844,-4.177868,9.427721,0.018325,-0.041538,0.013439
2026-03-04T20:03:55.985569,0.837487,-4.120440,9.432506,0.020769,-0.041538,0.012217
2026-03-04T20:03:55.995569,0.894915,-4.086941,9.475577,0.019547,-0.041538,0.006108
2026-03-04T20:03:56.005569,0.957129,-3.952942,9.418149,0.007330,-0.036651,0.001221
2026-03-04T20:03:56.014569,0.856630,-3.900300,9.442077,-0.023212,-0.032986,-0.008552
2026-03-04T20:03:56.024569,0.866201,-3.948157,9.509077,-0.064751,-0.034208,-0.015882
2026-03-04T20:03:56.033569,0.837487,-4.153940,9.360722,-0.081855,-0.047647,-0.018325
2026-03-04T20:03:56.043569,0.894915,-4.393222,9.274580,-0.072082,-0.054977,-0.020769
2026-03-04T20:03:56.053569,0.937986,-4.321437,9.312865,-0.025656,-0.056199,-0.008552
2026-03-04T20:03:56.062569,0.947557,-4.058227,9.470791,0.020769,-0.050090,-0.003665
2026-03-04T20:03:56.072569,0.937986,-3.579662,9.547362,-0.010995,-0.047647,-0.002443
2026-03-04T20:03:56.082569,0.885344,-3.407379,9.882357,-0.100181,-0.043982,-0.008552
2026-03-04T20:03:56.091569,0.837487,-3.412165,9.705288,-0.252898,-0.053756,-0.007330
2026-03-04T20:03:56.101569,0.818345,-4.024727,9.533005,-0.411723,-0.064751,-0.004886
2026-03-04T20:03:56.110569,0.933200,-4.240081,9.260223,-0.419053,-0.075747,-0.017104
2026-03-04T20:03:56.120569,0.899701,-4.340580,9.317651,-0.433714,-0.067195,-0.025656
2026-03-04T20:03:56.130569,0.890130,-4.541577,9.150153,-0.417831,-0.069638,-0.026878
2026-03-04T20:03:56.139569,0.909272,-4.546362,9.121439,-0.334754,-0.068416,-0.037873
2026-03-04T20:03:56.149569,0.952343,-4.039084,9.437292,-0.272445,-0.058643,-0.054977
2026-03-04T20:03:56.158569,0.861416,-3.474378,9.643075,-0.328645,-0.037873,-0.085521
2026-03-04T20:03:56.168569,0.741775,-3.512663,9.566504,-0.532674,-0.039095,-0.106290
2026-03-04T20:03:56.178569,0.770488,-4.096512,9.269794,-0.703716,-0.065973,-0.125838
2026-03-04T20:03:56.187569,0.832702,-4.627718,9.150153,-0.791681,-0.081855,-0.147829
2026-03-04T20:03:56.197569,0.918843,-5.412564,9.001798,-0.821002,-0.102625,-0.151494
2026-03-04T20:03:56.207569,1.019342,-5.685346,8.695517,-0.692721,-0.094073,-0.163711
2026-03-04T20:03:56.216569,1.052841,-5.369493,8.973084,-0.547335,-0.075747,-0.173485
2026-03-04T20:03:56.226569,1.033699,-4.929214,9.126225,-0.497244,-0.062308,-0.166155
2026-03-04T20:03:56.235569,0.918843,-4.862215,8.973084,-0.513126,-0.053756,-0.161268
2026-03-04T20:03:56.245569,0.870987,-4.962714,9.116654,-0.509461,-0.059864,-0.168598
2026-03-04T20:03:56.255569,0.937986,-5.288137,9.059226,-0.548556,-0.089186,-0.166155
2026-03-04T20:03:56.264569,1.124626,-5.747559,8.882157,-0.515570,-0.102625,-0.172263
2026-03-04T20:03:56.274569,1.263410,-5.915057,8.839086,-0.408057,-0.085521,-0.178372
2026-03-04T20:03:56.283569,1.306481,-5.785845,8.953942,-0.285884,-0.042760,-0.179594
2026-03-04T20:03:56.293569,1.215553,-5.603990,8.910871,-0.175929,-0.002443,-0.183259
2026-03-04T20:03:56.303569,1.086341,-5.446064,9.011369,-0.100181,0.024434,-0.193033
2026-03-04T20:03:56.312569,1.148554,-5.608776,9.054440,-0.079412,0.039095,-0.204028
2026-03-04T20:03:56.322569,1.277767,-6.068198,9.198010,-0.035430,0.062308,-0.202807
2026-03-04T20:03:56.332569,1.598405,-7.130611,9.265009,0.136833,0.194255,-0.208915
2026-03-04T20:03:56.341569,1.957328,-6.920042,9.662217,0.559552,0.371405,-0.103847
2026-03-04T20:03:56.351569,1.852044,-6.384050,9.949356,0.827111,0.590095,-0.003665
2026-03-04T20:03:56.360569,1.205982,-5.867201,10.126425,0.977384,0.750142,0.043982
2026-03-04T20:03:56.370569,0.698704,-5.503491,10.269994,0.973718,0.779463,0.096516
2026-03-04T20:03:56.380569,0.693918,-5.388636,9.958927,0.967610,0.706160,0.130725
2026-03-04T20:03:56.389569,0.741775,-5.144568,9.887142,0.940732,0.623082,0.167377
2026-03-04T20:03:56.399569,0.875773,-4.890929,9.801001,0.846659,0.547335,0.171042
2026-03-04T20:03:56.408569,1.000199,-4.637290,9.681360,0.698829,0.493579,0.166155
2026-03-04T20:03:56.418569,0.947557,-4.474578,9.757930,0.454483,0.492357,0.171042
2026-03-04T20:03:56.428569,0.799202,-4.886143,9.695717,0.128281,0.499687,0.205250
2026-03-04T20:03:56.437569,0.717846,-5.484349,9.600004,-0.152716,0.475253,0.284663
2026-03-04T20:03:56.447569,0.531206,-6.149554,9.604789,-0.356745,0.410501,0.412944
2026-03-04T20:03:56.457569,0.674775,-6.388836,9.556933,-0.502131,0.324980,0.532674
2026-03-04T20:03:56.466569,0.842273,-6.666403,9.322436,-0.571769,0.241902,0.646295
2026-03-04T20:03:56.476569,0.827916,-6.537191,9.207581,-0.635299,0.215024,0.761137
2026-03-04T20:03:56.485569,0.574277,-6.565905,8.719445,-0.719599,0.216246,0.880867
2026-03-04T20:03:56.495569,0.320638,-6.613761,8.322237,-0.813672,0.190589,0.985936
2026-03-04T20:03:56.505569,-0.004785,-6.690331,8.207381,-0.915075,0.096516,1.082452
2026-03-04T20:03:56.514569,-0.023928,-6.829115,8.269594,-1.006705,-0.024434,1.164308
2026-03-04T20:03:56.524569,0.062213,-7.302894,8.432306,-1.100778,-0.128281,1.222951
2026-03-04T20:03:56.533569,0.306281,-7.637889,8.537591,-1.127656,-0.182037,1.317025
2026-03-04T20:03:56.543569,0.488135,-7.556533,8.494520,-1.116661,-0.179594,1.442863
2026-03-04T20:03:56.553569,0.473778,-7.460820,8.250452,-1.167974,-0.150272,1.582140
2026-03-04T20:03:56.562569,0.263210,-7.226324,8.044669,-1.266934,-0.127059,1.716530
2026-03-04T20:03:56.572569,0.000000,-7.058826,7.934599,-1.434311,-0.136833,1.828930
2026-03-04T20:03:56.582569,-0.196211,-6.996613,7.733602,-1.616349,-0.172263,1.933998
2026-03-04T20:03:56.591569,-0.416351,-7.006184,7.403393,-1.780060,-0.222354,2.030515
2026-03-04T20:03:56.601569,-0.703489,-7.049255,7.058826,-1.965763,-0.287106,2.133140
2026-03-04T20:03:56.610569,-0.847059,-7.202396,6.661618,-2.195449,-0.376292,2.245540
2026-03-04T20:03:56.620569,-1.076770,-6.948756,6.470192,-2.433686,-0.485026,2.390926
2026-03-04T20:03:56.630569,-1.229910,-6.800401,6.250052,-2.742784,-0.610865,2.509433
2026-03-04T20:03:56.639569,-1.210768,-6.771687,6.010770,-3.015230,-0.747698,2.575407
2026-03-04T20:03:56.649569,-1.368694,-7.255038,5.929414,-3.307223,-0.889419,2.627941
2026-03-04T20:03:56.658569,-1.191625,-7.183253,5.848058,-3.251024,-0.996931,2.597398
2026-03-04T20:03:56.668569,-1.182054,-6.958328,6.096911,-3.467270,-1.054353,2.604728
2026-03-04T20:03:56.678569,-1.172483,-7.288537,5.331208,-3.615099,-1.104444,2.621833
2026-03-04T20:03:56.687569,-1.301695,-7.015755,4.766502,-3.628538,-1.171639,2.607172
2026-03-04T20:03:56.697569,-1.507478,-6.738188,4.378865,-3.775146,-1.253495,2.581515
2026-03-04T20:03:56.707569,-1.732403,-6.331408,4.536791,-4.031709,-1.337794,2.546085
2026-03-04T20:03:56.716569,-2.033899,-6.317051,4.627718,-4.456871,-1.474628,2.543642
2026-03-04T20:03:56.726569,-2.311466,-6.254838,4.029513,-4.839273,-1.627344,2.526538
2026-03-04T20:03:56.735569,-2.287538,-6.652046,3.163311,-5.175249,-1.777617,2.450790
2026-03-04T20:03:56.745569,-2.421536,-7.082754,2.234896,-5.371948,-1.918116,2.362826
2026-03-04T20:03:56.755569,-2.349751,-7.489534,1.526620,-5.479460,-2.041511,2.184453
2026-03-04T20:03:56.764569,-2.321037,-8.173882,1.134197,-5.458690,-2.152688,1.993863
2026-03-04T20:03:56.774569,-2.359323,-9.150153,0.732203,-5.330408,-2.269974,1.808160
2026-03-04T20:03:56.783569,-2.392822,-10.016355,0.229710,-5.100723,-2.416582,1.671326
2026-03-04T20:03:56.793569,-2.340180,-10.442277,0.186640,-4.707326,-2.601063,1.502728
2026-03-04T20:03:56.803569,-2.038684,-10.782058,-0.210568,-4.301712,-2.776992,1.321912
2026-03-04T20:03:56.812569,-1.875972,-10.293922,-0.516849,-3.800802,-2.882061,1.174082
2026-03-04T20:03:56.822569,-1.679761,-9.576076,-0.488135,-3.445279,-3.010343,1.010370
2026-03-04T20:03:56.832569,-1.387837,-9.427721,-0.492921,-3.260797,-3.089755,0.861319
2026-03-04T20:03:56.841569,-1.325623,-9.753144,-0.713061,-3.065321,-3.169168,0.712268
2026-03-04T20:03:56.851569,-1.363908,-9.542576,-0.990628,-2.774549,-3.237585,0.574213
2026-03-04T20:03:56.860569,-1.330409,-8.877371,-1.086341,-2.598620,-3.330436,0.443488
2026-03-04T20:03:56.870569,-1.014556,-8.317451,-0.870987,-2.508212,-3.459939,0.288328
2026-03-04T20:03:56.880569,-0.559920,-7.905885,-0.488135,-2.480112,-3.524691,0.164933
2026-03-04T20:03:56.889569,-0.416351,-8.059026,-0.425922,-2.511877,-3.517361,0.010995
2026-03-04T20:03:56.899569,-0.411565,-8.599804,-0.899701,-2.517985,-3.484374,-0.133168
2026-03-04T20:03:56.908569,-0.521635,-8.953942,-1.105484,-2.454456,-3.499035,-0.276111
2026-03-04T20:03:56.918569,-0.354137,-8.930013,-0.602991,-2.383595,-3.554013,-0.417831
2026-03-04T20:03:56.928569,-0.052642,-8.642875,-0.090927,-2.283413,-3.545461,-0.551000
2026-03-04T20:03:56.937569,-0.004785,-8.293523,-0.114855,-2.212553,-3.491704,-0.685390
2026-03-04T20:03:56.947569,0.215354,-8.480163,0.574277,-2.295631,-3.481931,-0.792902
2026-03-04T20:03:56.957569,0.655633,-9.221938,1.488335,-2.448347,-3.467270,-0.831998
2026-03-04T20:03:56.966569,1.325623,-9.714859,2.593819,-2.544864,-3.370753,-0.864984
2026-03-04T20:03:56.976569,1.502692,-10.164710,2.612962,-2.554637,-3.160616,-0.910189
2026-03-04T20:03:56.985569,1.440479,-10.198209,2.871387,-2.495994,-2.935817,-0.960279
2026-03-04T20:03:56.995569,1.272981,-10.265208,2.981456,-2.393369,-2.713462,-1.027475
2026-03-04T20:03:57.005569,1.344766,-10.327422,3.426521,-2.322509,-2.521651,-1.064127
2026-03-04T20:03:57.014569,1.646261,-11.337193,3.670589,-2.383595,-2.345722,-1.050687
2026-03-04T20:03:57.024569,2.024327,-12.055040,4.106083,-2.249205,-2.105041,-1.038470
2026-03-04T20:03:57.033569,2.220539,-12.524033,4.608576,-2.069610,-1.795943,-1.017701
2026-03-04T20:03:57.043569,2.172682,-13.414163,4.704289,-1.935220,-1.477071,-0.965166
2026-03-04T20:03:57.053569,1.942971,-13.926227,4.776073,-1.667661,-1.136209,-0.893084
2026-03-04T20:03:57.062569,1.751546,-14.246865,4.929214,-1.396437,-0.808785,-0.813672
2026-03-04T20:03:57.072569,1.794616,-14.581860,5.450849,-1.066570,-0.509461,-0.728151
2026-03-04T20:03:57.082569,2.029113,-14.462219,5.848058,-0.630412,-0.174707,-0.629191
2026-03-04T20:03:57.091569,2.134397,-14.266008,5.761916,-0.221133,0.202807,-0.532674
2026-03-04T20:03:57.101569,2.182254,-14.160724,5.771488,0.107512,0.568104,-0.426383
2026-03-04T20:03:57.110569,2.239681,-14.088939,5.460421,0.409279,0.923628,-0.313984
2026-03-04T20:03:57.120569,2.254038,-13.471591,5.230710,0.751364,1.269377,-0.212581
2026-03-04T20:03:57.130569,2.230110,-12.500105,5.245067,1.026253,1.602910,-0.133168
2026-03-04T20:03:57.139569,2.321037,-11.662617,5.240281,1.174082,1.920559,-0.073303
2026-03-04T20:03:57.149569,2.421536,-11.155338,4.957928,1.299920,2.238209,-0.046425
2026-03-04T20:03:57.158569,2.450250,-10.681560,4.603790,1.411098,2.546085,-0.032986
2026-03-04T20:03:57.168569,2.450250,-10.408778,4.158725,1.488067,2.819753,-0.023212
2026-03-04T20:03:57.178569,2.474178,-10.207781,2.344966,1.446528,3.068986,0.029321
2026-03-04T20:03:57.187569,2.062613,-10.279565,-0.440279,1.314581,3.254689,0.098960
2026-03-04T20:03:57.197569,1.430907,-9.968498,-1.856830,1.116661,3.347540,0.173485
2026-03-04T20:03:57.207569,0.803988,-9.389435,-2.301895,0.871093,3.363423,0.251676
2026-03-04T20:03:57.216569,0.397208,-8.523234,-2.723032,0.612086,3.335323,0.316428
2026-03-04T20:03:57.226569,0.009571,-8.250452,-3.838087,0.271224,3.266906,0.368962
2026-03-04T20:03:57.235569,-0.177068,-8.087740,-4.244867,-0.043982,3.128851,0.421496
2026-03-04T20:03:57.245569,-0.181854,-7.867600,-5.005784,-0.375071,2.984686,0.498465
2026-03-04T20:03:57.255569,-0.602991,-8.298308,-6.972685,-0.717155,2.834414,0.580321
2026-03-04T20:03:57.264569,-1.110269,-9.217152,-7.738388,-0.935845,2.554637,0.592539
2026-03-04T20:03:57.274569,-1.014556,-9.437292,-6.853043,-0.946840,2.246761,0.570548
2026-03-04T20:03:57.283569,-1.071984,-9.480363,-7.652246,-0.844215,2.019520,0.559552
2026-03-04T20:03:57.293569,-1.564905,-9.863214,-9.245866,-0.730594,1.762956,0.532674
2026-03-04T20:03:57.303569,-1.718046,-9.657432,-9.576076,-0.583987,1.425759,0.481361
2026-03-04T20:03:57.312569,-1.842473,-9.135796,-10.078568,-0.503352,1.082452,0.432492
2026-03-04T20:03:57.322569,-1.890329,-8.944370,-10.624132,-0.509461,0.722042,0.357966
2026-03-04T20:03:57.332569,-2.038684,-8.743373,-10.537990,-0.538783,0.340862,0.255341
2026-03-04T20:03:57.341569,-1.909472,-8.863014,-10.006784,-0.504574,-0.024434,0.105068
2026-03-04T20:03:57.351569,-1.842473,-8.135596,-8.819944,-0.357966,-0.342084,-0.063529
2026-03-04T20:03:57.360569,-1.718046,-7.484749,-8.015955,-0.248011,-0.616973,-0.241902
2026-03-04T20:03:57.370569,-1.684547,-7.302894,-7.992027,-0.237015,-0.845437,-0.411723
2026-03-04T20:03:57.380569,-1.995614,-7.422535,-8.408378,-0.290771,-1.075122,-0.564439
2026-03-04T20:03:57.389569,-2.373680,-7.585247,-8.379664,-0.364075,-1.348790,-0.703716
2026-03-04T20:03:57.399569,-2.426322,-7.762316,-8.025527,-0.443488,-1.653000,-0.827111
2026-03-04T20:03:57.408569,-2.182254,-7.824529,-7.355536,-0.480139,-1.949881,-0.946840
2026-03-04T20:03:57.418569,-1.823330,-7.580461,-6.273980,-0.496022,-2.214996,-1.060461
2026-03-04T20:03:57.428569,-1.296909,-7.609175,-5.383850,-0.593760,-2.427577,-1.164308
2026-03-04T20:03:57.437569,-0.770488,-8.015955,-4.197010,-0.692721,-2.588846,-1.255938
2026-03-04T20:03:57.447569,-0.334995,-8.551947,-2.938386,-0.774576,-2.704910,-1.326799
2026-03-04T20:03:57.457569,0.157926,-8.930013,-1.488335,-0.814894,-2.774549,-1.363450
2026-03-04T20:03:57.466569,0.555134,-9.250652,-0.397208,-0.852767,-2.770884,-1.379333
2026-03-04T20:03:57.476569,0.942772,-9.619146,0.607776,-0.862541,-2.701245,-1.386663
2026-03-04T20:03:57.485569,1.253839,-10.131210,1.674975,-0.916297,-2.588846,-1.374446
2026-03-04T20:03:57.495569,1.593619,-11.083554,2.435893,-1.000597,-2.445903,-1.324355
2026-03-04T20:03:57.505569,2.038684,-12.442677,3.254238,-1.022588,-2.258979,-1.233947
2026-03-04T20:03:57.514569,2.440679,-14.031511,4.206582,-1.049466,-2.028072,-1.091005
2026-03-04T20:03:57.524569,2.569891,-15.797414,4.589433,-0.948062,-1.736078,-0.901636
2026-03-04T20:03:57.533569,2.574677,-16.314264,5.039284,-0.592539,-1.382998,-0.696386
2026-03-04T20:03:57.543569,2.407179,-16.003197,5.335994,-0.188146,-1.014036,-0.496022
2026-03-04T20:03:57.553569,2.292324,-15.141781,5.651846,0.133168,-0.646295,-0.278554
2026-03-04T20:03:57.562569,2.589034,-14.184652,6.398407,0.342084,-0.276111,-0.063529
2026-03-04T20:03:57.572569,3.110669,-13.533804,7.015755,0.454483,0.114842,0.129503
2026-03-04T20:03:57.582569,3.536591,-13.203595,6.929614,0.561995,0.593760,0.290771
2026-03-04T20:03:57.591569,3.369094,-12.758530,6.053841,0.764803,1.109331,0.410501
2026-03-04T20:03:57.601569,2.909672,-12.093325,5.130211,0.959058,1.529606,0.505796
2026-03-04T20:03:57.610569,2.656033,-11.394621,4.331008,1.102000,1.836260,0.581543
2026-03-04T20:03:57.620569,2.670390,-10.413563,3.550948,1.191186,2.116036,0.645073
2026-03-04T20:03:57.630569,2.507678,-9.719645,2.316252,1.170417,2.397034,0.691499
2026-03-04T20:03:57.639569,2.220539,-9.097511,1.076770,1.054353,2.642602,0.722042
2026-03-04T20:03:57.649569,1.832902,-8.633303,0.023928,0.844215,2.824640,0.746477
2026-03-04T20:03:57.658569,1.459621,-8.504091,-1.263410,0.592539,2.949256,0.758694
2026-03-04T20:03:57.668569,0.971485,-8.542376,-2.450250,0.381179,2.999347,0.756251
2026-03-04T20:03:57.678569,0.502492,-8.800801,-4.043870,0.164933,2.984686,0.761137
2026-03-04T20:03:57.687569,-0.162711,-9.183653,-5.508277,0.018325,2.874731,0.766024
2026-03-04T20:03:57.697569,-0.588634,-8.944370,-5.752345,-0.026878,2.667037,0.757472
2026-03-04T20:03:57.707569,-0.684347,-8.360522,-6.216553,-0.096516,2.434908,0.750142
2026-03-04T20:03:57.716569,-0.794417,-8.312665,-7.810172,-0.180816,2.218662,0.725707
2026-03-04T20:03:57.726569,-1.143769,-8.221738,-8.786444,-0.276111,1.931555,0.707381
2026-03-04T20:03:57.735569,-1.229910,-8.145168,-9.729216,-0.417831,1.609018,0.691499
2026-03-04T20:03:57.745569,-1.473978,-8.260023,-11.217552,-0.555887,1.262047,0.658512
2026-03-04T20:03:57.755569,-1.722832,-8.681160,-11.911470,-0.658512,0.849102,0.579100
2026-03-04T20:03:57.764569,-1.631905,-8.910871,-11.897113,-0.654847,0.387288,0.466700
2026-03-04T20:03:57.774569,-1.320838,-8.872586,-11.394621,-0.509461,-0.046425,0.318871
2026-03-04T20:03:57.783569,-1.038485,-8.513662,-10.566704,-0.254119,-0.401949,0.125838
2026-03-04T20:03:57.793569,-0.842273,-7.719245,-9.657432,0.000000,-0.717155,-0.068416
2026-03-04T20:03:57.803569,-0.669990,-7.235895,-9.059226,0.140498,-0.993266,-0.262671
2026-03-04T20:03:57.812569,-0.885344,-7.350751,-8.743373,0.171042,-1.211956,-0.441044
2026-03-04T20:03:57.822569,-1.416550,-7.618747,-8.657232,0.139277,-1.425759,-0.580321
2026-03-04T20:03:57.832569,-2.000399,-8.145168,-8.499305,0.059864,-1.694539,-0.681725
2026-03-04T20:03:57.841569,-2.201396,-8.532805,-7.671389,-0.023212,-2.010967,-0.748920
2026-03-04T20:03:57.851569,-1.828116,-8.743373,-6.685546,-0.094073,-2.315178,-0.794124
2026-03-04T20:03:57.860569,-1.426122,-8.642875,-5.867201,-0.140498,-2.547307,-0.825889
2026-03-04T20:03:57.870569,-0.847059,-8.312665,-4.603790,-0.196698,-2.726901,-0.867428
2026-03-04T20:03:57.880569,-0.215354,-8.274380,-2.995813,-0.304210,-2.856405,-0.910189
2026-03-04T20:03:57.889569,0.339780,-8.642875,-1.880758,-0.409279,-2.890613,-0.945619
2026-03-04T20:03:57.899569,0.770488,-9.135796,-0.497707,-0.480139,-2.877174,-0.960279
2026-03-04T20:03:57.908569,1.244267,-9.949356,0.808774,-0.549778,-2.824640,-0.960279
2026-03-04T20:03:57.918569,1.574477,-10.734202,2.038684,-0.532674,-2.717128,-0.923628
2026-03-04T20:03:57.928569,1.938186,-11.729616,3.101098,-0.541226,-2.555859,-0.839328
2026-03-04T20:03:57.937569,2.277967,-12.993026,3.943371,-0.543669,-2.340835,-0.711046
2026-03-04T20:03:57.947569,2.522035,-14.007583,4.689932,-0.421496,-2.052506,-0.558330
2026-03-04T20:03:57.957569,2.636890,-14.304293,5.359922,-0.185702,-1.700648,-0.393397
2026-03-04T20:03:57.966569,2.723032,-14.237294,5.891129,0.057421,-1.320690,-0.212581
2026-03-04T20:03:57.976569,2.828316,-13.926227,6.178267,0.248011,-0.921184,-0.014660
2026-03-04T20:03:57.985569,3.058027,-13.524233,6.350551,0.412944,-0.502131,0.171042
2026-03-04T20:03:57.995569,3.282952,-12.772887,6.599404,0.581543,-0.070860,0.323758
2026-03-04T20:03:58.005569,3.369094,-12.040683,6.680760,0.755029,0.386066,0.428827
2026-03-04T20:03:58.014569,3.187239,-11.361121,6.474977,0.924849,0.856432,0.503352
2026-03-04T20:03:58.024569,2.957528,-10.949556,5.752345,1.069013,1.275486,0.547335
2026-03-04T20:03:58.033569,2.842673,-10.537990,4.900500,1.205847,1.617570,0.586430
2026-03-04T20:03:58.043569,2.727817,-9.877571,3.952942,1.287703,1.929112,0.634077
2026-03-04T20:03:58.053569,2.517249,-9.379864,2.780459,1.249830,2.223549,0.679282
2026-03-04T20:03:58.062569,2.110469,-8.882157,1.694118,1.108109,2.478890,0.723264
2026-03-04T20:03:58.072569,1.751546,-8.413164,0.588634,0.906523,2.678032,0.756251
2026-03-04T20:03:58.082569,1.249053,-8.298308,-0.401994,0.667064,2.829527,0.770911
2026-03-04T20:03:58.091569,0.689132,-8.216952,-1.229910,0.498465,2.919935,0.761137
2026-03-04T20:03:58.101569,0.378065,-7.872386,-1.746760,0.366519,2.934595,0.739146
2026-03-04T20:03:58.110569,0.191425,-7.767102,-2.785245,0.217467,2.896722,0.720820
2026-03-04T20:03:58.120569,-0.114855,-7.733602,-4.412364,0.069638,2.835635,0.700051
2026-03-04T20:03:58.130569,-0.679561,-7.905885,-6.264409,-0.106290,2.707354,0.674395
2026-03-04T20:03:58.139569,-1.057627,-8.116454,-7.743173,-0.299323,2.481334,0.651182
2026-03-04T20:03:58.149569,-1.416550,-8.595018,-9.408578,-0.471587,2.183231,0.637743
2026-03-04T20:03:58.158569,-1.794616,-8.997012,-11.179267,-0.590095,1.811825,0.616973
2026-03-04T20:03:58.168569,-1.674975,-9.317651,-11.968898,-0.626747,1.335351,0.571769
2026-03-04T20:03:58.178569,-1.335195,-9.255437,-12.260823,-0.538783,0.827111,0.502131
2026-03-04T20:03:58.187569,-0.827916,-8.848657,-11.739187,-0.346971,0.348193,0.367740
2026-03-04T20:03:58.197569,-0.291924,-8.240881,-10.547562,-0.061086,-0.042760,0.168598
2026-03-04T20:03:58.207569,-0.148355,-7.149753,-9.427721,0.180816,-0.323758,-0.035430
2026-03-04T20:03:58.216569,-0.349352,-6.814758,-8.872586,0.174707,-0.555887,-0.222354
2026-03-04T20:03:58.226569,-0.909272,-7.503891,-8.642875,0.095294,-0.774576,-0.395840
2026-03-04T20:03:58.235569,-1.627119,-7.867600,-8.595018,0.072082,-0.983492,-0.529009
2026-03-04T20:03:58.245569,-2.383251,-8.355736,-8.580661,0.002443,-1.241277,-0.634077
2026-03-04T20:03:58.255569,-2.684746,-8.666803,-8.245666,-0.043982,-1.554040,-0.711046
2026-03-04T20:03:58.264569,-2.670390,-8.398807,-7.350751,-0.087964,-1.891238,-0.762359
2026-03-04T20:03:58.274569,-2.153540,-8.188238,-6.374479,-0.208915,-2.189340,-0.807563
2026-03-04T20:03:58.283569,-1.502692,-8.274380,-5.187639,-0.357966,-2.422691,-0.846659
2026-03-04T20:03:58.293569,-0.861416,-8.652446,-3.828516,-0.507018,-2.574185,-0.879645
2026-03-04T20:03:58.303569,-0.239282,-9.040083,-2.478964,-0.615752,-2.659706,-0.904080
2026-03-04T20:03:58.312569,0.320638,-9.647860,-1.004985,-0.665842,-2.692693,-0.921184
2026-03-04T20:03:58.322569,0.914058,-10.102497,0.435493,-0.684168,-2.660928,-0.906523
2026-03-04T20:03:58.332569,1.344766,-10.671988,1.660618,-0.691499,-2.554637,-0.856432
2026-03-04T20:03:58.341569,1.880758,-11.495119,2.593819,-0.706160,-2.381152,-0.780685
2026-03-04T20:03:58.351569,2.244467,-12.461820,3.445664,-0.687834,-2.156353,-0.667064
2026-03-04T20:03:58.360569,2.392822,-13.500305,4.139583,-0.620638,-1.876577,-0.516791
2026-03-04T20:03:58.370569,2.368894,-14.088939,4.666004,-0.469144,-1.565036,-0.348193
2026-03-04T20:03:58.380569,2.234896,-14.423934,4.981856,-0.278554,-1.242499,-0.158824
2026-03-04T20:03:58.389569,2.254038,-14.677573,5.130211,-0.065973,-0.916297,0.032986
2026-03-04T20:03:58.399569,2.282752,-14.443077,5.546562,0.206472,-0.582765,0.219911
2026-03-04T20:03:58.408569,2.431107,-13.653445,5.881557,0.489913,-0.230907,0.390953
2026-03-04T20:03:58.418569,2.742174,-12.543176,6.173482,0.756251,0.144164,0.516791
2026-03-04T20:03:58.428569,2.933600,-11.447263,6.221338,0.937067,0.565661,0.603534
2026-03-04T20:03:58.437569,2.847458,-10.834700,5.790630,1.021366,0.999375,0.664621
2026-03-04T20:03:58.447569,2.565105,-10.514062,4.924428,1.072679,1.391550,0.713490
2026-03-04T20:03:58.457569,2.258824,-10.198209,4.197010,1.099557,1.716530,0.764803
2026-03-04T20:03:58.466569,2.024327,-9.820143,3.512663,1.088561,1.993863,0.814894
2026-03-04T20:03:58.476569,1.813759,-9.250652,2.723032,1.034805,2.249205,0.852767
2026-03-04T20:03:58.485569,1.631905,-8.681160,1.938186,0.941954,2.481334,0.860098
2026-03-04T20:03:58.495569,1.316052,-8.226524,1.210768,0.803898,2.669480,0.841772
2026-03-04T20:03:58.505569,1.000199,-7.953742,0.277567,0.642630,2.811201,0.801455
2026-03-04T20:03:58.514569,0.727418,-7.972884,-0.784845,0.499687,2.911383,0.753807
2026-03-04T20:03:58.524569,0.349352,-7.877171,-2.019542,0.356745,2.962695,0.712268
2026-03-04T20:03:58.533569,-0.210568,-8.116454,-3.933800,0.186924,2.943148,0.669508
2026-03-04T20:03:58.543569,-0.885344,-8.422735,-5.742774,0.017104,2.817309,0.618195
2026-03-04T20:03:58.553569,-1.483550,-8.843872,-6.896114,-0.142942,2.574185,0.561995
2026-03-04T20:03:58.562569,-1.684547,-9.298508,-8.350950,-0.250454,2.267531,0.509461
2026-03-04T20:03:58.572569,-1.933400,-9.633503,-10.011569,-0.280997,1.916894,0.470366
2026-03-04T20:03:58.582569,-1.995614,-9.470791,-11.198409,-0.282219,1.505171,0.432492
2026-03-04T20:03:58.591569,-1.885544,-8.858229,-11.863614,-0.299323,1.029918,0.383623
2026-03-04T20:03:58.601569,-1.378265,-8.264809,-11.935399,-0.356745,0.509461,0.288328
2026-03-04T20:03:58.610569,-0.392422,-8.121239,-11.332407,-0.338419,0.032986,0.160046
2026-03-04T20:03:58.620569,0.382851,-8.140382,-10.959127,-0.229685,-0.291993,-0.012217
2026-03-04T20:03:58.630569,0.325423,-8.149953,-10.260423,0.002443,-0.491135,-0.204028
2026-03-04T20:03:58.639569,-0.588634,-8.001598,-9.346365,0.202807,-0.693942,-0.379958
2026-03-04T20:03:58.649569,-1.507478,-8.255237,-8.853443,0.283441,-0.950506,-0.515570
2026-03-04T20:03:58.658569,-2.038684,-8.762516,-8.236095,0.305432,-1.238834,-0.612086
2026-03-04T20:03:58.668569,-2.368894,-9.150153,-7.412964,0.322536,-1.522275,-0.667064
2026-03-04T20:03:58.678569,-2.397608,-8.934799,-6.422335,0.326201,-1.772730,-0.696386
2026-03-04T20:03:58.687569,-2.268395,-8.571090,-5.474778,0.217467,-2.019520,-0.702494
2026-03-04T20:03:58.697569,-1.914258,-8.432306,-4.560719,-0.010995,-2.238209,-0.684168
2026-03-04T20:03:58.707569,-1.344766,-8.748159,-3.694518,-0.273667,-2.398256,-0.664621
2026-03-04T20:03:58.716569,-0.894915,-9.461220,-2.612962,-0.500909,-2.488664,-0.631634
2026-03-04T20:03:58.726569,-0.440279,-10.131210,-1.445264,-0.626747,-2.527759,-0.581543
2026-03-04T20:03:58.735569,-0.066999,-10.590632,-0.076570,-0.654847,-2.516764,-0.515570
2026-03-04T20:03:58.745569,0.387637,-11.236694,1.387837,-0.647517,-2.456899,-0.437379
2026-03-04T20:03:58.755569,0.995414,-11.959327,2.842673,-0.587652,-2.328617,-0.329867
2026-03-04T20:03:58.764569,1.569691,-12.509676,4.244867,-0.508239,-2.122145,-0.191811
2026-03-04T20:03:58.774569,1.909472,-13.385449,5.087140,-0.443488,-1.839925,-0.034208
2026-03-04T20:03:58.783569,2.043470,-13.983655,5.503491,-0.280997,-1.489289,0.136833
2026-03-04T20:03:58.793569,1.856830,-14.390435,5.771488,-0.074525,-1.120326,0.318871
2026-03-04T20:03:58.803569,1.641476,-14.380863,5.647061,0.174707,-0.767246,0.505796
2026-03-04T20:03:58.812569,1.473978,-13.720444,5.536991,0.460592,-0.422718,0.682947
2026-03-04T20:03:58.822569,1.430907,-12.959527,5.316851,0.680503,-0.102625,0.833220
2026-03-04T20:03:58.832569,1.493121,-12.346964,5.355136,0.864984,0.206472,0.952949
2026-03-04T20:03:58.841569,1.708475,-11.758330,5.436492,1.051909,0.526565,1.023809
2026-03-04T20:03:58.851569,1.718046,-11.093125,5.206781,1.259603,0.872315,1.049466
2026-03-04T20:03:58.860569,1.555334,-10.370493,4.651647,1.435533,1.209512,1.054353
2026-03-04T20:03:58.870569,1.296909,-9.552147,3.933800,1.502728,1.502728,1.049466
2026-03-04T20:03:58.880569,1.009771,-8.733802,3.230310,1.468519,1.747074,1.029918
2026-03-04T20:03:58.889569,0.856630,-8.059026,2.617747,1.298699,1.964542,0.994488
2026-03-04T20:03:58.899569,0.612562,-7.714460,1.545763,1.056796,2.162462,0.943175
2026-03-04T20:03:58.908569,0.205782,-7.456035,0.679561,0.818559,2.329839,0.875980
2026-03-04T20:03:58.918569,-0.387637,-7.369893,-0.167497,0.568104,2.432464,0.795346
2026-03-04T20:03:58.928569,-0.832702,-7.283751,-0.827916,0.355523,2.461786,0.701273
2026-03-04T20:03:58.937569,-1.105484,-7.441678,-1.698904,0.206472,2.450790,0.596204
2026-03-04T20:03:58.947569,-1.406979,-7.728816,-3.402593,0.117286,2.417804,0.489913
2026-03-04T20:03:58.957569,-1.909472,-8.006384,-5.307280,0.036651,2.317622,0.394618
2026-03-04T20:03:58.966569,-2.507678,-8.288737,-6.733402,-0.069638,2.102597,0.305432
2026-03-04T20:03:58.976569,-2.742174,-8.542376,-7.197610,-0.144164,1.775174,0.226020
2026-03-04T20:03:58.985569,-2.512463,-8.432306,-7.719245,-0.190589,1.436754,0.162490
2026-03-04T20:03:58.995569,-2.249253,-8.403592,-8.705088,-0.333532,1.131322,0.117286
2026-03-04T20:03:59.005569,-2.196611,-8.700302,-8.997012,-0.536339,0.801455,0.078190
2026-03-04T20:03:59.014569,-1.952543,-8.480163,-8.331808,-0.637743,0.469144,0.032986
2026-03-04T20:03:59.024569,-1.445264,-8.116454,-7.733602,-0.696386,0.185702,-0.020769
2026-03-04T20:03:59.033569,-1.153340,-8.279166,-7.412964,-0.707381,-0.032986,-0.096516
2026-03-04T20:03:59.043569,-0.923629,-8.551947,-6.948756,-0.586430,-0.200363,-0.201585
2026-03-04T20:03:59.053569,-1.282552,-8.709874,-6.719045,-0.332310,-0.302989,-0.312762
2026-03-04T20:03:59.062569,-2.177468,-8.628518,-7.140182,-0.109955,-0.414166,-0.390953
2026-03-04T20:03:59.072569,-2.900100,-9.087940,-7.867600,-0.083077,-0.643851,-0.441044
2026-03-04T20:03:59.082569,-3.172882,-10.121639,-8.025527,-0.094073,-0.935845,-0.459370
2026-03-04T20:03:59.091569,-3.163311,-10.657631,-7.393821,-0.019547,-1.224173,-0.445931
2026-03-04T20:03:59.101569,-3.029313,-10.734202,-6.307480,0.072082,-1.488067,-0.412944
2026-03-04T20:03:59.110569,-2.584248,-10.930413,-4.977071,0.106290,-1.720196,-0.386066
2026-03-04T20:03:59.120569,-2.014756,-10.896914,-3.436093,0.164933,-1.896125,-0.354301
2026-03-04T20:03:59.130569,-1.426122,-10.581061,-1.909472,0.259006,-1.993863,-0.326201
2026-03-04T20:03:59.139569,-1.100698,-10.121639,-0.870987,0.337197,-2.019520,-0.301767
2026-03-04T20:03:59.149569,-0.808774,-10.045069,-0.028713,0.333532,-1.993863,-0.277332
2026-03-04T20:03:59.158569,-0.765703,-10.423135,0.559920,0.311541,-1.935220,-0.229685
2026-03-04T20:03:59.168569,-0.803988,-11.088339,1.172483,0.287106,-1.853364,-0.150272
2026-03-04T20:03:59.178569,-0.837487,-11.968898,1.895115,0.267558,-1.761734,-0.029321
2026-03-04T20:03:59.187569,-0.717846,-12.715459,2.799602,0.277332,-1.657887,0.127059
2026-03-04T20:03:59.197569,-0.392422,-13.088739,3.991228,0.353080,-1.523497,0.300545
2026-03-04T20:03:59.207569,0.119641,-13.146167,4.929214,0.431270,-1.321912,0.472809
