Timestamp,Acceleration_X,Acceleration_Y,Acceleration_Z,Gyro_X,Gyro_Y,Gyro_Z
2026-01-24T19:32:32.205635,4.364508,-3.412165,3.072384,-0.280997,2.258979,1.689652
2026-01-24T19:32:32.215635,4.555934,-5.302494,3.144168,-0.260228,2.023185,1.665218
2026-01-24T19:32:32.224635,4.914857,-6.551548,3.105883,0.040317,1.833817,1.560149
2026-01-24T19:32:32.234635,5.230710,-6.747759,3.259024,0.580321,1.727526,1.375668
2026-01-24T19:32:32.243635,5.359922,-5.632704,3.263810,1.149648,1.715309,1.172861
2026-01-24T19:32:32.253635,5.106283,-3.981656,3.268595,1.431867,1.759291,0.996931
2026-01-24T19:32:32.263635,4.646861,-2.493321,3.814159,1.240056,1.767843,0.851545
2026-01-24T19:32:32.272635,4.225724,-1.899901,4.024727,0.718377,1.683544,0.756251
2026-01-24T19:32:32.282635,3.713660,-1.995614,3.866801,0.068416,1.514945,0.747698
2026-01-24T19:32:32.292635,3.311666,-2.665604,4.039084,-0.561995,1.290147,0.728151
2026-01-24T19:32:32.301635,3.297309,-3.842873,4.594219,-1.088561,1.060461,0.663399
2026-01-24T19:32:32.311635,3.225524,-5.446064,5.149354,-1.414763,0.856432,0.590095
2026-01-24T19:32:32.320635,3.268595,-6.876972,5.474778,-1.492954,0.679282,0.497244
2026-01-24T19:32:32.330635,3.278166,-8.001598,5.771488,-1.391550,0.519235,0.372627
2026-01-24T19:32:32.340635,3.440878,-8.714659,6.288337,-1.210734,0.368962,0.228463
2026-01-24T19:32:32.349635,3.493520,-8.882157,6.604190,-0.962723,0.212581,0.075747
2026-01-24T19:32:32.359635,3.608376,-8.470592,6.838686,-0.747698,0.052534,-0.046425
2026-01-24T19:32:32.368635,3.809373,-7.934599,7.092326,-0.742811,-0.087964,-0.145385
2026-01-24T19:32:32.378635,4.034298,-7.824529,7.618747,-0.983492,-0.199142,-0.228463
2026-01-24T19:32:32.388635,4.374079,-8.307880,8.499305,-1.353677,-0.270002,-0.326201
2026-01-24T19:32:32.397635,4.718646,-9.561719,9.470791,-1.799608,-0.302989,-0.426383
2026-01-24T19:32:32.407635,5.115854,-11.772687,9.887142,-2.245540,-0.322536,-0.486248
2026-01-24T19:32:32.417635,5.699703,-14.778072,10.365707,-2.616946,-0.354301,-0.478918
2026-01-24T19:32:32.426635,6.451049,-18.190237,10.734202,-2.801427,-0.375071,-0.438601
2026-01-24T19:32:32.436635,7.235895,-21.176479,10.528419,-2.541198,-0.316428,-0.394618
2026-01-24T19:32:32.445635,7.853243,-22.693529,9.968498,-1.808160,-0.152716,-0.333532
2026-01-24T19:32:32.455635,7.886743,-22.277178,9.633503,-0.922406,0.122173,-0.304210
2026-01-24T19:32:32.465635,7.623532,-20.568703,9.667003,-0.307876,0.425162,-0.326201
2026-01-24T19:32:32.474635,6.862615,-18.530018,9.882357,-0.160046,0.675616,-0.359188
2026-01-24T19:32:32.484635,5.982056,-17.376677,10.346564,-0.471587,0.792902,-0.393397
2026-01-24T19:32:32.493635,5.302494,-17.615959,10.557133,-1.103222,0.720820,-0.463035
2026-01-24T19:32:32.503635,5.101497,-19.353149,10.246066,-1.728748,0.511904,-0.570548
2026-01-24T19:32:32.513635,5.460421,-21.932611,9.724431,-2.085493,0.233350,-0.687834
2026-01-24T19:32:32.522635,6.139982,-24.564716,9.111868,-1.987755,-0.047647,-0.825889
2026-01-24T19:32:32.532635,7.144968,-26.426332,8.604590,-1.433089,-0.290771,-0.935845
2026-01-24T19:32:32.542635,8.145168,-27.101109,7.905885,-0.537561,-0.470366,-1.021366
2026-01-24T19:32:32.551635,9.078368,-26.163122,7.274180,0.553443,-0.568104,-1.091005
2026-01-24T19:32:32.561635,9.667003,-23.775085,6.695117,1.535714,-0.566882,-1.112996
2026-01-24T19:32:32.570635,9.939785,-20.358133,6.728617,2.157575,-0.502131,-1.102000
2026-01-24T19:32:32.580635,9.839286,-16.989040,7.097111,2.318843,-0.436157,-1.075122
2026-01-24T19:32:32.590635,9.705288,-14.160724,7.690531,2.043954,-0.401949,-1.017701
2026-01-24T19:32:32.599635,9.394221,-12.222537,8.307880,1.481958,-0.387288,-0.929736
2026-01-24T19:32:32.609635,9.102297,-11.375478,8.398807,0.819780,-0.381179,-0.831998
2026-01-24T19:32:32.618635,8.819944,-11.533404,8.154739,0.257785,-0.405614,-0.759916
2026-01-24T19:32:32.628635,8.690731,-12.366107,7.499106,-0.089186,-0.485026,-0.752585
2026-01-24T19:32:32.638635,8.757730,-13.663017,7.154539,-0.182037,-0.582765,-0.780685
2026-01-24T19:32:32.647635,9.025726,-14.969498,6.996613,0.028099,-0.642630,-0.824667
2026-01-24T19:32:32.657635,9.164510,-15.830914,6.709474,0.513126,-0.667064,-0.885754
2026-01-24T19:32:32.667635,9.250652,-15.773486,6.269195,1.231504,-0.660956,-0.973718
2026-01-24T19:32:32.676635,9.154939,-14.390435,6.096911,2.025628,-0.605978,-1.065348
2026-01-24T19:32:32.686635,8.805587,-12.212966,5.637490,2.678032,-0.497244,-1.131322
2026-01-24T19:32:32.695635,8.283951,-9.638289,5.489135,3.029890,-0.388510,-1.170417
2026-01-24T19:32:32.705635,7.700103,-7.408178,5.613561,3.062877,-0.323758,-1.187521
2026-01-24T19:32:32.715635,7.140182,-5.527420,5.627918,2.853961,-0.313984,-1.188743
2026-01-24T19:32:32.724635,6.513263,-4.120440,5.493920,2.487442,-0.372627,-1.177747
2026-01-24T19:32:32.734635,5.929414,-3.091526,5.230710,2.018298,-0.498465,-1.159421
2026-01-24T19:32:32.743635,5.594419,-2.536391,5.139782,1.499062,-0.674395,-1.164308
2026-01-24T19:32:32.753635,5.479563,-2.579462,4.843072,0.962723,-0.875980,-1.169195
2026-01-24T19:32:32.763635,5.417350,-3.091526,4.321437,0.498465,-1.087339,-1.161865
2026-01-24T19:32:32.772635,5.623133,-3.962514,3.909872,0.195476,-1.292590,-1.189965
2026-01-24T19:32:32.782635,5.919843,-4.685146,3.876372,0.139277,-1.477071,-1.280373
2026-01-24T19:32:32.792635,6.412764,-4.972285,4.302295,0.328645,-1.599244,-1.424537
2026-01-24T19:32:32.801635,6.728617,-4.493720,4.149154,0.637743,-1.638340,-1.563814
2026-01-24T19:32:32.811635,6.790830,-3.665804,3.555734,0.897971,-1.613905,-1.670105
2026-01-24T19:32:32.820635,6.752545,-2.325823,3.134597,0.977384,-1.554040,-1.766621
2026-01-24T19:32:32.830635,6.398407,-1.062413,2.809173,0.862541,-1.490510,-1.855808
2026-01-24T19:32:32.840635,5.867201,-0.057427,2.431107,0.559552,-1.448972,-1.897347
2026-01-24T19:32:32.849635,5.259424,0.646062,2.038684,0.105068,-1.472184,-1.899790
2026-01-24T19:32:32.859635,4.862215,0.727418,1.612762,-0.422718,-1.573588,-1.887573
2026-01-24T19:32:32.868635,4.469792,0.248853,1.186840,-0.908967,-1.747074,-1.866803
2026-01-24T19:32:32.878635,4.412364,-0.598205,0.789631,-1.220508,-1.952324,-1.865582
2026-01-24T19:32:32.888635,4.383651,-1.440479,0.847059,-1.238834,-2.153910,-1.912007
2026-01-24T19:32:32.897635,4.685146,-1.904686,1.215553,-1.025031,-2.316400,-1.991420
2026-01-24T19:32:32.907635,5.125426,-1.966900,1.502692,-0.711046,-2.412917,-2.065945
2026-01-24T19:32:32.917635,5.407779,-1.708475,1.517049,-0.417831,-2.445903,-2.107484
2026-01-24T19:32:32.926635,5.752345,-1.158126,1.799402,-0.195476,-2.431243,-2.133140
2026-01-24T19:32:32.936635,5.857629,-0.641276,1.775474,-0.119729,-2.379930,-2.128254
2026-01-24T19:32:32.945635,5.824130,-0.162711,1.660618,-0.141720,-2.274861,-2.106262
2026-01-24T19:32:32.955635,5.522634,0.110069,1.387837,-0.234572,-2.108706,-2.064724
2026-01-24T19:32:32.965635,4.957928,0.181854,1.316052,-0.384845,-1.920559,-2.009746
2026-01-24T19:32:32.974635,4.177868,-0.033499,1.234696,-0.544891,-1.754404,-1.930333
2026-01-24T19:32:32.984635,3.235096,-0.722632,1.493121,-0.565661,-1.620014,-1.869247
2026-01-24T19:32:32.993635,2.483749,-1.521835,2.732603,-0.388510,-1.518610,-1.843590
2026-01-24T19:32:33.003635,1.904686,-2.196611,4.043870,-0.054977,-1.430646,-1.809382
2026-01-24T19:32:33.013635,1.478764,-2.641676,4.187439,0.423940,-1.334129,-1.753182
2026-01-24T19:32:33.022635,1.205982,-2.522035,3.866801,0.952949,-1.230282,-1.703091
2026-01-24T19:32:33.032635,1.028913,-1.703689,3.661018,1.321912,-1.149648,-1.683544
2026-01-24T19:32:33.042635,1.038485,-0.564706,3.483949,1.424537,-1.082452,-1.661553
2026-01-24T19:32:33.051635,1.153340,0.464207,3.345165,1.252273,-0.996931,-1.593136
2026-01-24T19:32:33.061635,1.249053,1.186840,2.981456,0.847880,-0.877202,-1.499062
2026-01-24T19:32:33.070635,1.272981,1.416550,2.641676,0.296880,-0.725707,-1.406211
2026-01-24T19:32:33.080635,1.196411,1.210768,2.502892,-0.337197,-0.561995,-1.290147
2026-01-24T19:32:33.090635,1.014556,0.358923,2.723032,-0.933401,-0.431270,-1.159421
2026-01-24T19:32:33.099635,0.937986,-0.818345,2.947957,-1.396437,-0.373849,-1.014036
2026-01-24T19:32:33.109635,1.201196,-2.445464,3.058027,-1.663996,-0.408057,-0.855211
2026-01-24T19:32:33.118635,1.622333,-3.972085,3.297309,-1.699426,-0.499687,-0.708603
2026-01-24T19:32:33.128635,2.545963,-5.053641,3.694518,-1.507615,-0.609643,-0.586430
2026-01-24T19:32:33.138635,3.651447,-5.580062,4.043870,-1.205847,-0.711046,-0.475253
2026-01-24T19:32:33.147635,4.943571,-5.603990,4.053441,-0.888197,-0.799011,-0.372627
2026-01-24T19:32:33.157635,6.302694,-5.441278,3.766302,-0.631634,-0.883310,-0.302989
2026-01-24T19:32:33.167635,7.805387,-5.206781,3.656232,-0.535117,-1.015257,-0.285884
2026-01-24T19:32:33.176635,9.623932,-5.431707,3.617947,-0.592539,-1.254716,-0.289550
2026-01-24T19:32:33.186635,11.935399,-5.962913,3.421736,-0.651182,-1.599244,-0.310319
2026-01-24T19:32:33.195635,14.873785,-6.422335,3.148954,-0.609643,-1.952324,-0.338419
2026-01-24T19:32:33.205635,18.171095,-6.561119,2.732603,-0.509461,-2.105041,-0.361632
2026-01-24T19:32:33.215635,21.042480,-6.388836,1.808973,-0.452040,-1.817934,-0.381179
2026-01-24T19:32:33.224635,22.186251,-6.039484,1.115055,-0.531452,-0.918741,-0.370184
2026-01-24T19:32:33.234635,20.855841,-5.876772,1.124626,-0.750142,0.443488,-0.301767
2026-01-24T19:32:33.243635,17.166109,-6.058626,1.718046,-0.955393,1.733635,-0.152716
2026-01-24T19:32:33.253635,12.557533,-6.226124,2.426322,-0.983492,2.467895,0.035430
2026-01-24T19:32:33.263635,8.575876,-6.111268,3.158525,-0.836885,2.571742,0.232128
2026-01-24T19:32:33.272635,5.517848,-6.159125,3.785445,-0.598647,2.217440,0.445931
2026-01-24T19:32:33.282635,3.943371,-6.116054,4.484149,-0.289550,1.551597,0.689055
2026-01-24T19:32:33.292635,3.675375,-5.953342,4.369294,0.083077,0.686612,0.935845
2026-01-24T19:32:33.301635,4.780859,-5.733202,3.761517,0.420275,-0.195476,1.160643
2026-01-24T19:32:33.311635,7.039684,-5.465206,3.182454,0.653625,-0.867428,1.286481
2026-01-24T19:32:33.320635,9.662217,-5.316851,2.962314,0.821002,-1.127656,1.303586
2026-01-24T19:32:33.330635,11.897113,-5.010570,2.818745,0.979827,-0.943175,1.275486
2026-01-24T19:32:33.340635,13.179666,-4.756931,2.809173,1.134987,-0.422718,1.231504
2026-01-24T19:32:33.349635,13.351950,-4.168296,2.732603,1.262047,0.263893,1.180191
2026-01-24T19:32:33.359635,12.409178,-3.479164,2.876172,1.320690,0.940732,1.143539
2026-01-24T19:32:33.368635,10.738987,-2.833101,3.239881,1.284038,1.446528,1.111774
2026-01-24T19:32:33.378635,8.910871,-2.258824,3.273381,1.160643,1.682322,1.112996
2026-01-24T19:32:33.388635,7.369893,-1.928615,3.043670,0.976162,1.649335,1.152091
2026-01-24T19:32:33.397635,6.331408,-1.684547,2.895315,0.744033,1.423315,1.205847
2026-01-24T19:32:33.407635,5.958128,-1.655833,2.761317,0.488692,1.106887,1.265712
2026-01-24T19:32:33.417635,6.106483,-1.785045,2.541177,0.239459,0.813672,1.335351
2026-01-24T19:32:33.426635,6.580262,-2.096112,2.340180,0.035430,0.619417,1.397659
2026-01-24T19:32:33.436635,7.054041,-2.368894,2.014756,-0.105068,0.569326,1.437976
2026-01-24T19:32:33.445635,7.274180,-2.751745,1.808973,-0.164933,0.675616,1.468519
2026-01-24T19:32:33.455635,7.130611,-3.014956,1.641476,-0.150272,0.891863,1.496619
2026-01-24T19:32:33.465635,6.398407,-3.043670,1.416550,-0.089186,1.143539,1.546710
2026-01-24T19:32:33.474635,5.383850,-3.077169,1.105484,-0.006108,1.356120,1.626122
2026-01-24T19:32:33.484635,4.287938,-3.038884,0.823130,0.078190,1.478293,1.723861
2026-01-24T19:32:33.493635,3.129811,-2.833101,0.363709,0.190589,1.507615,1.833817
2026-01-24T19:32:33.503635,2.258824,-2.617747,0.162711,0.307876,1.446528,1.955990
2026-01-24T19:32:33.513635,1.387837,-2.230110,0.167497,0.371405,1.324355,2.103819
2026-01-24T19:32:33.522635,0.952343,-1.966900,0.291924,0.415388,1.159421,2.266309
2026-01-24T19:32:33.532635,0.703489,-1.718046,0.535992,0.488692,0.945619,2.420247
2026-01-24T19:32:33.542635,0.870987,-1.536192,0.880558,0.548556,0.709825,2.561968
2026-01-24T19:32:33.551635,1.316052,-1.646261,1.019342,0.593760,0.494800,2.685363
2026-01-24T19:32:33.561635,2.048256,-1.799402,1.383051,0.717155,0.348193,2.761110
2026-01-24T19:32:33.570635,2.804388,-1.871187,1.560120,0.879645,0.298102,2.796540
2026-01-24T19:32:33.580635,3.445664,-1.981257,1.359123,1.087339,0.340862,2.808757
2026-01-24T19:32:33.590635,3.943371,-1.789831,1.430907,1.342681,0.467922,2.787988
2026-01-24T19:32:33.599635,4.235296,-1.354337,1.694118,1.560149,0.646295,2.719571
2026-01-24T19:32:33.609635,4.331008,-0.909272,1.933400,1.727526,0.844215,2.630385
2026-01-24T19:32:33.618635,4.316651,-0.421136,2.191825,1.817934,1.014036,2.548529
2026-01-24T19:32:33.628635,4.292723,-0.028713,2.215753,1.815491,1.154535,2.470338
2026-01-24T19:32:33.638635,4.216153,0.172283,2.349751,1.739743,1.273042,2.382373
2026-01-24T19:32:33.647635,4.144368,0.287138,2.282752,1.598023,1.374446,2.288300
2026-01-24T19:32:33.657635,4.168296,0.215354,2.426322,1.422093,1.445306,2.188118
2026-01-24T19:32:33.667635,4.311866,-0.129212,2.660818,1.241277,1.479515,2.090380
2026-01-24T19:32:33.676635,4.632504,-0.847059,2.866601,1.067792,1.481958,1.999972
2026-01-24T19:32:33.686635,5.101497,-1.617548,2.770888,0.970053,1.466076,1.925446
2026-01-24T19:32:33.695635,5.656632,-2.134397,2.718246,0.974940,1.469741,1.844812
2026-01-24T19:32:33.705635,6.273980,-2.378465,2.809173,1.014036,1.521054,1.743409
2026-01-24T19:32:33.715635,6.652046,-2.297109,2.895315,1.062905,1.653000,1.628566
2026-01-24T19:32:33.724635,6.728617,-1.727617,2.981456,1.139874,1.853364,1.488067
2026-01-24T19:32:33.734635,6.297909,-0.856630,2.914457,1.116661,2.083050,1.330464
2026-01-24T19:32:33.743635,5.455635,-0.100498,2.823530,0.902858,2.283413,1.170417
2026-01-24T19:32:33.753635,4.354937,0.373280,2.478964,0.565661,2.387260,1.021366
2026-01-24T19:32:33.763635,3.153740,0.650847,2.287538,0.172263,2.354274,0.879645
2026-01-24T19:32:33.772635,2.000399,0.492921,2.421536,-0.268780,2.155132,0.742811
2026-01-24T19:32:33.782635,1.306481,-0.004785,2.636890,-0.676838,1.814269,0.632856
2026-01-24T19:32:33.792635,0.894915,-0.803988,2.756531,-0.977384,1.379333,0.524122
2026-01-24T19:32:33.801635,1.067198,-1.674975,2.967100,-1.153313,0.908967,0.388510
2026-01-24T19:32:33.811635,1.536192,-2.545963,3.239881,-1.274264,0.461814,0.245567
2026-01-24T19:32:33.820635,2.167897,-3.206382,3.110669,-1.319468,0.102625,0.084299
2026-01-24T19:32:33.830635,2.646461,-3.426521,3.077169,-1.271821,-0.139277,-0.119729
2026-01-24T19:32:33.840635,2.909672,-3.345165,3.282952,-1.247386,-0.266337,-0.368962
2026-01-24T19:32:33.849635,2.971885,-3.474378,3.967299,-1.310916,-0.357966,-0.649960
2026-01-24T19:32:33.859635,2.971885,-3.890729,5.063212,-1.486845,-0.502131,-0.919962
2026-01-24T19:32:33.868635,3.072384,-5.245067,6.484549,-1.685987,-0.751364,-1.172861
2026-01-24T19:32:33.878635,3.795016,-6.862615,7.489534,-1.761734,-1.095892,-1.428202
2026-01-24T19:32:33.888635,4.905286,-8.915657,8.786444,-1.805717,-1.510058,-1.626122
2026-01-24T19:32:33.897635,6.704688,-11.093125,9.652646,-1.915672,-1.965763,-1.753182
2026-01-24T19:32:33.907635,8.977870,-13.131810,9.499505,-1.986533,-2.393369,-1.809382
2026-01-24T19:32:33.917635,11.251051,-14.543575,8.542376,-1.879021,-2.674367,-1.825264
2026-01-24T19:32:33.926635,13.380663,-15.165709,7.503891,-1.740965,-2.758666,-1.810604
2026-01-24T19:32:33.936635,15.270993,-15.859628,6.910471,-1.925446,-2.659706,-1.717752
2026-01-24T19:32:33.945635,17.089539,-17.568104,7.369893,-2.516764,-2.450790,-1.533271
2026-01-24T19:32:33.955635,18.807585,-20.310278,8.748159,-3.147177,-2.182010,-1.342681
2026-01-24T19:32:33.965635,20.123638,-23.248665,9.901499,-3.469713,-1.847256,-1.166752
2026-01-24T19:32:33.974635,20.908484,-26.455046,10.394421,-3.457496,-1.495397,-1.036027
2026-01-24T19:32:33.984635,21.578474,-29.489145,10.336993,-3.100751,-1.187521,-1.009149
2026-01-24T19:32:33.993635,21.946968,-31.527830,10.073783,-2.251648,-0.891863,-1.082452
2026-01-24T19:32:34.003635,21.789042,-31.992039,9.317651,-1.027475,-0.540004,-1.208291
2026-01-24T19:32:34.013635,21.133410,-30.829126,8.456235,0.194255,-0.122173,-1.340238
2026-01-24T19:32:34.022635,20.013569,-28.694729,7.968099,1.240056,0.237015,-1.473406
2026-01-24T19:32:34.032635,18.922441,-25.545774,7.977670,2.037846,0.427605,-1.594357
2026-01-24T19:32:34.042635,17.850456,-21.961325,7.896314,2.455677,0.452040,-1.689652
2026-01-24T19:32:34.051635,17.118252,-18.587444,7.853243,2.395812,0.349414,-1.729969
2026-01-24T19:32:34.061635,16.764114,-16.108480,8.063812,1.888794,0.189368,-1.696983
2026-01-24T19:32:34.070635,16.797613,-14.806786,8.355736,1.106887,0.040317,-1.583362
2026-01-24T19:32:34.080635,16.922041,-14.438291,8.346165,0.353080,-0.035430,-1.414763
2026-01-24T19:32:34.090635,16.869398,-14.830714,8.135596,-0.168598,0.000000,-1.226617
2026-01-24T19:32:34.099635,16.615761,-15.448062,7.566105,-0.375071,0.113620,-1.064127
2026-01-24T19:32:34.109635,15.931412,-15.984054,7.010970,-0.228463,0.298102,-0.945619
2026-01-24T19:32:34.118635,14.931213,-15.869199,6.589833,0.232128,0.508239,-0.868650
2026-01-24T19:32:34.128635,13.792229,-15.079568,6.522834,0.868650,0.686612,-0.836885
2026-01-24T19:32:34.138635,12.533604,-13.543375,6.924828,1.530827,0.781907,-0.849102
2026-01-24T19:32:34.147635,11.499905,-11.595618,7.207181,2.073276,0.757472,-0.850324
2026-01-24T19:32:34.157635,10.648060,-9.451649,7.154539,2.389704,0.619417,-0.817337
2026-01-24T19:32:34.167635,10.179067,-7.542176,7.058826,2.459342,0.408057,-0.773355
2026-01-24T19:32:34.176635,10.030712,-5.852844,6.637689,2.315178,0.196698,-0.733038
2026-01-24T19:32:34.186635,9.934999,-4.498506,6.044269,1.997528,0.063529,-0.682947
2026-01-24T19:32:34.195635,9.729216,-3.656232,5.479563,1.552819,0.036651,-0.643851
2026-01-24T19:32:34.205635,9.403792,-3.254238,4.972285,1.027475,0.094073,-0.613308
2026-01-24T19:32:34.215635,8.910871,-3.608376,4.335794,0.518013,0.169820,-0.569326
2026-01-24T19:32:34.224635,8.269594,-4.441078,3.809373,0.153938,0.188146,-0.537561
2026-01-24T19:32:34.234635,7.575676,-5.388636,3.479164,0.023212,0.122173,-0.541226
2026-01-24T19:32:34.243635,7.097111,-6.183053,3.306880,0.147829,-0.006108,-0.588873
2026-01-24T19:32:34.253635,6.757331,-6.451049,3.182454,0.478918,-0.164933,-0.662177
2026-01-24T19:32:34.263635,6.527620,-6.068198,3.081955,0.915075,-0.320093,-0.762359
2026-01-24T19:32:34.272635,6.321837,-5.125426,2.919243,1.324355,-0.460592,-0.862541
2026-01-24T19:32:34.282635,6.206981,-3.938585,2.718246,1.569923,-0.582765,-0.928514
2026-01-24T19:32:34.292635,6.053841,-2.689532,2.617747,1.602910,-0.693942,-0.945619
2026-01-24T19:32:34.301635,5.867201,-1.612762,2.545963,1.455080,-0.785572,-0.935845
2026-01-24T19:32:34.311635,5.656632,-0.885344,2.598605,1.191186,-0.868650,-0.907745
2026-01-24T19:32:34.320635,5.436492,-0.545563,2.478964,0.889419,-0.922406,-0.868650
2026-01-24T19:32:34.330635,5.134997,-0.497707,2.388036,0.620638,-0.955393,-0.821002
2026-01-24T19:32:34.340635,4.780859,-0.641276,2.431107,0.433714,-0.972497,-0.778242
2026-01-24T19:32:34.349635,4.493720,-0.722632,2.545963,0.362853,-0.981049,-0.767246
2026-01-24T19:32:34.359635,4.153940,-0.602991,2.517249,0.349414,-0.976162,-0.773355
2026-01-24T19:32:34.368635,3.895515,-0.296710,2.225325,0.304210,-0.951727,-0.758694
2026-01-24T19:32:34.378635,3.503092,-0.023928,1.895115,0.226020,-0.905302,-0.744033
2026-01-24T19:32:34.388635,3.053241,0.277567,1.502692,0.086742,-0.839328,-0.720820
2026-01-24T19:32:34.397635,2.464607,0.315852,1.091127,-0.101403,-0.758694,-0.689055
2026-01-24T19:32:34.407635,1.775474,0.095712,0.655633,-0.270002,-0.670729,-0.649960
2026-01-24T19:32:34.417635,1.067198,-0.521635,0.406779,-0.382401,-0.576656,-0.583987
2026-01-24T19:32:34.426635,0.291924,-1.397408,0.397208,-0.376292,-0.510683,-0.511904
2026-01-24T19:32:34.436635,-0.507278,-2.153540,0.713061,-0.167377,-0.477696,-0.472809
2026-01-24T19:32:34.445635,-1.167697,-2.450250,1.335195,0.251676,-0.488692,-0.459370
2026-01-24T19:32:34.455635,-1.641476,-2.163111,1.962114,0.811228,-0.535117,-0.466700
2026-01-24T19:32:34.465635,-1.957328,-1.134197,2.043470,1.347568,-0.593760,-0.469144
2026-01-24T19:32:34.474635,-1.986042,0.301495,1.966900,1.688431,-0.642630,-0.474031
2026-01-24T19:32:34.484635,-1.923829,1.670190,2.072184,1.744630,-0.669508,-0.500909
2026-01-24T19:32:34.493635,-1.746760,2.938386,2.081755,1.522275,-0.660956,-0.529009
2026-01-24T19:32:34.503635,-1.607976,3.627519,1.976471,1.055574,-0.623082,-0.532674
2026-01-24T19:32:34.513635,-1.459621,3.814159,1.904686,0.411723,-0.579100,-0.521678
2026-01-24T19:32:34.522635,-1.402194,3.326023,1.674975,-0.284663,-0.537561,-0.508239
2026-01-24T19:32:34.532635,-1.311266,2.273181,1.531406,-0.896749,-0.513126,-0.485026
2026-01-24T19:32:34.542635,-1.182054,0.933200,1.435693,-1.301142,-0.510683,-0.478918
2026-01-24T19:32:34.551635,-1.004985,-0.349352,1.450050,-1.468519,-0.527787,-0.486248
2026-01-24T19:32:34.561635,-0.722632,-1.450050,1.574477,-1.442863,-0.568104,-0.491135
2026-01-24T19:32:34.570635,-0.387637,-2.292324,1.861615,-1.280373,-0.640186,-0.499687
2026-01-24T19:32:34.580635,0.200997,-2.708675,2.096112,-1.051909,-0.735481,-0.510683
2026-01-24T19:32:34.590635,0.847059,-2.900100,2.469392,-0.831998,-0.844215,-0.514348
2026-01-24T19:32:34.599635,1.741974,-2.981456,2.933600,-0.701273,-0.971275,-0.491135
2026-01-24T19:32:34.609635,2.790031,-3.259024,3.560520,-0.678060,-1.143539,-0.445931
2026-01-24T19:32:34.618635,4.106083,-3.747160,4.125226,-0.740368,-1.375668,-0.372627
2026-01-24T19:32:34.628635,5.718846,-4.632504,4.699503,-0.790459,-1.657887,-0.298102
2026-01-24T19:32:34.638635,7.810172,-5.541777,5.245067,-0.745255,-1.954768,-0.262671
2026-01-24T19:32:34.647635,10.432706,-6.537191,5.584847,-0.542448,-2.229657,-0.312762
2026-01-24T19:32:34.657635,13.284951,-7.283751,5.704489,-0.233350,-2.460564,-0.421496
2026-01-24T19:32:34.667635,16.515261,-7.633104,5.666203,0.109955,-2.613280,-0.544891
2026-01-24T19:32:34.676635,19.970497,-7.460820,5.178068,0.452040,-2.630385,-0.634077
2026-01-24T19:32:34.686635,23.243877,-6.561119,4.043870,0.682947,-2.348165,-0.663399
2026-01-24T19:32:34.695635,25.129421,-5.402993,2.421536,0.649960,-1.550375,-0.637743
2026-01-24T19:32:34.705635,24.406790,-4.019941,1.641476,0.287106,-0.160046,-0.590095
2026-01-24T19:32:34.715635,20.779270,-3.340380,1.938186,-0.312762,1.474628,-0.498465
2026-01-24T19:32:34.724635,15.419348,-3.268595,2.550748,-0.896749,2.730567,-0.309097
2026-01-24T19:32:34.734635,10.097711,-3.407379,3.058027,-1.314581,3.277902,-0.053756
2026-01-24T19:32:34.743635,5.431707,-3.914657,3.689732,-1.517388,3.241250,0.205250
2026-01-24T19:32:34.753635,1.718046,-4.426721,4.340580,-1.474628,2.814866,0.448374
2026-01-24T19:32:34.763635,-0.847059,-4.957928,4.943571,-1.197295,2.059837,0.659734
2026-01-24T19:32:34.772635,-1.866401,-5.312066,5.173282,-0.724486,1.055574,0.813672
2026-01-24T19:32:34.782635,-1.167697,-5.307280,5.096712,-0.141720,-0.012217,0.907745
2026-01-24T19:32:34.792635,0.794417,-4.910071,4.862215,0.389731,-0.927293,0.934623
2026-01-24T19:32:34.801635,3.493520,-4.479363,4.713860,0.757472,-1.507615,0.895528
2026-01-24T19:32:34.811635,6.159125,-4.067798,4.469792,0.959058,-1.693318,0.803898
2026-01-24T19:32:34.820635,8.370093,-3.627519,4.139583,1.044579,-1.524719,0.659734
2026-01-24T19:32:34.830635,9.868000,-3.201596,3.933800,1.036027,-1.076344,0.489913
2026-01-24T19:32:34.840635,10.466206,-2.804388,3.952942,0.951727,-0.463035,0.332310
2026-01-24T19:32:34.849635,10.097711,-2.416750,3.809373,0.824667,0.172263,0.208915
2026-01-24T19:32:34.859635,8.853443,-2.057827,3.842873,0.663399,0.713490,0.122173
2026-01-24T19:32:34.868635,7.245466,-1.909472,3.833301,0.441044,1.058018,0.083077
2026-01-24T19:32:34.878635,5.589633,-2.024327,3.627519,0.183259,1.155756,0.095294
2026-01-24T19:32:34.888635,4.388436,-2.311466,3.541377,-0.054977,1.045801,0.156381
2026-01-24T19:32:34.897635,3.680161,-2.723032,3.455235,-0.250454,0.814894,0.245567
2026-01-24T19:32:34.907635,3.584448,-3.230310,3.579662,-0.367740,0.569326,0.357966
2026-01-24T19:32:34.917635,3.747160,-3.637090,3.598805,-0.376292,0.395840,0.482583
2026-01-24T19:32:34.926635,4.173082,-3.790230,3.503092,-0.289550,0.349414,0.619417
2026-01-24T19:32:34.936635,4.498506,-3.751945,3.158525,-0.156381,0.448374,0.752585
2026-01-24T19:32:34.945635,4.460221,-3.517449,3.067598,0.004886,0.675616,0.857654
2026-01-24T19:32:34.955635,4.134797,-3.115455,3.172882,0.125838,0.961501,0.959058
2026-01-24T19:32:34.965635,3.550948,-2.890529,2.991028,0.179594,1.219286,1.087339
2026-01-24T19:32:34.974635,2.904886,-2.909672,2.823530,0.233350,1.386663,1.227838
2026-01-24T19:32:34.984635,2.321037,-2.909672,2.723032,0.282219,1.451415,1.367116
2026-01-24T19:32:34.993635,2.014756,-2.904886,2.474178,0.350636,1.430646,1.494176
2026-01-24T19:32:35.003635,1.957328,-2.790031,2.268395,0.464257,1.361007,1.615127
2026-01-24T19:32:35.013635,2.215753,-2.359323,2.206182,0.594982,1.282816,1.700648
2026-01-24T19:32:35.022635,2.565105,-1.861615,2.153540,0.667064,1.240056,1.770287
2026-01-24T19:32:35.032635,2.933600,-1.440479,2.115255,0.664621,1.258382,1.822821
2026-01-24T19:32:35.042635,3.297309,-1.167697,2.273181,0.608421,1.331685,1.838703
2026-01-24T19:32:35.051635,3.507877,-1.033699,2.612962,0.508239,1.433089,1.827708
2026-01-24T19:32:35.061635,3.613162,-1.000199,2.823530,0.387288,1.532049,1.803273
2026-01-24T19:32:35.070635,3.627519,-1.086341,2.914457,0.305432,1.605353,1.749517
2026-01-24T19:32:35.080635,3.608376,-1.148554,2.871387,0.267558,1.637118,1.671326
2026-01-24T19:32:35.090635,3.469592,-1.086341,2.828316,0.262671,1.639561,1.577253
2026-01-24T19:32:35.099635,3.460021,-1.071984,2.866601,0.284663,1.627344,1.456302
2026-01-24T19:32:35.109635,3.316452,-1.019342,2.842673,0.310319,1.605353,1.331685
2026-01-24T19:32:35.118635,3.263810,-0.842273,2.593819,0.335975,1.555262,1.226617
2026-01-24T19:32:35.128635,3.249453,-0.564706,2.469392,0.340862,1.490510,1.127656
2026-01-24T19:32:35.138635,3.196810,-0.248853,2.378465,0.310319,1.423315,1.027475
2026-01-24T19:32:35.147635,3.201596,0.000000,2.455035,0.230907,1.369559,0.941954
2026-01-24T19:32:35.157635,3.263810,0.062213,2.589034,0.102625,1.320690,0.880867
2026-01-24T19:32:35.167635,3.340380,-0.210568,2.703889,-0.021991,1.249830,0.824667
2026-01-24T19:32:35.176635,3.464807,-0.512064,2.258824,-0.105068,1.133765,0.785572
2026-01-24T19:32:35.186635,3.728017,-0.847059,1.866401,-0.174707,0.973718,0.759916
2026-01-24T19:32:35.195635,4.086941,-1.244267,1.641476,-0.261450,0.802676,0.729372
2026-01-24T19:32:35.205635,4.522434,-1.660618,1.560120,-0.322536,0.648738,0.689055
2026-01-24T19:32:35.215635,5.053641,-1.923829,1.995614,-0.386066,0.526565,0.652403
2026-01-24T19:32:35.224635,5.623133,-2.344966,2.364108,-0.514348,0.432492,0.630412
2026-01-24T19:32:35.234635,6.053841,-2.861815,2.727817,-0.676838,0.381179,0.618195
2026-01-24T19:32:35.243635,6.336194,-3.560520,3.105883,-0.835663,0.349414,0.594982
2026-01-24T19:32:35.253635,6.561119,-4.335794,3.450450,-0.941954,0.274889,0.563217
2026-01-24T19:32:35.263635,6.915257,-5.154139,3.828516,-0.989601,0.135612,0.552222
2026-01-24T19:32:35.272635,7.341179,-6.106483,4.331008,-0.989601,-0.029321,0.555887
2026-01-24T19:32:35.282635,7.886743,-7.197610,4.876572,-0.921184,-0.161268,0.552222
2026-01-24T19:32:35.292635,8.446663,-8.097311,5.398207,-0.761137,-0.228463,0.537561
2026-01-24T19:32:35.301635,9.025726,-8.700302,6.044269,-0.553443,-0.226020,0.522900
2026-01-24T19:32:35.311635,9.384650,-8.867800,6.747759,-0.395840,-0.156381,0.508239
2026-01-24T19:32:35.320635,9.585647,-8.781658,7.326822,-0.313984,-0.041538,0.491135
2026-01-24T19:32:35.330635,9.585647,-8.231309,8.078169,-0.348193,0.075747,0.489913
2026-01-24T19:32:35.340635,9.399007,-7.877171,8.738588,-0.593760,0.171042,0.503352
2026-01-24T19:32:35.349635,9.308079,-8.020741,9.255437,-1.022588,0.235793,0.525343
2026-01-24T19:32:35.359635,9.116654,-8.719445,9.504291,-1.544267,0.251676,0.557108
2026-01-24T19:32:35.368635,9.092725,-10.064211,9.595218,-2.062280,0.212581,0.564439
2026-01-24T19:32:35.378635,9.207581,-11.854043,9.834500,-2.493551,0.129503,0.518013
2026-01-24T19:32:35.388635,9.509077,-13.993226,9.982855,-2.794097,0.028099,0.431270
2026-01-24T19:32:35.397635,9.954142,-15.917055,10.332207,-2.961474,-0.084299,0.343306
2026-01-24T19:32:35.407635,10.494919,-17.888741,10.968698,-3.006678,-0.211359,0.221133
2026-01-24T19:32:35.417635,11.097911,-19.649858,11.303693,-2.963917,-0.343306,0.085521
2026-01-24T19:32:35.426635,11.830114,-21.516260,11.404192,-2.913826,-0.496022,0.006108
2026-01-24T19:32:35.436635,12.514462,-23.708086,11.452048,-2.851518,-0.689055,-0.057421
2026-01-24T19:32:35.445635,13.414163,-26.000410,11.949756,-2.690249,-0.934623,-0.128281
2026-01-24T19:32:35.455635,14.610574,-28.010382,12.624532,-2.353052,-1.219286,-0.244346
2026-01-24T19:32:35.465635,16.223337,-29.498716,13.040883,-1.717752,-1.441641,-0.398284
2026-01-24T19:32:35.474635,17.749958,-29.513073,12.452248,-0.878424,-1.447750,-0.529009
2026-01-24T19:32:35.484635,18.544374,-28.120451,10.796415,-0.100181,-1.183856,-0.607199
2026-01-24T19:32:35.493635,18.486946,-25.593630,9.375078,0.475253,-0.733038,-0.689055
2026-01-24T19:32:35.503635,17.745173,-22.468603,8.599804,0.701273,-0.179594,-0.752585
2026-01-24T19:32:35.513635,16.118053,-19.554146,7.570890,0.503352,0.395840,-0.758694
2026-01-24T19:32:35.522635,14.136795,-17.462818,6.618547,0.024434,0.779463,-0.722042
2026-01-24T19:32:35.532635,12.404392,-16.199409,5.838487,-0.552222,0.846659,-0.670729
2026-01-24T19:32:35.542635,11.045269,-15.859628,5.000999,-0.982271,0.698829,-0.619417
2026-01-24T19:32:35.551635,10.140782,-15.778272,4.249652,-1.082452,0.496022,-0.601091
2026-01-24T19:32:35.561635,9.437292,-15.610774,3.938585,-0.899193,0.306654,-0.659734
2026-01-24T19:32:35.570635,9.049655,-15.424134,4.398007,-0.513126,0.111177,-0.795346
2026-01-24T19:32:35.580635,8.973084,-15.036497,4.847858,0.079412,-0.098960,-0.951727
2026-01-24T19:32:35.590635,9.255437,-14.103296,5.020141,0.833220,-0.300545,-1.106887
2026-01-24T19:32:35.599635,9.494720,-12.667602,4.800002,1.567479,-0.466700,-1.252273
2026-01-24T19:32:35.609635,9.834500,-10.896914,4.455435,2.113593,-0.569326,-1.382998
2026-01-24T19:32:35.618635,10.035497,-9.159724,4.024727,2.389704,-0.574213,-1.484402
2026-01-24T19:32:35.628635,10.001998,-7.484749,3.460021,2.410473,-0.502131,-1.563814
2026-01-24T19:32:35.638635,9.714859,-6.159125,3.024527,2.193005,-0.419053,-1.622457
2026-01-24T19:32:35.647635,9.221938,-5.292923,2.986242,1.798386,-0.364075,-1.661553
2026-01-24T19:32:35.657635,8.647660,-4.905286,3.067598,1.358564,-0.361632,-1.693318
2026-01-24T19:32:35.667635,8.011170,-4.675575,3.201596,0.979827,-0.417831,-1.707978
2026-01-24T19:32:35.676635,7.503891,-4.776073,3.192025,0.693942,-0.526565,-1.716530
2026-01-24T19:32:35.686635,7.020541,-4.871786,3.354737,0.529009,-0.684168,-1.764178
2026-01-24T19:32:35.695635,6.829115,-4.924428,3.493520,0.480139,-0.883310,-1.820378
2026-01-24T19:32:35.705635,6.814758,-4.766502,3.335594,0.510683,-1.123991,-1.880242
2026-01-24T19:32:35.715635,6.982256,-4.388436,3.196810,0.544891,-1.381776,-1.937664
2026-01-24T19:32:35.724635,7.393821,-4.005585,3.038884,0.541226,-1.588249,-2.004859
2026-01-24T19:32:35.734635,7.767102,-3.670589,2.780459,0.505796,-1.701870,-2.065945
2026-01-24T19:32:35.743635,8.197810,-3.498306,2.603390,0.444709,-1.718974,-2.112371
2026-01-24T19:32:35.753635,8.403592,-3.373879,2.708675,0.390953,-1.657887,-2.157575
2026-01-24T19:32:35.763635,8.274380,-3.278166,2.890529,0.388510,-1.529606,-2.185675
2026-01-24T19:32:35.772635,7.858029,-3.211167,2.694318,0.447153,-1.364672,-2.177123
2026-01-24T19:32:35.782635,7.183253,-2.895315,2.584248,0.542448,-1.200960,-2.163684
2026-01-24T19:32:35.792635,6.350551,-2.502892,2.775674,0.624304,-1.069013,-2.146580
2026-01-24T19:32:35.801635,5.484349,-2.096112,2.608176,0.669508,-0.979827,-2.090380
2026-01-24T19:32:35.811635,4.661218,-1.612762,2.392822,0.692721,-0.946840,-1.999972
2026-01-24T19:32:35.820635,3.799802,-1.100698,2.340180,0.668286,-0.951727,-1.898568
2026-01-24T19:32:35.830635,2.947957,-0.665204,2.115255,0.585208,-0.965166,-1.777617
2026-01-24T19:32:35.840635,2.234896,-0.138783,2.124826,0.455705,-0.967610,-1.654222
2026-01-24T19:32:35.849635,1.555334,0.215354,2.321037,0.272445,-0.960279,-1.557706
2026-01-24T19:32:35.859635,0.947557,0.354137,2.321037,0.030543,-0.949284,-1.462411
2026-01-24T19:32:35.868635,0.330209,0.143569,2.100898,-0.216246,-0.944397,-1.370781
2026-01-24T19:32:35.878635,-0.129212,-0.339780,1.646261,-0.442266,-0.977384,-1.298699
2026-01-24T19:32:35.888635,-0.358923,-1.115055,1.397408,-0.620638,-1.059240,-1.244943
2026-01-24T19:32:35.897635,-0.430708,-2.005185,1.344766,-0.667064,-1.144761,-1.205847
2026-01-24T19:32:35.907635,-0.464207,-2.785245,1.536192,-0.541226,-1.210734,-1.189965
2026-01-24T19:32:35.917635,-0.325423,-3.182454,1.689332,-0.265115,-1.232725,-1.203404
2026-01-24T19:32:35.926635,-0.267996,-3.297309,1.880758,0.075747,-1.198517,-1.211956
2026-01-24T19:32:35.936635,-0.325423,-3.010170,2.440679,0.436157,-1.120326,-1.221730
2026-01-24T19:32:35.945635,-0.368494,-2.440679,2.909672,0.724486,-1.033583,-1.224173
2026-01-24T19:32:35.955635,-0.373280,-1.785045,3.115455,0.895528,-0.960279,-1.196073
2026-01-24T19:32:35.965635,-0.411565,-1.115055,3.215953,0.932180,-0.906523,-1.152091
2026-01-24T19:32:35.974635,-0.244067,-0.354137,3.215953,0.800233,-0.868650,-1.103222
2026-01-24T19:32:35.984635,0.043070,0.124426,3.053241,0.494800,-0.830776,-1.029918
2026-01-24T19:32:35.993635,0.306281,0.172283,3.172882,0.064751,-0.785572,-0.950506
2026-01-24T19:32:36.003635,0.526420,-0.052642,3.354737,-0.340862,-0.704938,-0.923628
2026-01-24T19:32:36.013635,1.062413,-0.052642,3.761517,-0.739146,-0.575434,-0.893084
2026-01-24T19:32:36.022635,1.607976,-1.253839,3.823730,-1.313359,-0.593760,-0.701273
2026-01-24T19:32:36.032635,2.120040,-3.072384,3.527020,-1.634675,-0.569326,-0.566882
2026-01-24T19:32:36.042635,2.670390,-4.393222,3.536591,-1.541823,-0.538783,-0.493579
2026-01-24T19:32:36.051635,3.259024,-5.436492,3.507877,-1.350011,-0.538783,-0.392175
2026-01-24T19:32:36.061635,3.919443,-6.551548,3.416950,-1.121548,-0.619417,-0.267558
2026-01-24T19:32:36.070635,4.919643,-7.331608,3.512663,-0.706160,-0.725707,-0.169820
2026-01-24T19:32:36.080635,6.020341,-7.609175,3.517449,-0.185702,-0.802676,-0.096516
2026-01-24T19:32:36.090635,7.264609,-7.513462,3.570091,0.259006,-0.880867,-0.023212
2026-01-24T19:32:36.099635,8.767302,-7.197610,3.699303,0.621860,-0.996931,0.039095
2026-01-24T19:32:36.109635,10.475777,-6.317051,3.857230,0.967610,-1.028696,-0.001221
2026-01-24T19:32:36.118635,12.093325,-5.603990,3.986442,0.983492,-0.970053,-0.001221
2026-01-24T19:32:36.128635,13.763515,-5.479563,3.747160,0.813672,-1.040914,0.058643
2026-01-24T19:32:36.138635,15.653845,-5.484349,3.297309,0.680503,-1.175304,0.079412
2026-01-24T19:32:36.147635,17.726028,-5.426921,2.943171,0.499687,-1.282816,0.063529
2026-01-24T19:32:36.157635,19.807785,-5.647061,2.656033,0.215024,-1.249830,0.037873
2026-01-24T19:32:36.167635,21.363119,-5.943771,2.574677,-0.064751,-0.943175,0.037873
2026-01-24T19:32:36.176635,21.722042,-6.168696,2.813959,-0.261450,-0.278554,0.069638
2026-01-24T19:32:36.186635,20.377277,-6.331408,2.842673,-0.410501,0.658512,0.171042
2026-01-24T19:32:36.195635,17.362320,-6.498906,2.957528,-0.474031,1.568701,0.338419
2026-01-24T19:32:36.205635,13.854442,-6.364908,3.053241,-0.416610,2.161240,0.546113
2026-01-24T19:32:36.215635,10.537990,-6.049055,2.794816,-0.274889,2.366491,0.785572
2026-01-24T19:32:36.224635,7.848458,-5.718846,2.617747,-0.065973,2.263866,1.031140
2026-01-24T19:32:36.234635,5.962913,-5.302494,2.665604,0.180816,1.941329,1.259603
2026-01-24T19:32:36.243635,4.895715,-4.938785,2.660818,0.436157,1.472184,1.474628
2026-01-24T19:32:36.253635,4.847858,-4.565505,2.727817,0.660956,0.941954,1.684765
2026-01-24T19:32:36.263635,5.417350,-4.240081,2.584248,0.835663,0.470366,1.853364
2026-01-24T19:32:36.272635,6.580262,-4.067798,2.383251,0.979827,0.169820,1.965763
2026-01-24T19:32:36.282635,7.767102,-3.795016,2.239681,1.100778,0.108733,2.034180
2026-01-24T19:32:36.292635,8.599804,-3.555734,2.201396,1.198517,0.273667,2.070832
2026-01-24T19:32:36.301635,8.891728,-3.239881,2.349751,1.307251,0.596204,2.073276
2026-01-24T19:32:36.311635,8.590233,-2.723032,2.445464,1.391550,0.978605,2.074497
2026-01-24T19:32:36.320635,7.695317,-2.215753,2.306680,1.407433,1.335351,2.096489
2026-01-24T19:32:36.330635,6.637689,-1.655833,2.148754,1.370781,1.601688,2.123367
2026-01-24T19:32:36.340635,5.441278,-1.225125,1.990828,1.287703,1.751961,2.157575
2026-01-24T19:32:36.349635,4.340580,-0.899701,1.804188,1.148426,1.786169,2.221105
2026-01-24T19:32:36.359635,3.493520,-0.713061,1.627119,0.982271,1.733635,2.311513
2026-01-24T19:32:36.368635,2.919243,-0.641276,1.574477,0.813672,1.629788,2.408030
2026-01-24T19:32:36.378635,2.550748,-0.674775,1.497906,0.664621,1.512502,2.510655
2026-01-24T19:32:36.388635,2.483749,-0.655633,1.177268,0.587652,1.422093,2.608394
2026-01-24T19:32:36.397635,2.483749,-0.617348,1.033699,0.549778,1.369559,2.695136
2026-01-24T19:32:36.407635,2.612962,-0.526420,0.746560,0.527787,1.351233,2.774549
2026-01-24T19:32:36.417635,2.679961,-0.368494,0.406779,0.535117,1.369559,2.846631
2026-01-24T19:32:36.426635,2.794816,-0.215354,0.167497,0.563217,1.423315,2.896722
2026-01-24T19:32:36.436635,2.818745,-0.133998,0.071784,0.590095,1.497841,2.921156
2026-01-24T19:32:36.445635,2.785245,0.004785,-0.148355,0.631634,1.578475,2.938261
2026-01-24T19:32:36.455635,2.675175,0.033499,-0.320638,0.711046,1.645670,2.944369
2026-01-24T19:32:36.465635,2.612962,-0.028713,-0.526420,0.824667,1.687209,2.929709
2026-01-24T19:32:36.474635,2.584248,0.004785,-0.808774,0.956614,1.712865,2.902831
2026-01-24T19:32:36.484635,2.627319,0.143569,-0.918843,1.106887,1.715309,2.855183
2026-01-24T19:32:36.493635,2.718246,0.406779,-0.985842,1.253495,1.703091,2.789210
2026-01-24T19:32:36.503635,2.900100,0.713061,-0.894915,1.368337,1.693318,2.708575
2026-01-24T19:32:36.513635,3.048455,0.914058,-0.760917,1.419650,1.688431,2.623054
2026-01-24T19:32:36.522635,3.340380,1.124626,-0.971485,1.429424,1.692096,2.537533
2026-01-24T19:32:36.532635,3.498306,1.268195,-1.143769,1.413541,1.711644,2.448347
2026-01-24T19:32:36.542635,3.622733,1.287338,-1.038485,1.358564,1.744630,2.317622
2026-01-24T19:32:36.551635,3.804587,1.287338,-0.894915,1.295034,1.777617,2.161240
2026-01-24T19:32:36.561635,3.699303,1.191625,-0.684347,1.232725,1.802052,2.012189
2026-01-24T19:32:36.570635,3.541377,0.961914,-0.339780,1.132543,1.817934,1.864360
2026-01-24T19:32:36.580635,3.306880,0.598205,-0.047856,1.017701,1.806938,1.696983
2026-01-24T19:32:36.590635,3.091526,0.296710,0.593420,0.921184,1.761734,1.508836
2026-01-24T19:32:36.599635,2.924029,-0.043070,1.378265,0.799011,1.679879,1.317025
2026-01-24T19:32:36.609635,2.684746,-0.516849,2.115255,0.670729,1.554040,1.114217
2026-01-24T19:32:36.618635,2.545963,-0.976271,2.813959,0.542448,1.404989,0.897971
2026-01-24T19:32:36.628635,2.545963,-1.383051,3.369094,0.348193,1.240056,0.684168
2026-01-24T19:32:36.638635,2.550748,-1.837687,3.728017,0.039095,1.044579,0.492357
2026-01-24T19:32:36.647635,2.593819,-2.287538,4.130011,-0.306654,0.806341,0.307876
2026-01-24T19:32:36.657635,2.857030,-2.818745,4.412364,-0.670729,0.548556,0.146607
2026-01-24T19:32:36.667635,3.168097,-3.383451,4.632504,-1.055574,0.317649,0.019547
2026-01-24T19:32:36.676635,3.541377,-4.326223,5.149354,-1.418428,0.136833,-0.081855
2026-01-24T19:32:36.686635,3.952942,-5.632704,5.594419,-1.718974,0.031764,-0.161268
2026-01-24T19:32:36.695635,4.125226,-7.111468,5.982056,-1.904677,-0.018325,-0.207694
2026-01-24T19:32:36.705635,4.216153,-8.867800,6.948756,-2.017076,-0.043982,-0.227241
2026-01-24T19:32:36.715635,4.307080,-10.892128,8.255237,-2.058615,-0.091629,-0.243124
2026-01-24T19:32:36.724635,4.417150,-13.021740,9.499505,-1.881464,-0.175929,-0.277332
2026-01-24T19:32:36.734635,4.622933,-14.586646,11.088339,-1.441641,-0.296880,-0.329867
2026-01-24T19:32:36.743635,5.072783,-15.696916,12.428320,-0.900415,-0.428827,-0.356745
2026-01-24T19:32:36.753635,5.556134,-16.065411,12.911670,-0.394618,-0.529009,-0.343306
2026-01-24T19:32:36.763635,6.039484,-15.687344,13.012169,-0.050090,-0.558330,-0.282219
2026-01-24T19:32:36.772635,6.297909,-14.787643,13.342378,0.046425,-0.477696,-0.232128
2026-01-24T19:32:36.782635,6.125625,-13.878371,13.969298,-0.240680,-0.365297,-0.179594
2026-01-24T19:32:36.792635,5.800201,-13.820943,14.227723,-0.836885,-0.377514,-0.079412
2026-01-24T19:32:36.801635,5.307280,-14.868999,13.926227,-1.566258,-0.593760,-0.017104
2026-01-24T19:32:36.811635,5.393422,-17.434105,13.931013,-2.441016,-1.044579,0.028099
2026-01-24T19:32:36.820635,6.159125,-21.492332,15.481562,-3.279123,-1.766621,0.054977
2026-01-24T19:32:36.830635,8.374879,-26.220551,18.879370,-3.406183,-2.583959,-0.205250
2026-01-24T19:32:36.840635,11.413763,-30.278776,21.396620,-2.602285,-3.187494,-0.412944
2026-01-24T19:32:36.849635,14.725430,-33.542587,20.047068,-1.259603,-3.126407,-0.609643
2026-01-24T19:32:36.859635,16.271193,-34.260433,16.237694,0.485026,-2.244318,-0.846659
2026-01-24T19:32:36.868635,16.003197,-32.126038,14.768501,1.997528,-1.081231,-1.102000
2026-01-24T19:32:36.878635,14.462219,-28.957939,13.581661,2.703688,-0.083077,-1.368337
2026-01-24T19:32:36.888635,12.418749,-25.684557,12.122039,2.836857,0.500909,-1.561371
2026-01-24T19:32:36.897635,10.514062,-22.253250,11.562118,2.583959,0.592539,-1.677435
2026-01-24T19:32:36.907635,9.418149,-19.080366,11.241480,1.868025,0.327423,-1.739743
2026-01-24T19:32:36.917635,9.107082,-17.233109,10.968698,0.861319,-0.006108,-1.667661
2026-01-24T19:32:36.926635,9.198010,-16.577475,10.935199,0.048869,-0.174707,-1.540601
2026-01-24T19:32:36.936635,9.198010,-16.328621,10.959127,-0.305432,-0.139277,-1.429424
2026-01-24T19:32:36.945635,8.982656,-16.089338,10.738987,-0.222354,-0.001221,-1.384220
2026-01-24T19:32:36.955635,8.437092,-15.361921,10.265208,0.155159,0.127059,-1.375668
2026-01-24T19:32:36.965635,7.637889,-14.304293,10.021141,0.615752,0.171042,-1.393994
2026-01-24T19:32:36.974635,6.853043,-13.232308,9.848857,1.026253,0.147829,-1.435533
2026-01-24T19:32:36.984635,6.226124,-12.284751,9.590432,1.329242,0.062308,-1.444085
2026-01-24T19:32:36.993635,5.594419,-11.385049,8.805587,1.538158,-0.109955,-1.401324
2026-01-24T19:32:37.003635,5.340780,-10.423135,7.925028,1.709200,-0.395840,-1.364672
2026-01-24T19:32:37.013635,5.484349,-9.394221,6.896114,1.848477,-0.790459,-1.373224
2026-01-24T19:32:37.022635,6.087340,-8.288737,5.972485,1.941329,-1.241277,-1.400102
2026-01-24T19:32:37.032635,7.173682,-7.302894,5.307280,1.933998,-1.643227,-1.424537
2026-01-24T19:32:37.042635,8.456235,-6.403193,4.536791,1.858251,-1.902233,-1.445306
2026-01-24T19:32:37.051635,9.609575,-5.584847,4.058227,1.737300,-1.949881,-1.455080
2026-01-24T19:32:37.061635,10.389635,-4.809573,4.048655,1.565036,-1.759291,-1.456302
2026-01-24T19:32:37.070635,10.657631,-4.115654,4.187439,1.325577,-1.403768,-1.442863
2026-01-24T19:32:37.080635,10.279565,-3.622733,4.350151,1.054353,-1.001818,-1.408654
2026-01-24T19:32:37.090635,9.480363,-3.402593,3.943371,0.808785,-0.653625,-1.372003
2026-01-24T19:32:37.099635,8.446663,-3.172882,3.436093,0.590095,-0.433714,-1.358564
2026-01-24T19:32:37.109635,7.465606,-3.168097,3.062812,0.362853,-0.376292,-1.363450
2026-01-24T19:32:37.118635,6.800401,-3.192025,2.885744,0.168598,-0.464257,-1.370781
2026-01-24T19:32:37.128635,6.585047,-3.259024,2.885744,0.021991,-0.624304,-1.375668
2026-01-24T19:32:37.138635,6.518048,-3.335594,2.718246,-0.074525,-0.784350,-1.382998
2026-01-24T19:32:37.147635,6.795616,-3.421736,2.723032,-0.118507,-0.896749,-1.407433
2026-01-24T19:32:37.157635,7.135396,-3.445664,2.938386,-0.108733,-0.943175,-1.442863
2026-01-24T19:32:37.167635,7.322037,-3.225524,2.981456,-0.037873,-0.897971,-1.478293
2026-01-24T19:32:37.176635,7.278966,-2.656033,2.842673,0.009773,-0.796568,-1.497841
2026-01-24T19:32:37.186635,7.006184,-2.053041,2.603390,-0.042760,-0.681725,-1.529606
2026-01-24T19:32:37.195635,6.575476,-1.545763,2.268395,-0.186924,-0.583987,-1.557706
2026-01-24T19:32:37.205635,6.039484,-1.182054,2.000399,-0.359188,-0.531452,-1.598023
2026-01-24T19:32:37.215635,5.402993,-1.048056,1.789831,-0.575434,-0.541226,-1.626122
2026-01-24T19:32:37.224635,4.871786,-1.239482,1.445264,-0.813672,-0.624304,-1.618792
2026-01-24T19:32:37.234635,4.603790,-1.512263,1.182054,-0.990823,-0.774576,-1.604131
2026-01-24T19:32:37.243635,4.555934,-1.799402,1.229910,-1.086118,-0.938288,-1.602910
2026-01-24T19:32:37.253635,4.718646,-1.942971,1.847259,-1.089783,-1.060461,-1.634675
2026-01-24T19:32:37.263635,4.967499,-1.808973,2.215753,-1.020144,-1.095892,-1.654222
2026-01-24T19:32:37.272635,5.173282,-1.359123,2.608176,-0.928514,-1.047022,-1.672548
2026-01-24T19:32:37.282635,5.292923,-0.933200,2.684746,-0.929736,-0.930958,-1.670105
2026-01-24T19:32:37.292635,5.192425,-0.598205,2.708675,-1.036027,-0.768468,-1.634675
2026-01-24T19:32:37.301635,4.914857,-0.425922,2.617747,-1.213178,-0.569326,-1.577253
2026-01-24T19:32:37.311635,4.369294,-0.282353,2.354537,-1.463632,-0.350636,-1.489289
2026-01-24T19:32:37.320635,3.541377,-0.488135,2.167897,-1.784947,-0.117286,-1.353677
2026-01-24T19:32:37.330635,2.574677,-1.009771,2.033899,-2.105041,0.127059,-1.170417
2026-01-24T19:32:37.340635,1.306481,-1.871187,1.966900,-2.328617,0.393397,-0.950506
2026-01-24T19:32:37.349635,-0.181854,-2.890529,1.727617,-2.395812,0.648738,-0.713490
2026-01-24T19:32:37.359635,-1.861615,-3.914657,1.899901,-2.251648,0.842993,-0.491135
2026-01-24T19:32:37.368635,-3.440878,-4.656432,2.483749,-1.837482,0.928514,-0.294436
2026-01-24T19:32:37.378635,-4.862215,-4.790430,3.699303,-1.198517,0.855211,-0.118507
2026-01-24T19:32:37.388635,-5.666203,-4.125226,4.666004,-0.502131,0.599869,0.047647
2026-01-24T19:32:37.397635,-5.379065,-2.991028,4.977071,0.067195,0.169820,0.221133
2026-01-24T19:32:37.407635,-4.067798,-1.560120,5.111069,0.343306,-0.312762,0.368962
2026-01-24T19:32:37.417635,-2.048256,-0.507278,5.288137,0.240680,-0.664621,0.485026
2026-01-24T19:32:37.426635,0.100498,-0.234496,5.388636,-0.133168,-0.779463,0.613308
2026-01-24T19:32:37.436635,2.120040,-0.631705,4.871786,-0.599869,-0.632856,0.748920
2026-01-24T19:32:37.445635,3.416950,-1.722832,4.039084,-1.094670,-0.288328,0.867428
2026-01-24T19:32:37.455635,4.091726,-3.412165,3.335594,-1.519832,0.158824,0.971275
2026-01-24T19:32:37.465635,4.096512,-5.288137,2.876172,-1.695761,0.614530,1.064127
2026-01-24T19:32:37.474635,3.512663,-6.795616,2.880958,-1.579697,0.994488,1.156978
2026-01-24T19:32:37.484635,2.565105,-7.757530,3.369094,-1.268155,1.251051,1.238834
2026-01-24T19:32:37.493635,1.612762,-8.250452,4.350151,-0.812450,1.373224,1.290147
2026-01-24T19:32:37.503635,0.732203,-7.881957,5.623133,-0.265115,1.342681,1.308473
2026-01-24T19:32:37.513635,0.267996,-7.063612,5.910271,0.178372,1.098335,1.297477
2026-01-24T19:32:37.522635,0.411565,-6.312266,5.747559,0.364075,0.585208,1.196073
2026-01-24T19:32:37.532635,1.540977,-5.938985,6.369693,0.195476,-0.173485,0.984714
2026-01-24T19:32:37.542635,3.857230,-6.384050,7.393821,-0.141720,-1.031140,0.700051
2026-01-24T19:32:37.551635,6.800401,-7.216752,7.456035,-0.333532,-1.793499,0.386066
2026-01-24T19:32:37.561635,10.222138,-8.197810,7.527819,-0.428827,-2.365269,0.053756
2026-01-24T19:32:37.570635,13.816157,-9.360722,7.274180,-0.608421,-2.700023,-0.193033
2026-01-24T19:32:37.580635,16.969896,-10.518848,5.843272,-0.723264,-2.619389,-0.309097
2026-01-24T19:32:37.590635,19.008581,-10.987841,3.967299,-0.612086,-1.865582,-0.400727
2026-01-24T19:32:37.599635,18.975082,-10.834700,4.029513,-0.401949,-0.392175,-0.459370
2026-01-24T19:32:37.609635,16.137196,-10.523633,5.058426,-0.012217,1.196073,-0.356745
2026-01-24T19:32:37.618635,11.844471,-9.446863,5.010570,0.697607,2.277305,-0.194255
2026-01-24T19:32:37.628635,7.355536,-7.585247,4.804787,1.418428,2.730567,-0.098960
2026-01-24T19:32:37.638635,3.512663,-5.484349,5.111069,1.827708,2.657263,-0.050090
2026-01-24T19:32:37.647635,0.674775,-3.704089,5.584847,1.913229,2.138027,0.062308
2026-01-24T19:32:37.657635,-0.880558,-2.392822,5.895914,1.748295,1.249830,0.232128
2026-01-24T19:32:37.667635,-0.880558,-1.679761,5.632704,1.385442,0.163711,0.401949
2026-01-24T19:32:37.676635,0.622133,-1.718046,5.206781,0.901636,-0.851545,0.537561
2026-01-24T19:32:37.686635,2.976671,-2.254038,5.072783,0.420275,-1.538158,0.616973
2026-01-24T19:32:37.695635,5.388636,-3.254238,4.723431,0.079412,-1.791056,0.634077
2026-01-24T19:32:37.705635,7.317251,-4.115654,4.431507,-0.043982,-1.649335,0.591317
2026-01-24T19:32:37.715635,8.389236,-4.828716,4.139583,0.045204,-1.205847,0.498465
2026-01-24T19:32:37.724635,8.542376,-5.077569,4.134797,0.289550,-0.585208,0.388510
2026-01-24T19:32:37.734635,7.513462,-4.852644,4.168296,0.599869,0.024434,0.298102
2026-01-24T19:32:37.743635,5.929414,-4.278366,3.938585,0.879645,0.445931,0.233350
2026-01-24T19:32:37.753635,4.259224,-3.555734,3.541377,1.039692,0.569326,0.178372
2026-01-24T19:32:37.763635,2.957528,-2.904886,3.287738,1.048244,0.409279,0.131946
2026-01-24T19:32:37.772635,2.416750,-2.426322,3.192025,0.949284,0.065973,0.117286
2026-01-24T19:32:37.782635,2.431107,-2.143969,3.062812,0.808785,-0.338419,0.130725
2026-01-24T19:32:37.792635,3.048455,-2.120040,3.005385,0.647517,-0.682947,0.152716
2026-01-24T19:32:37.801635,3.885943,-2.335394,2.799602,0.485026,-0.864984,0.178372
2026-01-24T19:32:37.811635,4.709074,-2.646461,2.431107,0.376292,-0.839328,0.205250
2026-01-24T19:32:37.820635,5.173282,-2.924029,2.057827,0.350636,-0.621860,0.244346
2026-01-24T19:32:37.830635,5.034498,-2.943171,2.000399,0.420275,-0.279776,0.284663
2026-01-24T19:32:37.840635,4.460221,-2.770888,2.019542,0.533896,0.092851,0.331088
2026-01-24T19:32:37.849635,3.416950,-2.344966,2.096112,0.662177,0.397062,0.388510
2026-01-24T19:32:37.859635,2.392822,-1.775474,2.158325,0.747698,0.561995,0.456927
2026-01-24T19:32:37.868635,1.497906,-1.339980,1.966900,0.769690,0.575434,0.547335
2026-01-24T19:32:37.878635,0.942772,-0.933200,1.914258,0.737925,0.465479,0.646295
2026-01-24T19:32:37.888635,0.784845,-0.703489,1.861615,0.652403,0.277332,0.734259
2026-01-24T19:32:37.897635,1.091127,-0.612562,2.076970,0.515570,0.070860,0.817337
2026-01-24T19:32:37.907635,1.689332,-0.693918,2.311466,0.393397,-0.086742,0.900415
2026-01-24T19:32:37.917635,2.507678,-0.894915,2.646461,0.323758,-0.134390,0.983492
2026-01-24T19:32:37.926635,3.273381,-1.028913,2.694318,0.300545,-0.041538,1.058018
2026-01-24T19:32:37.936635,3.661018,-1.215553,2.555534,0.310319,0.171042,1.117883
2026-01-24T19:32:37.945635,3.675375,-1.081555,2.703889,0.345749,0.444709,1.164308
2026-01-24T19:32:37.955635,3.311666,-0.952343,2.775674,0.379958,0.714712,1.208291
2026-01-24T19:32:37.965635,2.742174,-0.942772,2.493321,0.390953,0.906523,1.269377
2026-01-24T19:32:37.974635,2.143969,-0.861416,2.220539,0.394618,0.985936,1.329242
2026-01-24T19:32:37.984635,1.708475,-0.823130,2.273181,0.420275,0.962723,1.351233
2026-01-24T19:32:37.993635,1.483550,-0.957129,2.019542,0.467922,0.874758,1.379333
2026-01-24T19:32:38.003635,1.493121,-1.033699,1.636690,0.543669,0.761137,1.392772
2026-01-24T19:32:38.013635,1.655833,-1.143769,1.775474,0.615752,0.638964,1.362229
2026-01-24T19:32:38.022635,1.919043,-1.277767,1.995614,0.651182,0.527787,1.314581
2026-01-24T19:32:38.032635,2.297109,-1.560120,2.321037,0.719599,0.425162,1.246164
2026-01-24T19:32:38.042635,2.780459,-1.737189,2.833101,0.807563,0.349414,1.149648
2026-01-24T19:32:38.051635,3.345165,-2.263610,3.034099,0.839328,0.285884,1.067792
2026-01-24T19:32:38.061635,3.818944,-3.311666,3.029313,0.785572,0.233350,1.027475
2026-01-24T19:32:38.070635,4.359722,-4.953142,3.168097,0.722042,0.191811,0.978605
2026-01-24T19:32:38.080635,4.742574,-6.838686,3.101098,0.725707,0.114842,0.934623
2026-01-24T19:32:38.090635,5.331208,-8.140382,3.589233,1.004262,-0.026878,0.839328
2026-01-24T19:32:38.099635,6.001199,-8.283951,4.345365,1.529606,-0.222354,0.692721
2026-01-24T19:32:38.109635,6.838686,-7.278966,4.967499,2.096489,-0.394618,0.568104
2026-01-24T19:32:38.118635,7.451249,-5.503491,5.871986,2.449569,-0.464257,0.493579
2026-01-24T19:32:38.128635,7.805387,-3.665804,6.843472,2.453234,-0.378736,0.443488
2026-01-24T19:32:38.138635,7.886743,-2.330609,7.307680,2.157575,-0.213802,0.443488
2026-01-24T19:32:38.147635,7.542176,-1.885544,7.714460,1.645670,-0.065973,0.508239
2026-01-24T19:32:38.157635,7.058826,-2.383251,8.207381,1.045801,0.031764,0.579100
2026-01-24T19:32:38.167635,6.451049,-3.335594,8.049455,0.594982,0.069638,0.619417
2026-01-24T19:32:38.176635,5.886343,-4.331008,8.092526,0.360410,0.025656,0.652403
2026-01-24T19:32:38.186635,5.493920,-5.111069,8.322237,0.210137,-0.097738,0.659734
2026-01-24T19:32:38.195635,5.479563,-5.809773,8.350950,0.097738,-0.276111,0.654847
2026-01-24T19:32:38.205635,5.761916,-6.144768,8.092526,0.031764,-0.481361,0.668286
2026-01-24T19:32:38.215635,6.374479,-6.245266,8.044669,-0.102625,-0.673173,0.668286
2026-01-24T19:32:38.224635,7.255038,-6.465406,8.102097,-0.333532,-0.816115,0.632856
2026-01-24T19:32:38.234635,8.188238,-7.092326,8.441878,-0.568104,-0.880867,0.587652
2026-01-24T19:32:38.243635,9.087940,-7.939385,8.781658,-0.779463,-0.853989,0.549778
2026-01-24T19:32:38.253635,9.762716,-9.006584,9.131011,-0.905302,-0.722042,0.498465
2026-01-24T19:32:38.263635,10.155139,-9.887142,9.844072,-0.884532,-0.481361,0.425162
2026-01-24T19:32:38.272635,10.083354,-10.279565,10.916056,-0.783129,-0.172263,0.328645
2026-01-24T19:32:38.282635,9.662217,-10.289137,12.069397,-0.748920,0.112399,0.252898
2026-01-24T19:32:38.292635,9.073583,-10.207781,13.328021,-0.866206,0.271224,0.202807
2026-01-24T19:32:38.301635,8.618947,-10.537990,14.500504,-1.131322,0.248011,0.200363
2026-01-24T19:32:38.311635,8.695517,-11.380264,15.065211,-1.431867,0.072082,0.235793
2026-01-24T19:32:38.320635,9.202795,-12.648460,15.117853,-1.643227,-0.153938,0.280997
2026-01-24T19:32:38.330635,10.236495,-14.021940,15.031711,-1.762956,-0.329867,0.293215
2026-01-24T19:32:38.340635,11.413763,-15.534204,15.232708,-1.832595,-0.432492,0.267558
2026-01-24T19:32:38.349635,12.739387,-17.213964,15.620345,-1.877799,-0.488692,0.243124
2026-01-24T19:32:38.359635,14.069796,-18.778872,15.562918,-1.830151,-0.515570,0.210137
2026-01-24T19:32:38.368635,15.261422,-19.831713,15.328421,-1.613905,-0.504574,0.136833
2026-01-24T19:32:38.378635,16.319050,-19.893927,15.002997,-1.270599,-0.458148,-0.012217
2026-01-24T19:32:38.388635,17.108681,-19.190437,14.931213,-0.944397,-0.408057,-0.204028
2026-01-24T19:32:38.397635,17.663816,-17.802601,14.696716,-0.739146,-0.375071,-0.370184
2026-01-24T19:32:38.407635,18.037096,-16.505690,14.031511,-0.724486,-0.381179,-0.478918
2026-01-24T19:32:38.417635,18.362520,-16.051054,13.256237,-0.899193,-0.406836,-0.565661
2026-01-24T19:32:38.426635,18.640087,-16.658831,12.217752,-1.082452,-0.360410,-0.679282
2026-01-24T19:32:38.436635,18.644873,-17.903097,10.930413,-1.038470,-0.183259,-0.794124
2026-01-24T19:32:38.445635,18.128023,-18.668800,10.040283,-0.711046,0.136833,-0.908967
2026-01-24T19:32:38.455635,16.941183,-18.534803,9.346365,-0.244346,0.548556,-0.974940
2026-01-24T19:32:38.465635,15.208780,-17.443676,8.800801,0.212581,0.889419,-0.996931
2026-01-24T19:32:38.474635,13.462019,-15.672988,8.403592,0.571769,0.974940,-0.999375
2026-01-24T19:32:38.484635,12.256037,-13.572089,8.264809,0.747698,0.766024,-0.959058
2026-01-24T19:32:38.493635,11.576475,-11.672188,8.126025,0.709825,0.379958,-0.878424
2026-01-24T19:32:38.503635,11.629117,-10.006784,7.953742,0.547335,-0.001221,-0.783129
2026-01-24T19:32:38.513635,11.921042,-8.523234,7.724031,0.312762,-0.261450,-0.690277
2026-01-24T19:32:38.522635,12.179467,-7.259823,7.508677,-0.030543,-0.357966,-0.601091
2026-01-24T19:32:38.532635,12.088539,-6.714260,7.068397,-0.486248,-0.320093,-0.508239
2026-01-24T19:32:38.542635,11.566904,-6.991827,6.226124,-0.946840,-0.221133,-0.420275
2026-01-24T19:32:38.551635,10.872985,-8.145168,5.364708,-1.279151,-0.120951,-0.390953
2026-01-24T19:32:38.561635,10.073783,-9.619146,4.555934,-1.332907,-0.052534,-0.422718
2026-01-24T19:32:38.570635,9.121439,-10.748559,3.957728,-1.036027,-0.024434,-0.487470
2026-01-24T19:32:38.580635,8.231309,-11.179267,3.464807,-0.478918,-0.065973,-0.590095
2026-01-24T19:32:38.590635,7.566105,-10.825129,3.249453,0.194255,-0.194255,-0.724486
2026-01-24T19:32:38.599635,7.082754,-9.695717,3.354737,0.882089,-0.381179,-0.857654
2026-01-24T19:32:38.609635,6.982256,-7.996813,3.474378,1.436754,-0.580321,-0.970053
2026-01-24T19:32:38.618635,7.049255,-6.101697,3.282952,1.728748,-0.779463,-1.034805
2026-01-24T19:32:38.628635,7.245466,-4.369294,3.062812,1.761734,-0.937067,-1.080009
2026-01-24T19:32:38.638635,7.422535,-2.900100,2.909672,1.572366,-1.017701,-1.127656
2026-01-24T19:32:38.647635,7.389036,-1.718046,3.058027,1.216843,-1.017701,-1.152091
2026-01-24T19:32:38.657635,7.188039,-0.890130,3.211167,0.739146,-0.961501,-1.143539
2026-01-24T19:32:38.667635,6.719045,-0.516849,2.947957,0.210137,-0.901636,-1.111774
2026-01-24T19:32:38.676635,6.096911,-0.588634,2.531606,-0.316428,-0.860098,-1.062905
2026-01-24T19:32:38.686635,5.546562,-0.981057,2.325823,-0.788015,-0.861319,-1.022588
2026-01-24T19:32:38.695635,5.024927,-1.617548,1.885544,-1.065348,-0.907745,-1.004262
2026-01-24T19:32:38.705635,4.646861,-1.981257,1.115055,-1.025031,-0.949284,-1.014036
2026-01-24T19:32:38.715635,4.201796,-1.909472,-0.062213,-0.720820,-0.962723,-1.021366
2026-01-24T19:32:38.724635,3.737588,-1.272981,-1.071984,-0.294436,-0.928514,-0.996931
2026-01-24T19:32:38.734635,3.125026,-0.354137,-1.603191,0.069638,-0.852767,-0.981049
2026-01-24T19:32:38.743635,2.282752,0.301495,-1.890329,0.250454,-0.761137,-0.981049
2026-01-24T19:32:38.753635,1.239482,0.894915,-1.383051,0.291993,-0.740368,-1.015257
2026-01-24T19:32:38.763635,0.334995,1.009771,-0.339780,0.212581,-0.883310,-1.062905
2026-01-24T19:32:38.772635,-0.282353,0.545563,0.880558,0.059864,-1.197295,-1.065348
2026-01-24T19:32:38.782635,-0.301495,-0.258424,1.732403,0.024434,-1.598023,-1.038470
2026-01-24T19:32:38.792635,0.272781,-0.650847,2.574677,0.204028,-1.954768,-1.067792
2026-01-24T19:32:38.801635,1.182054,-0.521635,3.316452,0.474031,-2.166127,-1.150869
2026-01-24T19:32:38.811635,2.067398,-0.066999,3.488735,0.679282,-2.182010,-1.221730
2026-01-24T19:32:38.820635,2.761317,0.555134,3.115455,0.711046,-1.995085,-1.268155
2026-01-24T19:32:38.830635,2.900100,1.028913,3.096312,0.477696,-1.635896,-1.298699
2026-01-24T19:32:38.840635,2.517249,0.981057,3.507877,0.114842,-1.160643,-1.315803
2026-01-24T19:32:38.849635,1.483550,0.722632,3.684946,-0.173485,-0.660956,-1.277929
2026-01-24T19:32:38.859635,0.000000,0.258424,3.445664,-0.335975,-0.252898,-1.196073
2026-01-24T19:32:38.868635,-1.421336,-0.191425,3.091526,-0.459370,-0.018325,-1.119104
2026-01-24T19:32:38.878635,-2.847458,-0.746560,2.675175,-0.543669,0.010995,-1.047022
2026-01-24T19:32:38.888635,-3.708875,-1.201196,2.646461,-0.553443,-0.150272,-0.955393
2026-01-24T19:32:38.897635,-3.914657,-1.631905,3.091526,-0.505796,-0.456927,-0.857654
2026-01-24T19:32:38.907635,-3.249453,-1.990828,4.058227,-0.444709,-0.817337,-0.766024
2026-01-24T19:32:38.917635,-1.990828,-2.321037,4.599005,-0.387288,-1.110552,-0.667064
2026-01-24T19:32:38.926635,-0.401994,-2.569891,4.670789,-0.317649,-1.253495,-0.571769
2026-01-24T19:32:38.936635,1.110269,-2.579462,4.761716,-0.309097,-1.208291,-0.500909
2026-01-24T19:32:38.945635,2.512463,-2.823530,4.977071,-0.399505,-1.011592,-0.445931
2026-01-24T19:32:38.955635,3.364308,-3.244667,4.967499,-0.518013,-0.719599,-0.381179
2026-01-24T19:32:38.965635,3.981656,-3.742374,4.996213,-0.645073,-0.411723,-0.293215
2026-01-24T19:32:38.974635,4.378865,-4.436293,5.273781,-0.775798,-0.174707,-0.205250
2026-01-24T19:32:38.984635,4.733003,-5.187639,5.446064,-0.867428,-0.061086,-0.105068
2026-01-24T19:32:38.993635,5.163711,-5.905486,5.623133,-0.841772,-0.067195,-0.017104
2026-01-24T19:32:39.003635,5.924628,-6.240481,5.680560,-0.726929,-0.188146,0.004886
2026-01-24T19:32:39.013635,6.910471,-6.297909,5.513063,-0.612086,-0.453261,-0.048869
2026-01-24T19:32:39.022635,8.528019,-6.374479,5.426921,-0.577878,-0.890641,-0.163711
2026-01-24T19:32:39.032635,10.863414,-6.776473,5.441278,-0.621860,-1.451415,-0.285884
2026-01-24T19:32:39.042635,13.897513,-7.250252,5.379065,-0.612086,-1.988976,-0.383623
2026-01-24T19:32:39.051635,17.481960,-7.642675,5.091926,-0.561995,-2.316400,-0.423940
2026-01-24T19:32:39.061635,20.913269,-7.829315,4.187439,-0.560774,-2.182010,-0.428827
2026-01-24T19:32:39.070635,22.884954,-7.566105,3.081955,-0.623082,-1.255938,-0.447153
2026-01-24T19:32:39.080635,21.970898,-7.221538,2.723032,-0.745255,0.420275,-0.387288
2026-01-24T19:32:39.090635,18.037096,-6.958328,3.010170,-0.853989,2.135584,-0.211359
2026-01-24T19:32:39.099635,12.921242,-6.790830,3.096312,-0.817337,3.215593,0.009773
2026-01-24T19:32:39.109635,8.025527,-6.455835,2.957528,-0.583987,3.549126,0.208915
2026-01-24T19:32:39.118635,4.077369,-5.924628,3.225524,-0.219911,3.332880,0.356745
2026-01-24T19:32:39.128635,1.296909,-5.120640,3.895515,0.141720,2.693915,0.488692
2026-01-24T19:32:39.138635,0.004785,-4.350151,4.101297,0.420275,1.714087,0.638964
2026-01-24T19:32:39.147635,0.454636,-3.766302,3.890729,0.587652,0.583987,0.790459
2026-01-24T19:32:39.157635,2.239681,-3.263810,3.670589,0.599869,-0.436157,0.886976
2026-01-24T19:32:39.167635,4.776073,-3.134597,3.570091,0.458148,-1.109331,0.915075
2026-01-24T19:32:39.176635,7.465606,-3.302095,3.278166,0.267558,-1.347568,0.900415
2026-01-24T19:32:39.186635,9.705288,-3.617947,3.153740,0.101403,-1.191186,0.841772
2026-01-24T19:32:39.195635,11.169695,-3.909872,3.560520,0.006108,-0.715933,0.724486
2026-01-24T19:32:39.205635,11.557333,-3.924229,4.043870,0.032986,-0.054977,0.592539
2026-01-24T19:32:39.215635,10.834700,-3.723231,4.110869,0.146607,0.634077,0.494800
2026-01-24T19:32:39.224635,9.217152,-3.187239,3.732803,0.233350,1.193630,0.425162
2026-01-24T19:32:39.234635,7.188039,-2.770888,3.335594,0.223576,1.505171,0.357966
2026-01-24T19:32:39.243635,5.355136,-2.383251,3.139383,0.133168,1.549153,0.318871
2026-01-24T19:32:39.253635,3.909872,-2.225325,3.019742,0.003665,1.368337,0.322536
2026-01-24T19:32:39.263635,3.153740,-2.115255,2.924029,-0.131946,1.042135,0.359188
2026-01-24T19:32:39.272635,2.914457,-2.258824,2.947957,-0.245567,0.668286,0.409279
2026-01-24T19:32:39.282635,3.182454,-2.478964,2.847458,-0.317649,0.351858,0.460592
2026-01-24T19:32:39.292635,3.742374,-2.665604,2.751745,-0.311541,0.161268,0.503352
2026-01-24T19:32:39.301635,4.287938,-2.689532,2.737389,-0.246789,0.139277,0.521678
2026-01-24T19:32:39.311635,4.622933,-2.641676,2.493321,-0.169820,0.270002,0.535117
2026-01-24T19:32:39.320635,4.417150,-2.636890,2.139183,-0.073303,0.499687,0.552222
2026-01-24T19:32:39.330635,3.881158,-2.445464,2.234896,0.036651,0.753807,0.569326
2026-01-24T19:32:39.340635,3.077169,-2.373680,2.273181,0.142942,0.966388,0.605978
2026-01-24T19:32:39.349635,2.124826,-2.282752,1.986042,0.261450,1.097113,0.691499
2026-01-24T19:32:39.359635,1.249053,-2.163111,2.014756,0.421496,1.139874,0.786794
2026-01-24T19:32:39.368635,0.665204,-2.029113,2.574677,0.582765,1.104444,0.863763
2026-01-24T19:32:39.378635,0.320638,-1.942971,2.603390,0.737925,1.009149,0.977384
2026-01-24T19:32:39.388635,0.200997,-1.732403,2.282752,0.910189,0.869871,1.110552
2026-01-24T19:32:39.397635,0.473778,-1.550549,2.072184,1.031140,0.720820,1.211956
2026-01-24T19:32:39.407635,1.057627,-1.296909,2.139183,1.077566,0.603534,1.286481
2026-01-24T19:32:39.417635,1.670190,-1.148554,2.115255,1.099557,0.551000,1.362229
2026-01-24T19:32:39.426635,2.277967,-0.928415,2.014756,1.091005,0.568104,1.428202
2026-01-24T19:32:39.436635,2.866601,-1.004985,2.072184,1.018923,0.649960,1.475850
2026-01-24T19:32:39.445635,3.335594,-1.292124,2.187039,0.930958,0.774576,1.511280
2026-01-24T19:32:39.455635,3.656232,-1.741974,2.507678,0.856432,0.900415,1.549153
2026-01-24T19:32:39.465635,3.847658,-2.311466,3.115455,0.783129,0.990823,1.599244
2026-01-24T19:32:39.474635,4.254438,-2.880958,3.522234,0.729372,1.029918,1.660331
2026-01-24T19:32:39.484635,4.656432,-3.335594,3.546163,0.726929,1.014036,1.742187
2026-01-24T19:32:39.493635,5.158925,-3.637090,3.086741,0.801455,0.996931,1.804495
2026-01-24T19:32:39.503635,5.680560,-3.708875,2.388036,0.941954,1.022588,1.814269
2026-01-24T19:32:39.513635,6.034698,-3.306880,1.832902,1.115439,1.114217,1.758069
2026-01-24T19:32:39.522635,6.254838,-2.670390,1.981257,1.268155,1.269377,1.659109
2026-01-24T19:32:39.532635,6.226124,-1.885544,1.981257,1.312138,1.447750,1.579697
2026-01-24T19:32:39.542635,5.862415,-1.134197,1.866401,1.215621,1.605353,1.534493
2026-01-24T19:32:39.551635,5.350351,-0.478564,2.206182,0.932180,1.728748,1.503949
2026-01-24T19:32:39.561635,4.704289,-0.196211,2.517249,0.494800,1.815491,1.473406
2026-01-24T19:32:39.570635,3.957728,-0.488135,2.646461,0.039095,1.821599,1.445306
2026-01-24T19:32:39.580635,3.354737,-1.344766,2.713460,-0.393397,1.723861,1.430646
2026-01-24T19:32:39.590635,2.861815,-2.689532,2.670390,-0.676838,1.523497,1.400102
2026-01-24T19:32:39.599635,2.689532,-4.034298,2.651247,-0.659734,1.293812,1.329242
2026-01-24T19:32:39.609635,2.718246,-5.149354,2.933600,-0.434935,1.070235,1.232725
2026-01-24T19:32:39.618635,2.890529,-5.905486,3.378665,-0.116064,0.858876,1.104444
2026-01-24T19:32:39.628635,3.182454,-6.269195,4.110869,0.256563,0.663399,0.974940
2026-01-24T19:32:39.638635,3.517449,-6.149554,4.785645,0.630412,0.481361,0.852767
2026-01-24T19:32:39.647635,3.943371,-5.546562,5.307280,0.884532,0.316428,0.753807
2026-01-24T19:32:39.657635,4.441078,-5.024927,5.862415,0.923628,0.164933,0.676838
2026-01-24T19:32:39.667635,4.876572,-4.637290,6.159125,0.799011,0.020769,0.596204
2026-01-24T19:32:39.676635,5.426921,-4.431507,6.116054,0.603534,-0.117286,0.513126
2026-01-24T19:32:39.686635,5.871986,-4.469792,6.053841,0.355523,-0.223576,0.420275
2026-01-24T19:32:39.695635,6.307480,-4.838287,6.321837,0.054977,-0.290771,0.298102
2026-01-24T19:32:39.705635,6.666403,-5.603990,6.996613,-0.271224,-0.324980,0.162490
2026-01-24T19:32:39.715635,6.996613,-6.632904,7.905885,-0.570548,-0.359188,0.036651
2026-01-24T19:32:39.724635,7.379464,-7.771887,9.044869,-0.857654,-0.408057,-0.051312
2026-01-24T19:32:39.734635,7.886743,-8.997012,10.068997,-1.163087,-0.488692,-0.095294
2026-01-24T19:32:39.743635,8.575876,-10.399207,11.380264,-1.404989,-0.576656,-0.134390
2026-01-24T19:32:39.753635,9.446863,-11.820543,12.681959,-1.546710,-0.624304,-0.149051
2026-01-24T19:32:39.763635,10.394421,-13.217952,13.658231,-1.543045,-0.581543,-0.139277
2026-01-24T19:32:39.772635,11.212766,-14.404792,14.830714,-1.401324,-0.442266,-0.144164
2026-01-24T19:32:39.782635,11.921042,-15.471990,15.395420,-1.265712,-0.213802,-0.109955
2026-01-24T19:32:39.792635,12.337393,-16.366905,15.194423,-1.214399,0.048869,-0.009773
2026-01-24T19:32:39.801635,12.318250,-17.338392,14.419148,-1.263269,0.288328,0.108733
2026-01-24T19:32:39.811635,12.150753,-18.233309,13.715659,-1.447750,0.481361,0.155159
2026-01-24T19:32:39.820635,11.586047,-19.271793,13.203595,-1.766621,0.610865,0.135612
2026-01-24T19:32:39.830635,10.748559,-20.343777,13.634303,-2.150245,0.643851,0.056199
2026-01-24T19:32:39.840635,10.059426,-21.765114,14.687145,-2.560746,0.488692,-0.052534
2026-01-24T19:32:39.849635,9.734002,-23.583658,16.108480,-2.811201,0.046425,-0.157603
2026-01-24T19:32:39.859635,10.217352,-25.612774,17.639889,-2.692693,-0.684168,-0.298102
2026-01-24T19:32:39.868635,12.002398,-27.263821,18.510876,-2.189340,-1.420872,-0.478918
2026-01-24T19:32:39.878635,14.490933,-28.225735,17.826529,-1.393994,-1.766621,-0.610865
2026-01-24T19:32:39.888635,16.553547,-27.713671,15.404991,-0.340862,-1.547932,-0.685390
2026-01-24T19:32:39.897635,17.142181,-25.253849,12.815957,0.759916,-0.891863,-0.759916
2026-01-24T19:32:39.907635,16.252050,-21.745972,11.140982,1.501506,-0.036651,-0.828333
2026-01-24T19:32:39.917635,14.184652,-18.458233,10.566704,1.679879,0.780685,-0.821002
2026-01-24T19:32:39.926635,11.653046,-16.074982,10.016355,1.402546,1.331685,-0.731816
2026-01-24T19:32:39.936635,9.207581,-14.845071,9.355936,1.048244,1.419650,-0.624304
2026-01-24T19:32:39.945635,7.599604,-13.763515,9.293722,0.851545,1.069013,-0.540004
2026-01-24T19:32:39.955635,6.967899,-12.782458,9.470791,0.671951,0.486248,-0.453261
2026-01-24T19:32:39.965635,7.326822,-12.241680,9.332008,0.478918,-0.140498,-0.371405
2026-01-24T19:32:39.974635,8.451449,-11.734402,8.906085,0.428827,-0.636521,-0.310319
2026-01-24T19:32:39.984635,9.662217,-11.131410,8.547162,0.464257,-0.882089,-0.252898
2026-01-24T19:32:39.993635,10.638489,-10.537990,7.939385,0.543669,-0.857654,-0.207694
2026-01-24T19:32:40.003635,10.959127,-10.045069,7.197610,0.685390,-0.640186,-0.204028
2026-01-24T19:32:40.013635,10.609775,-9.494720,6.436692,0.836885,-0.355523,-0.227241
2026-01-24T19:32:40.022635,9.600004,-9.006584,5.905486,0.968832,-0.086742,-0.265115
2026-01-24T19:32:40.032635,8.417949,-8.537591,5.675775,1.123991,0.101403,-0.312762
2026-01-24T19:32:40.042635,7.082754,-7.891528,5.345565,1.318246,0.163711,-0.349414
2026-01-24T19:32:40.051635,5.857629,-7.082754,4.972285,1.508836,0.083077,-0.383623
2026-01-24T19:32:40.061635,5.063212,-6.120840,4.637290,1.665218,-0.131946,-0.423940
2026-01-24T19:32:40.070635,4.575076,-5.048855,4.436293,1.753182,-0.416610,-0.477696
2026-01-24T19:32:40.080635,4.517649,-4.039084,4.268795,1.745852,-0.702494,-0.533896
2026-01-24T19:32:40.090635,4.646861,-3.148954,4.034298,1.638340,-0.943175,-0.586430
2026-01-24T19:32:40.099635,4.852644,-2.416750,3.694518,1.420872,-1.120326,-0.645073
2026-01-24T19:32:40.109635,5.115854,-1.919043,3.464807,1.112996,-1.238834,-0.714712
2026-01-24T19:32:40.118635,5.469992,-1.765903,3.225524,0.750142,-1.303586,-0.784350
2026-01-24T19:32:40.128635,5.575276,-1.737189,3.014956,0.377514,-1.325577,-0.853989
2026-01-24T19:32:40.138635,5.498706,-2.043470,2.646461,0.061086,-1.329242,-0.938288
2026-01-24T19:32:40.147635,5.374279,-2.402393,2.277967,-0.164933,-1.334129,-1.039692
2026-01-24T19:32:40.157635,5.077569,-2.708675,2.139183,-0.287106,-1.354898,-1.153313
2026-01-24T19:32:40.167635,4.828716,-2.933600,2.067398,-0.310319,-1.419650,-1.273042
2026-01-24T19:32:40.176635,4.694717,-2.885744,2.053041,-0.234572,-1.521054,-1.413541
2026-01-24T19:32:40.186635,4.551148,-2.636890,1.923829,-0.149051,-1.626122,-1.529606
2026-01-24T19:32:40.195635,4.512863,-2.330609,1.804188,-0.098960,-1.722639,-1.616349
2026-01-24T19:32:40.205635,4.465006,-1.976471,1.703689,-0.062308,-1.804495,-1.700648
2026-01-24T19:32:40.215635,4.503292,-1.641476,1.737189,-0.015882,-1.850921,-1.776395
2026-01-24T19:32:40.224635,4.493720,-1.201196,2.402393,0.018325,-1.831373,-1.843590
2026-01-24T19:32:40.234635,4.398007,-0.894915,2.766102,-0.014660,-1.739743,-1.843590
2026-01-24T19:32:40.243635,4.168296,-0.684347,2.718246,-0.085521,-1.587027,-1.793499
2026-01-24T19:32:40.253635,3.656232,-0.588634,2.574677,-0.172263,-1.397659,-1.737300
2026-01-24T19:32:40.263635,3.014956,-0.698704,2.282752,-0.301767,-1.189965,-1.656666
2026-01-24T19:32:40.272635,2.139183,-0.947557,2.009970,-0.420275,-0.989601,-1.550375
2026-01-24T19:32:40.282635,1.201196,-1.301695,1.488335,-0.449596,-0.828333,-1.451415
2026-01-24T19:32:40.292635,0.267996,-1.598405,0.914058,-0.390953,-0.714712,-1.373224
2026-01-24T19:32:40.301635,-0.789631,-1.923829,0.507278,-0.301767,-0.656069,-1.290147
2026-01-24T19:32:40.311635,-1.646261,-2.230110,0.502492,-0.173485,-0.691499,-1.211956
2026-01-24T19:32:40.320635,-2.277967,-2.378465,1.182054,0.078190,-0.840550,-1.155756
2026-01-24T19:32:40.330635,-2.335394,-2.081755,1.990828,0.397062,-1.069013,-1.100778
2026-01-24T19:32:40.340635,-2.043470,-1.392622,2.550748,0.671951,-1.323133,-1.034805
2026-01-24T19:32:40.349635,-1.201196,-0.531206,2.785245,0.827111,-1.525941,-0.971275
2026-01-24T19:32:40.359635,-0.224925,0.397208,2.947957,0.797789,-1.609018,-0.926071
2026-01-24T19:32:40.368635,0.684347,1.234696,3.321237,0.561995,-1.534493,-0.901636
2026-01-24T19:32:40.378635,1.383051,1.732403,3.589233,0.167377,-1.307251,-0.883310
2026-01-24T19:32:40.388635,1.574477,1.794616,3.589233,-0.326201,-0.970053,-0.862541
2026-01-24T19:32:40.397635,1.344766,1.344766,3.364308,-0.853989,-0.608421,-0.846659
2026-01-24T19:32:40.407635,0.746560,0.406779,3.010170,-1.328020,-0.327423,-0.836885
2026-01-24T19:32:40.417635,0.090927,-0.832702,3.034099,-1.684765,-0.211359,-0.794124
2026-01-24T19:32:40.426635,-0.210568,-2.234896,3.412165,-1.901012,-0.283441,-0.707381
2026-01-24T19:32:40.436635,0.019142,-3.857230,3.890729,-1.951103,-0.509461,-0.582765
2026-01-24T19:32:40.445635,0.827916,-5.359922,4.110869,-1.804495,-0.805120,-0.439822
2026-01-24T19:32:40.455635,2.201396,-6.647261,4.555934,-1.491732,-1.067792,-0.300545
2026-01-24T19:32:40.465635,3.718446,-7.613961,4.895715,-1.049466,-1.220508,-0.185702
2026-01-24T19:32:40.474635,5.307280,-8.140382,5.115854,-0.516791,-1.225395,-0.091629
2026-01-24T19:32:40.484635,6.709474,-8.178667,5.225924,0.045204,-1.122770,-0.029321
2026-01-24T19:32:40.493635,7.968099,-7.714460,5.201996,0.542448,-0.998153,-0.034208
2026-01-24T19:32:40.503635,9.006584,-7.125825,5.173282,0.880867,-0.966388,-0.107512
2026-01-24T19:32:40.513635,10.202995,-6.484549,5.331208,1.045801,-1.102000,-0.254119
2026-01-24T19:32:40.522635,11.849257,-5.833701,5.560919,1.059240,-1.415985,-0.443488
2026-01-24T19:32:40.532635,14.136795,-5.312066,5.469992,0.928514,-1.815491,-0.586430
2026-01-24T19:32:40.542635,16.759329,-4.914857,4.967499,0.621860,-2.130697,-0.613308
2026-01-24T19:32:40.551635,19.257437,-4.785645,4.230510,0.112399,-2.106262,-0.587652
2026-01-24T19:32:40.561635,20.793629,-5.254638,3.747160,-0.526565,-1.415985,-0.569326
2026-01-24T19:32:40.570635,19.970497,-6.297909,3.929014,-1.043357,-0.139277,-0.461814
2026-01-24T19:32:40.580635,16.941183,-7.192824,4.326223,-1.194852,1.152091,-0.230907
2026-01-24T19:32:40.590635,13.098310,-7.642675,4.359722,-0.993266,1.963320,0.023212
2026-01-24T19:32:40.599635,9.265009,-7.719245,4.297509,-0.551000,2.243096,0.229685
2026-01-24T19:32:40.609635,6.235695,-7.274180,4.316651,0.050090,2.142914,0.406836
2026-01-24T19:32:40.618635,4.005585,-6.317051,4.450650,0.681725,1.754404,0.563217
2026-01-24T19:32:40.628635,2.991028,-5.015356,4.474578,1.144761,1.139874,0.719599
2026-01-24T19:32:40.638635,3.086741,-3.842873,4.182653,1.382998,0.436157,0.844215
2026-01-24T19:32:40.647635,4.091726,-2.847458,3.790230,1.422093,-0.156381,0.927293
2026-01-24T19:32:40.657635,5.656632,-2.177468,3.704089,1.303586,-0.494800,0.973718
2026-01-24T19:32:40.667635,7.183253,-1.818545,3.565305,1.102000,-0.520457,0.979827
2026-01-24T19:32:40.676635,8.264809,-1.651047,3.479164,0.908967,-0.276111,0.960279
2026-01-24T19:32:40.686635,8.638089,-1.708475,3.364308,0.764803,0.140498,0.923628
2026-01-24T19:32:40.695635,8.212167,-1.689332,3.158525,0.662177,0.608421,0.880867
2026-01-24T19:32:40.705635,7.168896,-1.727617,2.995813,0.602312,1.025031,0.829554
2026-01-24T19:32:40.715635,5.891129,-1.684547,2.852244,0.580321,1.298699,0.774576
2026-01-24T19:32:40.724635,4.498506,-1.627119,2.842673,0.570548,1.390328,0.735481
2026-01-24T19:32:40.734635,3.440878,-1.339980,2.813959,0.552222,1.325577,0.720820
2026-01-24T19:32:40.743635,2.703889,-1.081555,2.708675,0.507018,1.164308,0.722042
2026-01-24T19:32:40.753635,2.411965,-0.880558,2.617747,0.431270,0.971275,0.744033
2026-01-24T19:32:40.763635,2.373680,-0.655633,2.502892,0.332310,0.807563,0.785572
2026-01-24T19:32:40.772635,2.555534,-0.507278,2.325823,0.219911,0.724486,0.825889
2026-01-24T19:32:40.782635,2.699103,-0.502492,2.105683,0.101403,0.745255,0.866206
2026-01-24T19:32:40.792635,2.603390,-0.540777,1.880758,-0.012217,0.858876,0.913854
2026-01-24T19:32:40.801635,2.287538,-0.727418,1.473978,-0.113620,1.029918,0.965166
2026-01-24T19:32:40.811635,1.751546,-0.966700,1.086341,-0.161268,1.208291,1.012814
2026-01-24T19:32:40.820635,1.024128,-1.277767,0.832702,-0.138055,1.354898,1.059240
2026-01-24T19:32:40.830635,0.200997,-1.622333,0.890130,-0.042760,1.435533,1.117883
2026-01-24T19:32:40.840635,-0.435493,-1.966900,0.976271,0.122173,1.423315,1.191186
2026-01-24T19:32:40.849635,-0.756131,-2.263610,1.311266,0.364075,1.315803,1.266934
2026-01-24T19:32:40.859635,-0.827916,-2.282752,1.325623,0.641408,1.112996,1.334129
2026-01-24T19:32:40.868635,-0.296710,-2.163111,1.354337,0.910189,0.863763,1.397659
2026-01-24T19:32:40.878635,0.540777,-1.856830,1.426122,1.120326,0.637743,1.453858
2026-01-24T19:32:40.888635,1.617548,-1.478764,1.526620,1.242499,0.503352,1.497841
2026-01-24T19:32:40.897635,2.823530,-1.320838,1.674975,1.259603,0.481361,1.541823
2026-01-24T19:32:40.907635,3.828516,-1.287338,2.129612,1.191186,0.555887,1.588249
2026-01-24T19:32:40.917635,4.809573,-1.330409,2.517249,1.104444,0.719599,1.622457
2026-01-24T19:32:40.926635,5.398207,-1.301695,2.861815,1.006705,0.943175,1.656666
2026-01-24T19:32:40.936635,5.785845,-1.220339,2.828316,0.861319,1.200960,1.694539
2026-01-24T19:32:40.945635,5.814558,-1.268195,2.665604,0.674395,1.452637,1.710422
2026-01-24T19:32:40.955635,5.618347,-1.134197,2.986242,0.469144,1.674992,1.684765
2026-01-24T19:32:40.965635,5.316851,-1.119840,3.225524,0.185702,1.837482,1.670105
2026-01-24T19:32:40.974635,5.015356,-1.445264,3.330809,-0.127059,1.899790,1.674992
2026-01-24T19:32:40.984635,4.795216,-1.933400,3.278166,-0.377514,1.863138,1.648114
2026-01-24T19:32:40.993635,4.804787,-2.560320,3.311666,-0.565661,1.767843,1.602910
2026-01-24T19:32:41.003635,5.034498,-3.373879,3.517449,-0.708603,1.678657,1.533271
2026-01-24T19:32:41.013635,5.221138,-4.259224,3.785445,-0.779463,1.637118,1.437976
2026-01-24T19:32:41.022635,5.417350,-5.048855,4.163511,-0.728151,1.638340,1.301142
2026-01-24T19:32:41.032635,5.426921,-5.412564,4.460221,-0.618195,1.649335,1.133765
2026-01-24T19:32:41.042635,5.383850,-5.613561,4.694717,-0.508239,1.656666,0.961501
2026-01-24T19:32:41.051635,5.134997,-5.704489,4.756931,-0.406836,1.667661,0.812450
2026-01-24T19:32:41.061635,4.761716,-5.680560,4.895715,-0.359188,1.648114,0.696386
2026-01-24T19:32:41.070635,4.350151,-5.857629,5.230710,-0.416610,1.552819,0.616973
2026-01-24T19:32:41.080635,4.149154,-6.125625,5.388636,-0.494800,1.378111,0.577878
2026-01-24T19:32:41.090635,4.063012,-6.489334,5.560919,-0.563217,1.164308,0.580321
2026-01-24T19:32:41.099635,4.034298,-7.010970,5.647061,-0.627969,0.952949,0.583987
2026-01-24T19:32:41.109635,4.091726,-7.556533,5.996413,-0.634077,0.755029,0.574213
2026-01-24T19:32:41.118635,4.383651,-8.049455,6.781259,-0.608421,0.561995,0.549778
2026-01-24T19:32:41.128635,4.632504,-8.628518,7.293323,-0.572991,0.362853,0.532674
2026-01-24T19:32:41.138635,4.881358,-8.973084,7.604390,-0.450818,0.178372,0.498465
2026-01-24T19:32:41.147635,5.240281,-9.202795,8.068597,-0.339641,0.020769,0.439822
2026-01-24T19:32:41.157635,5.503491,-9.422935,8.566304,-0.299323,-0.098960,0.354301
2026-01-24T19:32:41.167635,5.680560,-9.542576,9.121439,-0.270002,-0.186924,0.266337
2026-01-24T19:32:41.176635,5.752345,-9.652646,9.451649,-0.265115,-0.252898,0.193033
2026-01-24T19:32:41.186635,5.694917,-9.896714,9.595218,-0.366519,-0.324980,0.141720
2026-01-24T19:32:41.195635,5.661418,-10.514062,9.667003,-0.538783,-0.420275,0.091629
2026-01-24T19:32:41.205635,5.694917,-11.174481,9.604789,-0.761137,-0.527787,0.042760
2026-01-24T19:32:41.215635,5.761916,-12.093325,9.963713,-1.073900,-0.638964,-0.029321
2026-01-24T19:32:41.224635,6.049055,-13.165309,10.987841,-1.583362,-0.767246,-0.114842
2026-01-24T19:32:41.234635,6.556333,-14.749358,11.978469,-2.230879,-0.981049,-0.171042
2026-01-24T19:32:41.243635,7.336394,-16.252050,12.232109,-2.685363,-1.381776,-0.224798
2026-01-24T19:32:41.253635,8.618947,-17.477177,12.337393,-2.880839,-1.979202,-0.305432
2026-01-24T19:32:41.263635,10.557133,-18.644873,13.591232,-3.049438,-2.626719,-0.433714
2026-01-24T19:32:41.272635,13.074382,-20.740986,15.481562,-3.266906,-3.099529,-0.587652
2026-01-24T19:32:41.282635,15.768700,-24.181866,16.055840,-3.301115,-3.232698,-0.703716
2026-01-24T19:32:41.292635,18.195023,-28.063023,15.074782,-2.806314,-2.952921,-0.758694
2026-01-24T19:32:41.301635,20.291136,-31.695328,12.988241,-1.720196,-2.386039,-0.977384
2026-01-24T19:32:41.311635,21.276978,-33.475590,9.997212,-0.087964,-1.621236,-1.315803
2026-01-24T19:32:41.320635,21.109480,-32.039894,8.154739,1.685987,-0.827111,-1.643227
2026-01-24T19:32:41.330635,20.233707,-28.010382,8.173882,3.068986,-0.083077,-1.938885
2026-01-24T19:32:41.340635,18.769300,-22.564318,8.676374,3.847228,0.612086,-2.015854
2026-01-24T19:32:41.349635,17.017754,-17.247465,9.174081,3.910758,1.233947,-1.859473
2026-01-24T19:32:41.359635,14.912070,-12.935598,9.748359,3.248580,1.699426,-1.618792
2026-01-24T19:32:41.368635,12.777672,-10.293922,10.140782,2.196670,1.958433,-1.404989
2026-01-24T19:32:41.378635,10.528419,-8.944370,10.413563,1.156978,2.023185,-1.220508
2026-01-24T19:32:41.388635,8.518448,-8.279166,10.643274,0.290771,1.877799,-1.031140
2026-01-24T19:32:41.397635,6.991827,-8.197810,10.437492,-0.372627,1.480737,-0.845437
2026-01-24T19:32:41.407635,6.178267,-8.456235,9.695717,-0.813672,0.886976,-0.681725
2026-01-24T19:32:41.417635,6.345765,-8.848657,8.920442,-1.044579,0.251676,-0.571769
2026-01-24T19:32:41.426635,7.197610,-9.389435,8.379664,-1.076344,-0.250454,-0.530230
2026-01-24T19:32:41.436635,8.063812,-9.829715,7.733602,-0.869871,-0.509461,-0.546113
2026-01-24T19:32:41.445635,8.695517,-9.604789,6.972685,-0.482583,-0.546113,-0.593760
2026-01-24T19:32:41.455635,8.776873,-9.059226,6.436692,-0.073303,-0.412944,-0.657290
2026-01-24T19:32:41.465635,8.327022,-8.384450,6.092126,0.318871,-0.202807,-0.718377
2026-01-24T19:32:41.474635,7.484749,-7.561319,5.991627,0.671951,-0.021991,-0.773355
2026-01-24T19:32:41.484635,6.398407,-6.867400,6.144768,0.950506,0.029321,-0.831998
2026-01-24T19:32:41.493635,5.532205,-6.312266,6.211767,1.158200,-0.078190,-0.862541
2026-01-24T19:32:41.503635,5.015356,-5.828915,6.163911,1.321912,-0.327423,-0.868650
2026-01-24T19:32:41.513635,4.948357,-5.441278,5.895914,1.440419,-0.676838,-0.879645
2026-01-24T19:32:41.522635,5.335994,-4.991427,5.465206,1.495397,-1.065348,-0.906523
2026-01-24T19:32:41.532635,6.178267,-4.622933,5.144568,1.462411,-1.408654,-0.941954
2026-01-24T19:32:41.542635,7.159325,-4.498506,4.785645,1.346346,-1.646892,-0.989601
2026-01-24T19:32:41.551635,8.135596,-4.388436,4.508077,1.188743,-1.766621,-1.032362
2026-01-24T19:32:41.561635,8.958727,-4.441078,4.192225,1.016479,-1.771508,-1.064127
2026-01-24T19:32:41.570635,9.528219,-4.608576,4.153940,0.883310,-1.659109,-1.110552
2026-01-24T19:32:41.580635,9.657432,-4.680361,4.015156,0.818559,-1.440419,-1.154535
2026-01-24T19:32:41.590635,9.308079,-4.503292,3.771088,0.803898,-1.182634,-1.167974
2026-01-24T19:32:41.599635,8.532805,-4.283152,3.584448,0.808785,-0.961501,-1.181413
2026-01-24T19:32:41.609635,7.551748,-3.728017,3.287738,0.803898,-0.845437,-1.213178
2026-01-24T19:32:41.618635,6.551548,-3.172882,3.115455,0.734259,-0.850324,-1.236390
2026-01-24T19:32:41.628635,5.709274,-2.632104,2.751745,0.593760,-0.954171,-1.248608
2026-01-24T19:32:41.638635,5.192425,-2.019542,2.474178,0.390953,-1.125213,-1.258382
2026-01-24T19:32:41.647635,4.847858,-1.512263,2.158325,0.150272,-1.324355,-1.273042
2026-01-24T19:32:41.657635,4.689932,-1.071984,1.780260,-0.118507,-1.508836,-1.293812
2026-01-24T19:32:41.667635,4.632504,-0.866201,1.402194,-0.390953,-1.633453,-1.312138
2026-01-24T19:32:41.676635,4.541577,-0.765703,1.009771,-0.657290,-1.701870,-1.330464
2026-01-24T19:32:41.686635,4.374079,-0.727418,0.646062,-0.875980,-1.720196,-1.359785
2026-01-24T19:32:41.695635,4.096512,-1.081555,0.689132,-1.088561,-1.710422,-1.362229
2026-01-24T19:32:41.705635,3.742374,-1.885544,0.914058,-1.237612,-1.694539,-1.339016
2026-01-24T19:32:41.715635,3.536591,-2.713460,1.526620,-1.205847,-1.685987,-1.303586
2026-01-24T19:32:41.724635,3.297309,-3.345165,2.139183,-0.944397,-1.657887,-1.264490
2026-01-24T19:32:41.734635,3.053241,-3.565305,2.407179,-0.500909,-1.563814,-1.221730
2026-01-24T19:32:41.743635,2.660818,-3.220739,2.120040,-0.018325,-1.378111,-1.163087
2026-01-24T19:32:41.753635,2.072184,-2.742174,1.703689,0.379958,-1.138652,-1.089783
2026-01-24T19:32:41.763635,1.282552,-2.225325,1.296909,0.659734,-0.932180,-1.014036
2026-01-24T19:32:41.772635,0.478564,-1.674975,1.100698,0.825889,-0.808785,-0.930958
2026-01-24T19:32:41.782635,-0.296710,-1.134197,1.421336,0.913854,-0.779463,-0.846659
2026-01-24T19:32:41.792635,-0.756131,-0.579063,2.096112,0.918741,-0.830776,-0.775798
2026-01-24T19:32:41.801635,-0.966700,-0.148355,2.431107,0.830776,-0.924849,-0.689055
2026-01-24T19:32:41.811635,-0.914058,0.124426,2.569891,0.665842,-1.018923,-0.582765
2026-01-24T19:32:41.820635,-0.579063,0.248853,2.670390,0.444709,-1.070235,-0.493579
2026-01-24T19:32:41.830635,-0.220139,0.311066,2.790031,0.185702,-1.044579,-0.432492
2026-01-24T19:32:41.840635,0.181854,-0.004785,2.723032,-0.069638,-0.943175,-0.373849
2026-01-24T19:32:41.849635,0.464207,-0.435493,2.790031,-0.277332,-0.802676,-0.326201
2026-01-24T19:32:41.859635,0.626919,-0.918843,2.794816,-0.416610,-0.649960,-0.299323
2026-01-24T19:32:41.868635,0.760917,-1.411765,3.086741,-0.476474,-0.524122,-0.284663
2026-01-24T19:32:41.878635,0.914058,-1.785045,3.383451,-0.460592,-0.441044,-0.265115
2026-01-24T19:32:41.888635,1.268195,-2.000399,3.622733,-0.412944,-0.405614,-0.234572
2026-01-24T19:32:41.897635,1.852044,-2.009970,3.670589,-0.392175,-0.393397,-0.191811
2026-01-24T19:32:41.907635,2.431107,-2.019542,3.785445,-0.412944,-0.389731,-0.150272
2026-01-24T19:32:41.917635,3.192025,-2.134397,3.952942,-0.507018,-0.392175,-0.101403
2026-01-24T19:32:41.926635,3.909872,-2.531606,4.407579,-0.667064,-0.410501,-0.039095
2026-01-24T19:32:41.936635,4.785645,-3.077169,4.819144,-0.813672,-0.448374,0.020769
2026-01-24T19:32:41.945635,5.761916,-3.780659,5.225924,-0.868650,-0.507018,0.069638
2026-01-24T19:32:41.955635,6.857829,-4.503292,5.536991,-0.827111,-0.559552,0.097738
2026-01-24T19:32:41.965635,8.106882,-5.115854,5.661418,-0.685390,-0.581543,0.089186
2026-01-24T19:32:41.974635,9.226723,-5.441278,5.484349,-0.450818,-0.581543,0.028099
2026-01-24T19:32:41.984635,10.403992,-5.503491,5.283352,-0.217467,-0.599869,-0.076969
2026-01-24T19:32:41.993635,11.672188,-5.455635,4.910071,-0.047647,-0.689055,-0.204028
2026-01-24T19:32:42.003635,13.179666,-5.249852,4.709074,0.067195,-0.858876,-0.338419
2026-01-24T19:32:42.013635,14.935998,-5.091926,4.493720,0.112399,-1.084896,-0.467922
2026-01-24T19:32:42.022635,16.883757,-4.972285,4.469792,0.070860,-1.282816,-0.581543
2026-01-24T19:32:42.032635,18.798014,-4.905286,4.465006,-0.056199,-1.276708,-0.649960
2026-01-24T19:32:42.042635,20.123638,-4.977071,4.345365,-0.239459,-0.880867,-0.626747
2026-01-24T19:32:42.051635,19.745571,-5.101497,4.168296,-0.416610,-0.057421,-0.532674
2026-01-24T19:32:42.061635,17.572889,-5.302494,4.058227,-0.538783,0.948062,-0.386066
2026-01-24T19:32:42.070635,14.160724,-5.484349,4.369294,-0.558330,1.753182,-0.201585
2026-01-24T19:32:42.080635,10.648060,-5.536991,4.584648,-0.416610,2.180788,0.006108
2026-01-24T19:32:42.090635,7.532605,-5.335994,4.680361,-0.127059,2.261422,0.227241
2026-01-24T19:32:42.099635,4.996213,-5.063212,4.594219,0.226020,2.065945,0.449596
2026-01-24T19:32:42.109635,3.364308,-4.579862,4.369294,0.583987,1.656666,0.643851
2026-01-24T19:32:42.118635,2.689532,-3.991228,4.110869,0.929736,1.128878,0.786794
2026-01-24T19:32:42.128635,2.895315,-3.153740,4.043870,1.192408,0.620638,0.867428
2026-01-24T19:32:42.138635,3.847658,-2.306680,3.823730,1.320690,0.262671,0.911410
2026-01-24T19:32:42.147635,4.986642,-1.612762,3.507877,1.324355,0.122173,0.940732
2026-01-24T19:32:42.157635,5.891129,-1.019342,3.129811,1.227838,0.207694,0.935845
2026-01-24T19:32:42.167635,6.388836,-0.665204,2.933600,1.054353,0.458148,0.901636
2026-01-24T19:32:42.176635,6.417550,-0.488135,2.770888,0.853989,0.794124,0.861319
2026-01-24T19:32:42.186635,5.824130,-0.507278,2.636890,0.656069,1.123991,0.830776
2026-01-24T19:32:42.195635,4.871786,-0.545563,2.435893,0.500909,1.374446,0.799011
2026-01-24T19:32:42.205635,3.909872,-0.588634,2.196611,0.382401,1.512502,0.779463
2026-01-24T19:32:42.215635,2.933600,-0.569491,2.057827,0.284663,1.523497,0.780685
2026-01-24T19:32:42.224635,2.373680,-0.579063,1.890329,0.173485,1.430646,0.799011
2026-01-24T19:32:42.234635,2.024327,-0.579063,1.732403,0.062308,1.280373,0.822224
2026-01-24T19:32:42.243635,1.986042,-0.708275,1.660618,-0.040317,1.122770,0.829554
2026-01-24T19:32:42.253635,2.196611,-0.966700,1.292124,-0.113620,0.999375,0.834441
2026-01-24T19:32:42.263635,2.402393,-1.110269,0.870987,-0.102625,0.933401,0.817337
2026-01-24T19:32:42.272635,2.656033,-1.129412,0.507278,-0.047647,0.932180,0.775798
2026-01-24T19:32:42.282635,2.785245,-0.966700,0.535992,0.021991,0.984714,0.728151
2026-01-24T19:32:42.292635,2.857030,-0.851844,0.890130,0.083077,1.072679,0.680503
2026-01-24T19:32:42.301635,2.837887,-0.708275,0.875773,0.127059,1.165530,0.663399
2026-01-24T19:32:42.311635,2.785245,-0.689132,0.464207,0.172263,1.259603,0.689055
2026-01-24T19:32:42.320635,2.383251,-0.531206,-0.095712,0.201585,1.379333,0.703716
2026-01-24T19:32:42.330635,1.794616,-0.435493,-0.177068,0.223576,1.514945,0.687834
2026-01-24T19:32:42.340635,1.071984,-0.425922,0.138783,0.271224,1.606575,0.673173
2026-01-24T19:32:42.349635,0.421136,-0.291924,0.043070,0.316428,1.582140,0.689055
2026-01-24T19:32:42.359635,-0.100498,-0.349352,0.196211,0.311541,1.417207,0.723264
2026-01-24T19:32:42.368635,-0.047856,-0.430708,0.698704,0.265115,1.102000,0.748920
2026-01-24T19:32:42.378635,0.689132,-0.631705,1.330409,0.188146,0.682947,0.784350
2026-01-24T19:32:42.388635,1.842473,-0.885344,1.732403,0.112399,0.279776,0.840550
2026-01-24T19:32:42.397635,3.206382,-1.182054,2.225325,0.009773,0.021991,0.896749
2026-01-24T19:32:42.407635,4.656432,-1.526620,2.751745,-0.123394,-0.037873,0.927293
2026-01-24T19:32:42.417635,5.785845,-1.765903,3.335594,-0.233350,0.086742,0.941954
2026-01-24T19:32:42.426635,6.393621,-2.158325,3.828516,-0.333532,0.340862,0.960279
2026-01-24T19:32:42.436635,6.489334,-2.493321,4.149154,-0.430049,0.640186,0.978605
2026-01-24T19:32:42.445635,6.111268,-2.857030,4.125226,-0.474031,0.902858,0.970053
2026-01-24T19:32:42.455635,5.402993,-3.010170,3.804587,-0.459370,1.067792,0.929736
2026-01-24T19:32:42.465635,4.694717,-3.206382,3.771088,-0.433714,1.091005,0.866206
2026-01-24T19:32:42.474635,4.048655,-3.517449,4.086941,-0.414166,0.993266,0.799011
2026-01-24T19:32:42.484635,3.761517,-3.957728,4.689932,-0.379958,0.833220,0.745255
2026-01-24T19:32:42.493635,3.560520,-4.335794,5.268995,-0.277332,0.665842,0.702494
2026-01-24T19:32:42.503635,3.680161,-4.656432,5.915057,-0.128281,0.513126,0.662177
2026-01-24T19:32:42.513635,3.895515,-5.039284,6.384050,-0.024434,0.373849,0.645073
2026-01-24T19:32:42.522635,4.225724,-5.479563,6.546762,0.103847,0.251676,0.647517
2026-01-24T19:32:42.532635,4.584648,-5.718846,6.508477,0.279776,0.147829,0.643851
2026-01-24T19:32:42.542635,4.953142,-5.809773,6.379265,0.419053,0.067195,0.631634
2026-01-24T19:32:42.551635,5.312066,-5.838487,5.996413,0.521678,-0.001221,0.625525
2026-01-24T19:32:42.561635,5.666203,-5.766702,6.159125,0.607199,-0.075747,0.608421
2026-01-24T19:32:42.570635,6.053841,-5.560919,6.604190,0.572991,-0.166155,0.599869
2026-01-24T19:32:42.580635,6.460621,-5.661418,7.274180,0.400727,-0.273667,0.623082
2026-01-24T19:32:42.590635,6.996613,-6.049055,7.719245,0.219911,-0.383623,0.658512
2026-01-24T19:32:42.599635,7.633104,-6.599404,8.159525,0.045204,-0.480139,0.697607
2026-01-24T19:32:42.609635,8.389236,-7.580461,8.542376,-0.109955,-0.546113,0.715933
2026-01-24T19:32:42.618635,9.188438,-8.571090,8.886943,-0.152716,-0.583987,0.709825
2026-01-24T19:32:42.628635,10.121639,-9.528219,9.202795,-0.030543,-0.575434,0.689055
2026-01-24T19:32:42.638635,10.825129,-10.083354,9.087940,0.212581,-0.502131,0.657290
2026-01-24T19:32:42.647635,11.428120,-9.992427,8.910871,0.487470,-0.344527,0.608421
2026-01-24T19:32:42.657635,11.681759,-9.513862,8.977870,0.693942,-0.116064,0.548556
2026-01-24T19:32:42.667635,11.609975,-8.575876,9.068797,0.747698,0.146607,0.494800
2026-01-24T19:32:42.676635,11.198409,-7.747959,9.427721,0.599869,0.368962,0.472809
2026-01-24T19:32:42.686635,10.681560,-7.264609,9.810572,0.243124,0.496022,0.481361
2026-01-24T19:32:42.695635,10.274780,-7.446463,10.236495,-0.271224,0.514348,0.504574
2026-01-24T19:32:42.705635,10.064211,-8.489734,10.624132,-0.785572,0.442266,0.518013
2026-01-24T19:32:42.715635,10.188638,-10.025926,10.978270,-1.172861,0.310319,0.516791
2026-01-24T19:32:42.724635,10.585847,-11.820543,10.896914,-1.359785,0.161268,0.510683
2026-01-24T19:32:42.734635,10.935199,-13.213166,10.963913,-1.314581,0.043982,0.472809
2026-01-24T19:32:42.743635,11.227123,-14.065011,11.083554,-1.104444,-0.034208,0.383623
2026-01-24T19:32:42.753635,11.265408,-14.194223,11.566904,-0.861319,-0.150272,0.301767
2026-01-24T19:32:42.763635,11.279765,-14.184652,12.576675,-0.722042,-0.432492,0.237015
2026-01-24T19:32:42.772635,11.782258,-14.447862,14.653645,-0.704938,-0.934623,0.134390
2026-01-24T19:32:42.782635,13.222737,-15.199209,17.190037,-0.696386,-1.541823,-0.004886
2026-01-24T19:32:42.792635,15.309278,-16.859829,18.228521,-0.580321,-2.013411,-0.106290
2026-01-24T19:32:42.801635,17.304893,-18.783657,16.467405,-0.278554,-2.095267,-0.134390
2026-01-24T19:32:42.811635,18.477377,-20.118853,12.935598,0.254119,-1.734856,-0.174707
2026-01-24T19:32:42.820635,18.697515,-20.243279,9.494720,0.894306,-1.109331,-0.332310
2026-01-24T19:32:42.830635,18.218950,-19.080366,8.130811,1.307251,-0.488692,-0.594982
2026-01-24T19:32:42.840635,17.477177,-17.462818,8.652446,1.329242,-0.010995,-0.889419
2026-01-24T19:32:42.849635,16.845470,-15.629917,9.461220,1.076344,0.256563,-1.044579
2026-01-24T19:32:42.859635,16.481762,-13.849657,9.753144,0.641408,0.270002,-0.998153
2026-01-24T19:32:42.868635,16.634901,-12.332607,9.791430,0.074525,0.133168,-0.871093
2026-01-24T19:32:42.878635,17.036896,-11.045269,9.528219,-0.452040,0.094073,-0.775798
2026-01-24T19:32:42.888635,17.012968,-9.671788,9.178867,-0.862541,0.306654,-0.697607
2026-01-24T19:32:42.897635,16.194624,-7.992027,9.499505,-1.208291,0.762359,-0.691499
2026-01-24T19:32:42.907635,14.495719,-6.565905,9.255437,-1.585805,1.308473,-0.733038
2026-01-24T19:32:42.917635,12.050254,-6.106483,8.082954,-1.937664,1.701870,-0.719599
2026-01-24T19:32:42.926635,9.576076,-6.814758,7.010970,-2.130697,1.839925,-0.680503
2026-01-24T19:32:42.936635,7.374679,-8.274380,7.700103,-2.045176,1.736078,-0.642630
2026-01-24T19:32:42.945635,5.513063,-9.054440,8.039883,-1.510058,1.260825,-0.682947
2026-01-24T19:32:42.955635,4.723431,-8.288737,6.159125,-0.874758,0.386066,-0.917519
2026-01-24T19:32:42.965635,5.426921,-6.876972,4.579862,-0.935845,-0.444709,-1.213178
2026-01-24T19:32:42.974635,7.010970,-6.929614,4.680361,-1.561371,-0.819780,-1.244943
2026-01-24T19:32:42.984635,7.733602,-8.776873,4.694717,-1.819156,-0.744033,-0.916297
2026-01-24T19:32:42.993635,7.594818,-10.021141,3.177668,-1.153313,-0.680503,-0.800233
2026-01-24T19:32:43.003635,7.255038,-9.499505,1.588834,-0.161268,-0.609643,-0.998153
2026-01-24T19:32:43.013635,6.570690,-8.164310,1.636690,0.587652,-0.561995,-1.170417
2026-01-24T19:32:43.022635,5.575276,-6.685546,1.703689,1.109331,-0.623082,-1.268155
2026-01-24T19:32:43.032635,4.723431,-5.134997,1.445264,1.397659,-0.899193,-1.332907
2026-01-24T19:32:43.042635,4.383651,-3.804587,1.708475,1.374446,-1.370781,-1.384220
2026-01-24T19:32:43.051635,4.608576,-2.995813,2.488535,1.106887,-1.919338,-1.393994
2026-01-24T19:32:43.061635,5.297709,-2.785245,3.196810,0.774576,-2.427577,-1.330464
2026-01-24T19:32:43.070635,6.441478,-3.000599,3.948157,0.553443,-2.809979,-1.279151
2026-01-24T19:32:43.080635,7.676174,-3.220739,4.522434,0.470366,-3.005456,-1.276708
2026-01-24T19:32:43.090635,8.810372,-3.402593,4.173082,0.519235,-2.967582,-1.301142
2026-01-24T19:32:43.099635,9.332008,-3.177668,3.450450,0.642630,-2.740340,-1.357342
2026-01-24T19:32:43.109635,9.274580,-2.617747,2.995813,0.680503,-2.430021,-1.439198
2026-01-24T19:32:43.118635,8.915657,-2.019542,2.579462,0.537561,-2.162462,-1.501506
2026-01-24T19:32:43.128635,8.303094,-1.732403,2.474178,0.278554,-1.996307,-1.544267
2026-01-24T19:32:43.138635,7.680960,-1.684547,2.182254,-0.028099,-1.938885,-1.566258
2026-01-24T19:32:43.147635,7.178467,-1.866401,2.038684,-0.305432,-1.959655,-1.591914
2026-01-24T19:32:43.157635,6.958328,-2.268395,1.942971,-0.508239,-1.997528,-1.617570
2026-01-24T19:32:43.167635,6.905686,-2.837887,2.009970,-0.594982,-2.036624,-1.622457
2026-01-24T19:32:43.176635,6.905686,-3.302095,1.957328,-0.515570,-2.058615,-1.624901
2026-01-24T19:32:43.186635,6.967899,-3.560520,2.215753,-0.282219,-2.021963,-1.642005
2026-01-24T19:32:43.195635,6.977470,-3.488735,2.641676,-0.003665,-1.905899,-1.642005
2026-01-24T19:32:43.205635,6.857829,-3.168097,2.646461,0.251676,-1.744630,-1.606575
2026-01-24T19:32:43.215635,6.513263,-2.574677,2.627319,0.434935,-1.569923,-1.538158
2026-01-24T19:32:43.224635,6.039484,-1.856830,2.732603,0.491135,-1.400102,-1.470963
2026-01-24T19:32:43.234635,5.292923,-1.349551,2.852244,0.408057,-1.244943,-1.373224
2026-01-24T19:32:43.243635,4.565505,-1.009771,2.900100,0.233350,-1.103222,-1.227838
2026-01-24T19:32:43.253635,3.723231,-1.024128,2.794816,0.003665,-0.989601,-1.061683
2026-01-24T19:32:43.263635,3.005385,-1.205982,2.799602,-0.254119,-0.919962,-0.857654
2026-01-24T19:32:43.272635,2.230110,-1.641476,2.818745,-0.419053,-0.885754,-0.691499
2026-01-24T19:32:43.282635,1.727617,-2.287538,3.479164,-0.522900,-0.864984,-0.575434
2026-01-24T19:32:43.292635,1.536192,-3.397808,4.321437,-0.499687,-0.841772,-0.470366
2026-01-24T19:32:43.301635,1.603191,-4.086941,4.957928,-0.152716,-0.846659,-0.403170
2026-01-24T19:32:43.311635,1.952543,-3.924229,5.431707,0.417831,-0.797789,-0.356745
2026-01-24T19:32:43.320635,2.206182,-2.660818,5.326423,0.911410,-0.629191,-0.289550
2026-01-24T19:32:43.330635,2.215753,-1.076770,4.977071,1.117883,-0.359188,-0.259006
2026-01-24T19:32:43.340635,2.038684,0.430708,4.771288,1.025031,-0.040317,-0.254119
2026-01-24T19:32:43.349635,1.445264,1.574477,4.603790,0.662177,0.282219,-0.213802
2026-01-24T19:32:43.359635,0.612562,2.057827,4.273581,0.097738,0.533896,-0.161268
2026-01-24T19:32:43.368635,-0.148355,1.914258,4.077369,-0.555887,0.720820,-0.135612
2026-01-24T19:32:43.378635,-0.904486,0.957129,4.168296,-1.170417,0.722042,-0.054977
2026-01-24T19:32:43.388635,-1.143769,-0.378065,4.331008,-1.527162,0.494800,0.036651
2026-01-24T19:32:43.397635,-0.660419,-1.478764,3.881158,-1.574810,0.210137,0.123394
2026-01-24T19:32:43.407635,0.023928,-2.153540,3.134597,-1.434311,-0.023212,0.186924
2026-01-24T19:32:43.417635,1.115055,-2.483749,2.837887,-1.263269,-0.202807,0.204028
2026-01-24T19:32:43.426635,2.210968,-2.665604,2.866601,-1.108109,-0.323758,0.205250
2026-01-24T19:32:43.436635,3.287738,-2.656033,3.029313,-0.927293,-0.401949,0.175929
2026-01-24T19:32:43.445635,4.455435,-2.660818,2.751745,-0.807563,-0.378736,0.130725
2026-01-24T19:32:43.455635,5.402993,-2.986242,2.469392,-0.773355,-0.301767,0.106290
2026-01-24T19:32:43.465635,6.427121,-3.598805,2.225325,-0.675616,-0.296880,0.079412
2026-01-24T19:32:43.474635,7.561319,-4.053441,1.852044,-0.437379,-0.394618,0.028099
2026-01-24T19:32:43.484635,8.829515,-4.173082,1.392622,-0.158824,-0.533896,-0.048869
2026-01-24T19:32:43.493635,10.226923,-4.077369,1.201196,0.094073,-0.696386,-0.182037
2026-01-24T19:32:43.503635,11.978469,-3.766302,1.234696,0.277332,-0.928514,-0.346971
2026-01-24T19:32:43.513635,14.208580,-3.321237,0.708275,0.353080,-1.254716,-0.480139
2026-01-24T19:32:43.522635,16.874184,-2.799602,-0.076570,0.289550,-1.558927,-0.558330
2026-01-24T19:32:43.532635,19.726429,-2.330609,-0.880558,0.057421,-1.607796,-0.598647
2026-01-24T19:32:43.542635,21.774685,-2.134397,-1.287338,-0.337197,-1.175304,-0.634077
2026-01-24T19:32:43.551635,21.908684,-2.455035,-1.244267,-0.829554,-0.215024,-0.641408
2026-01-24T19:32:43.561635,19.664215,-3.153740,-0.248853,-1.229060,0.984714,-0.609643
2026-01-24T19:32:43.570635,15.778272,-3.771088,0.985842,-1.419650,1.941329,-0.529009
2026-01-24T19:32:43.580635,11.696116,-4.177868,1.832902,-1.390328,2.376265,-0.371405
2026-01-24T19:32:43.590635,8.111668,-4.316651,2.617747,-1.230282,2.344500,-0.166155
2026-01-24T19:32:43.599635,5.422136,-4.522434,3.464807,-1.009149,2.015854,0.045204
2026-01-24T19:32:43.609635,3.675375,-4.756931,4.048655,-0.764803,1.486845,0.283441
2026-01-24T19:32:43.618635,3.048455,-4.890929,4.589433,-0.465479,0.831998,0.531452
2026-01-24T19:32:43.628635,3.637090,-5.015356,5.010570,-0.202807,0.185702,0.744033
2026-01-24T19:32:43.638635,5.149354,-5.254638,4.680361,-0.021991,-0.310319,0.933401
2026-01-24T19:32:43.647635,7.068397,-5.460421,4.072584,0.141720,-0.524122,1.080009
2026-01-24T19:32:43.657635,8.695517,-5.536991,3.455235,0.295658,-0.431270,1.149648
2026-01-24T19:32:43.667635,9.896714,-5.422136,2.895315,0.409279,-0.064751,1.169195
2026-01-24T19:32:43.676635,10.207781,-5.206781,2.603390,0.497244,0.480139,1.161865
2026-01-24T19:32:43.686635,9.638289,-4.814359,2.589034,0.542448,1.065348,1.155756
2026-01-24T19:32:43.695635,8.331808,-4.421936,2.598605,0.542448,1.551597,1.144761
2026-01-24T19:32:43.705635,6.829115,-4.192225,2.981456,0.470366,1.844812,1.141096
2026-01-24T19:32:43.715635,5.355136,-4.168296,3.196810,0.342084,1.910786,1.172861
2026-01-24T19:32:43.724635,4.321437,-4.192225,3.172882,0.243124,1.769065,1.240056
2026-01-24T19:32:43.734635,3.838087,-4.259224,3.402593,0.182037,1.489289,1.310916
2026-01-24T19:32:43.743635,3.890729,-4.326223,3.670589,0.130725,1.178969,1.389107
2026-01-24T19:32:43.753635,4.340580,-4.560719,3.397808,0.116064,0.945619,1.502728
2026-01-24T19:32:43.763635,4.905286,-4.594219,3.268595,0.175929,0.879645,1.627344
2026-01-24T19:32:43.772635,5.254638,-4.517649,3.278166,0.280997,1.028696,1.738522
2026-01-24T19:32:43.782635,5.048855,-4.297509,3.230310,0.425162,1.359785,1.859473
2026-01-24T19:32:43.792635,4.273581,-3.847658,3.220739,0.599869,1.762956,2.002415
2026-01-24T19:32:43.801635,3.014956,-3.431307,2.971885,0.764803,2.116036,2.163684
2026-01-24T19:32:43.811635,1.799402,-3.000599,2.981456,0.901636,2.349387,2.349387
2026-01-24T19:32:43.820635,0.693918,-2.732603,2.847458,1.012814,2.423912,2.541198
2026-01-24T19:32:43.830635,-0.086141,-2.526820,2.273181,1.072679,2.310291,2.741562
2026-01-24T19:32:43.840635,-0.129212,-2.469392,1.694118,1.067792,2.006081,2.941926
2026-01-24T19:32:43.849635,0.507278,-2.378465,1.306481,1.040914,1.572366,3.088534
2026-01-24T19:32:43.859635,1.741974,-2.435893,1.277767,0.981049,1.167974,3.185050
2026-01-24T19:32:43.868635,3.158525,-2.478964,1.196411,0.933401,0.932180,3.222924
2026-01-24T19:32:43.878635,4.426721,-2.541177,1.225125,0.952949,0.907745,3.171611
2026-01-24T19:32:43.888635,5.412564,-2.478964,1.536192,1.027475,1.053131,3.048216
2026-01-24T19:32:43.897635,5.905486,-2.402393,2.076970,1.152091,1.312138,2.880839
2026-01-24T19:32:43.907635,5.905486,-2.033899,2.335394,1.312138,1.645670,2.711019
2026-01-24T19:32:43.917635,5.388636,-1.588834,2.349751,1.419650,1.985311,2.564411
2026-01-24T19:32:43.926635,4.488935,-1.301695,2.148754,1.415985,2.256535,2.433686
2026-01-24T19:32:43.936635,3.512663,-1.134197,1.880758,1.319468,2.389704,2.332282
2026-01-24T19:32:43.945635,2.555534,-1.076770,1.627119,1.159421,2.372600,2.263866
2026-01-24T19:32:43.955635,1.909472,-1.129412,1.392622,1.000597,2.235766,2.190562
2026-01-24T19:32:43.965635,1.526620,-1.182054,1.387837,0.825889,2.035402,2.125810
2026-01-24T19:32:43.974635,1.454836,-1.215553,1.765903,0.692721,1.814269,2.047619
2026-01-24T19:32:43.984635,1.718046,-1.225125,2.311466,0.604756,1.613905,1.958433
2026-01-24T19:32:43.993635,2.048256,-1.325623,2.723032,0.488692,1.472184,1.891238
2026-01-24T19:32:44.003635,2.388036,-1.584048,2.799602,0.339641,1.382998,1.827708
2026-01-24T19:32:44.013635,2.584248,-2.105683,2.703889,0.175929,1.343903,1.759291
2026-01-24T19:32:44.022635,2.545963,-2.962314,2.967100,0.014660,1.356120,1.660331
2026-01-24T19:32:44.032635,2.297109,-3.962514,3.421736,-0.112399,1.367116,1.536936
2026-01-24T19:32:44.042635,2.033899,-5.091926,3.957728,-0.168598,1.334129,1.411098
2026-01-24T19:32:44.051635,1.698904,-6.163911,4.436293,-0.140498,1.225395,1.279151
2026-01-24T19:32:44.061635,1.383051,-7.154539,5.173282,-0.072082,1.023809,1.125213
2026-01-24T19:32:44.070635,1.325623,-8.063812,6.245266,0.024434,0.741590,0.945619
2026-01-24T19:32:44.080635,1.588834,-8.666803,7.331608,0.168598,0.384845,0.784350
2026-01-24T19:32:44.090635,2.244467,-8.958727,8.283951,0.355523,0.002443,0.671951
2026-01-24T19:32:44.099635,3.230310,-8.681160,9.083154,0.503352,-0.326201,0.602312
2026-01-24T19:32:44.109635,4.359722,-8.236095,9.820143,0.536339,-0.510683,0.568104
2026-01-24T19:32:44.118635,5.182853,-8.063812,10.236495,0.437379,-0.497244,0.571769
2026-01-24T19:32:44.128635,5.752345,-8.159525,10.389635,0.234572,-0.322536,0.597426
2026-01-24T19:32:44.138635,5.656632,-8.834301,10.571490,-0.026878,-0.073303,0.620638
2026-01-24T19:32:44.147635,5.182853,-9.944570,10.557133,-0.216246,0.141720,0.616973
2026-01-24T19:32:44.157635,4.445864,-11.006983,10.738987,-0.224798,0.248011,0.577878
2026-01-24T19:32:44.167635,3.823730,-11.758330,11.251051,-0.114842,0.211359,0.510683
2026-01-24T19:32:44.176635,3.560520,-12.246466,11.609975,0.028099,0.053756,0.443488
2026-01-24T19:32:44.186635,3.565305,-12.409178,11.858828,0.183259,-0.160046,0.383623
2026-01-24T19:32:44.195635,3.962514,-12.308679,11.988041,0.266337,-0.345749,0.320093
2026-01-24T19:32:44.205635,4.560719,-12.227323,12.370892,0.189368,-0.453261,0.252898
2026-01-24T19:32:44.215635,5.067998,-12.485748,13.088739,-0.031764,-0.486248,0.190589
2026-01-24T19:32:44.224635,5.733202,-13.428520,13.897513,-0.364075,-0.470366,0.151494
2026-01-24T19:32:44.234635,6.403193,-15.026925,14.227723,-0.685390,-0.456927,0.141720
2026-01-24T19:32:44.243635,7.058826,-17.261822,14.093725,-0.856432,-0.485026,0.131946
2026-01-24T19:32:44.253635,8.059026,-19.377077,13.935798,-0.752585,-0.529009,0.075747
2026-01-24T19:32:44.263635,8.901300,-20.879770,13.395020,-0.324980,-0.520457,-0.029321
2026-01-24T19:32:44.272635,9.647860,-21.099909,13.079168,0.324980,-0.405614,-0.172263
2026-01-24T19:32:44.282635,9.920642,-19.994425,12.892528,0.929736,-0.200363,-0.349414
2026-01-24T19:32:44.292635,9.710074,-17.860027,13.237094,1.238834,0.024434,-0.559552
2026-01-24T19:32:44.301635,9.198010,-15.505490,13.725230,1.170417,0.195476,-0.758694
2026-01-24T19:32:44.311635,8.456235,-13.624731,14.337793,0.701273,0.245567,-0.902858
2026-01-24T19:32:44.320635,7.743173,-12.605389,14.658431,-0.037873,0.149051,-0.993266
2026-01-24T19:32:44.330635,7.283751,-12.863814,14.490933,-0.861319,-0.047647,-1.025031
2026-01-24T19:32:44.340635,6.996613,-14.117653,14.361721,-1.663996,-0.265115,-0.978605
2026-01-24T19:32:44.349635,6.786044,-16.012768,14.447862,-2.114815,-0.417831,-0.946840
2026-01-24T19:32:44.359635,6.398407,-17.453247,14.835500,-2.012189,-0.470366,-0.927293
2026-01-24T19:32:44.368635,5.651846,-17.936598,14.959926,-1.552819,-0.460592,-0.878424
2026-01-24T19:32:44.378635,4.651647,-17.644672,14.557932,-0.930958,-0.470366,-0.817337
2026-01-24T19:32:44.388635,3.527020,-16.572689,13.730016,-0.233350,-0.553443,-0.768468
2026-01-24T19:32:44.397635,2.751745,-14.849857,12.868599,0.415388,-0.747698,-0.745255
2026-01-24T19:32:44.407635,2.483749,-12.988241,11.858828,0.895528,-1.058018,-0.723264
2026-01-24T19:32:44.417635,2.857030,-11.298908,10.628917,1.207069,-1.437976,-0.689055
2026-01-24T19:32:44.426635,3.594019,-9.853643,9.073583,1.423315,-1.797165,-0.662177
2026-01-24T19:32:44.436635,4.608576,-8.518448,7.288537,1.558927,-2.073276,-0.659734
2026-01-24T19:32:44.445635,5.565705,-7.264609,5.599204,1.579697,-2.235766,-0.681725
2026-01-24T19:32:44.455635,6.465406,-6.340979,4.364508,1.480737,-2.263866,-0.718377
2026-01-24T19:32:44.465635,7.211967,-5.608776,3.613162,1.328020,-2.166127,-0.777020
2026-01-24T19:32:44.474635,7.537391,-5.082355,3.230310,1.189965,-1.980424,-0.863763
2026-01-24T19:32:44.484635,7.312465,-4.646861,3.067598,1.119104,-1.776395,-0.948062
2026-01-24T19:32:44.493635,6.805187,-4.115654,2.938386,1.108109,-1.602910,-1.034805
2026-01-24T19:32:44.503635,6.068198,-3.617947,2.909672,1.105665,-1.502728,-1.142317
2026-01-24T19:32:44.513635,5.407779,-2.957528,2.866601,1.060461,-1.503949,-1.236390
2026-01-24T19:32:44.522635,4.871786,-2.522035,2.938386,0.963945,-1.601688,-1.298699
2026-01-24T19:32:44.532635,4.565505,-2.134397,3.077169,0.790459,-1.772730,-1.362229
2026-01-24T19:32:44.542635,4.522434,-1.895115,3.306880,0.591317,-1.995085,-1.445306
2026-01-24T19:32:44.551635,4.886143,-1.765903,3.555734,0.405614,-2.202779,-1.534493
2026-01-24T19:32:44.561635,5.259424,-1.651047,3.637090,0.224798,-2.359161,-1.610240
2026-01-24T19:32:44.570635,5.761916,-1.641476,3.412165,0.026878,-2.441016,-1.684765
2026-01-24T19:32:44.580635,6.202196,-1.689332,3.273381,-0.185702,-2.456899,-1.769065
2026-01-24T19:32:44.590635,6.556333,-1.837687,3.244667,-0.373849,-2.412917,-1.876577
2026-01-24T19:32:44.599635,6.628118,-2.191825,2.962314,-0.499687,-2.322509,-1.970650
2026-01-24T19:32:44.609635,6.522834,-2.502892,2.766102,-0.544891,-2.214996,-2.063502
2026-01-24T19:32:44.618635,6.273980,-2.751745,2.617747,-0.527787,-2.127032,-2.161240
2026-01-24T19:32:44.628635,6.020341,-2.976671,2.569891,-0.450818,-2.078163,-2.233322
2026-01-24T19:32:44.638635,5.737988,-2.952743,2.545963,-0.324980,-2.091602,-2.291965
2026-01-24T19:32:44.647635,5.781059,-2.947957,2.675175,-0.174707,-2.164905,-2.345722
2026-01-24T19:32:44.657635,6.111268,-2.656033,2.885744,-0.026878,-2.298074,-2.379930
2026-01-24T19:32:44.667635,6.709474,-2.043470,2.828316,0.073303,-2.445903,-2.395812
2026-01-24T19:32:44.676635,7.446463,-1.363908,2.550748,0.043982,-2.549750,-2.394591
2026-01-24T19:32:44.686635,8.336593,-0.698704,2.163111,-0.138055,-2.554637,-2.375043
2026-01-24T19:32:44.695635,8.934799,-0.296710,1.890329,-0.433714,-2.427577,-2.348165
2026-01-24T19:32:44.705635,9.269794,-0.167497,1.751546,-0.814894,-2.193005,-2.320065
2026-01-24T19:32:44.715635,9.183653,-0.358923,1.540977,-1.237612,-1.930333,-2.269974
2026-01-24T19:32:44.724635,8.752945,-0.971485,1.627119,-1.640783,-1.703091,-2.205223
2026-01-24T19:32:44.734635,8.216952,-1.909472,1.679761,-1.948659,-1.543045,-2.135584
2026-01-24T19:32:44.743635,7.728816,-2.914457,1.837687,-2.079384,-1.458745,-2.070832
2026-01-24T19:32:44.753635,7.255038,-3.847658,1.904686,-2.018298,-1.420872,-2.017076
2026-01-24T19:32:44.763635,6.829115,-4.431507,2.091326,-1.782504,-1.390328,-1.977981
2026-01-24T19:32:44.772635,6.518048,-4.608576,2.301895,-1.436754,-1.347568,-1.936442
2026-01-24T19:32:44.782635,6.173482,-4.412364,2.541177,-1.072679,-1.287703,-1.880242
2026-01-24T19:32:44.792635,5.795416,-4.000799,2.818745,-0.748920,-1.232725,-1.811825
2026-01-24T19:32:44.801635,5.450849,-3.416950,3.019742,-0.513126,-1.167974,-1.725083
2026-01-24T19:32:44.811635,5.029713,-2.842673,3.105883,-0.381179,-1.086118,-1.623679
2026-01-24T19:32:44.820635,4.646861,-2.421536,3.182454,-0.346971,-0.992044,-1.507615
2026-01-24T19:32:44.830635,4.297509,-2.120040,3.330809,-0.377514,-0.900415,-1.386663
2026-01-24T19:32:44.840635,3.929014,-2.024327,3.273381,-0.449596,-0.823446,-1.252273
2026-01-24T19:32:44.849635,3.680161,-2.110469,3.168097,-0.524122,-0.772133,-1.103222
2026-01-24T19:32:44.859635,3.637090,-2.239681,3.086741,-0.563217,-0.737925,-0.962723
2026-01-24T19:32:44.868635,3.728017,-2.388036,2.900100,-0.558330,-0.708603,-0.833220
2026-01-24T19:32:44.878635,3.919443,-2.340180,2.804388,-0.526565,-0.658512,-0.713490
2026-01-24T19:32:44.888635,4.153940,-2.187039,2.689532,-0.491135,-0.566882,-0.603534
2026-01-24T19:32:44.897635,4.326223,-1.928615,2.555534,-0.496022,-0.442266,-0.507018
2026-01-24T19:32:44.907635,4.450650,-1.732403,2.569891,-0.557108,-0.315206,-0.420275
2026-01-24T19:32:44.917635,4.541577,-1.665404,2.675175,-0.657290,-0.211359,-0.342084
2026-01-24T19:32:44.926635,4.723431,-1.555334,2.660818,-0.777020,-0.151494,-0.271224
2026-01-24T19:32:44.936635,4.910071,-1.631905,2.622533,-0.901636,-0.136833,-0.218689
2026-01-24T19:32:44.945635,5.431707,-1.832902,2.617747,-1.027475,-0.160046,-0.188146
2026-01-24T19:32:44.955635,5.986842,-1.938186,2.617747,-1.143539,-0.202807,-0.178372
2026-01-24T19:32:44.965635,6.790830,-2.067398,2.526820,-1.242499,-0.267558,-0.193033
2026-01-24T19:32:44.974635,7.767102,-2.301895,2.483749,-1.335351,-0.342084,-0.226020
2026-01-24T19:32:44.984635,8.819944,-2.407179,2.483749,-1.417207,-0.392175,-0.270002
2026-01-24T19:32:44.993635,9.911071,-2.617747,2.364108,-1.485623,-0.393397,-0.326201
2026-01-24T19:32:45.003635,10.954341,-2.770888,2.072184,-1.544267,-0.332310,-0.405614
2026-01-24T19:32:45.013635,11.820543,-2.785245,1.746760,-1.613905,-0.193033,-0.494800
2026-01-24T19:32:45.022635,12.366107,-2.809173,1.363908,-1.709200,-0.004886,-0.583987
2026-01-24T19:32:45.032635,12.691531,-2.699103,1.162911,-1.841147,0.188146,-0.662177
2026-01-24T19:32:45.042635,12.787243,-2.584248,0.904486,-2.031737,0.349414,-0.722042
2026-01-24T19:32:45.051635,12.710673,-2.383251,0.631705,-2.269974,0.476474,-0.755029
2026-01-24T19:32:45.061635,12.595818,-2.340180,0.516849,-2.550972,0.566882,-0.756251
2026-01-24T19:32:45.070635,12.318250,-2.301895,0.306281,-2.877174,0.630412,-0.720820
2026-01-24T19:32:45.080635,11.978469,-2.493321,0.052642,-3.236363,0.662177,-0.649960
2026-01-24T19:32:45.090635,11.600403,-2.756531,-0.234496,-3.596773,0.651182,-0.547335
2026-01-24T19:32:45.099635,11.365907,-3.249453,-0.502492,-3.913201,0.602312,-0.421496
2026-01-24T19:32:45.109635,11.117053,-3.881158,-0.722632,-4.146552,0.549778,-0.282219
2026-01-24T19:32:45.118635,10.863414,-4.603790,-0.923629,-4.263838,0.519235,-0.141720
2026-01-24T19:32:45.128635,10.384850,-5.264209,-1.148554,-4.236960,0.527787,-0.017104
2026-01-24T19:32:45.138635,9.781858,-5.996413,-1.215553,-4.067139,0.570548,0.087964
2026-01-24T19:32:45.147635,8.949156,-6.604190,-1.033699,-3.761707,0.618195,0.164933
2026-01-24T19:32:45.157635,7.853243,-7.039684,-0.885344,-3.334101,0.619417,0.230907
2026-01-24T19:32:45.167635,6.862615,-7.293323,-0.555134,-2.812422,0.533896,0.283441
2026-01-24T19:32:45.176635,6.072983,-7.503891,-0.153140,-2.206444,0.339641,0.320093
2026-01-24T19:32:45.186635,5.541777,-7.417750,0.028713,-1.514945,0.068416,0.366519
2026-01-24T19:32:45.195635,5.407779,-7.341179,0.291924,-0.814894,-0.250454,0.408057
2026-01-24T19:32:45.205635,5.670989,-7.044469,0.564706,-0.136833,-0.547335,0.423940
2026-01-24T19:32:45.215635,6.206981,-6.661618,0.689132,0.521678,-0.759916,0.432492
2026-01-24T19:32:45.224635,6.838686,-6.044269,0.789631,1.098335,-0.867428,0.417831
2026-01-24T19:32:45.234635,7.197610,-5.340780,0.765703,1.574810,-0.864984,0.381179
2026-01-24T19:32:45.243635,7.518248,-4.565505,0.684347,1.907120,-0.819780,0.343306
2026-01-24T19:32:45.253635,7.690531,-3.929014,0.669990,2.064724,-0.791681,0.293215
2026-01-24T19:32:45.263635,7.829315,-3.407379,0.851844,2.089158,-0.822224,0.248011
2026-01-24T19:32:45.272635,8.264809,-3.058027,0.899701,2.047619,-0.913854,0.210137
2026-01-24T19:32:45.282635,8.910871,-2.885744,0.870987,1.954768,-1.060461,0.156381
2026-01-24T19:32:45.292635,9.777073,-2.746960,0.937986,1.825264,-1.247386,0.078190
2026-01-24T19:32:45.301635,11.021340,-2.694318,1.320838,1.682322,-1.444085,-0.025656
2026-01-24T19:32:45.311635,12.514462,-2.598605,1.866401,1.524719,-1.589471,-0.142942
2026-01-24T19:32:45.320635,14.108082,-2.459821,1.909472,1.341459,-1.611462,-0.229685
2026-01-24T19:32:45.330635,15.270993,-2.306680,1.703689,1.114217,-1.458745,-0.287106
2026-01-24T19:32:45.340635,15.811771,-2.076970,1.579262,0.795346,-1.138652,-0.338419
2026-01-24T19:32:45.349635,15.625131,-2.005185,1.588834,0.378736,-0.723264,-0.367740
2026-01-24T19:32:45.359635,14.691930,-2.249253,1.861615,-0.057421,-0.311541,-0.349414
2026-01-24T19:32:45.368635,13.165309,-2.775674,2.177468,-0.427605,-0.012217,-0.278554
2026-01-24T19:32:45.378635,11.533404,-3.488735,2.569891,-0.664621,0.118507,-0.174707
2026-01-24T19:32:45.388635,10.164710,-4.240081,2.790031,-0.744033,0.075747,-0.042760
2026-01-24T19:32:45.397635,9.135796,-5.139782,3.345165,-0.645073,-0.106290,0.100181
2026-01-24T19:32:45.407635,8.791230,-5.680560,4.713860,-0.367740,-0.415388,0.223576
2026-01-24T19:32:45.417635,9.312865,-5.393422,7.197610,0.124616,-0.785572,0.322536
2026-01-24T19:32:45.426635,10.346564,-2.574677,12.533604,0.893084,-1.148426,0.450818
2026-01-24T19:32:45.436635,11.844471,2.311466,18.711872,1.744630,-1.335351,0.775798
2026-01-24T19:32:45.445635,12.686745,2.957528,13.261022,1.824043,-1.165530,0.978605
2026-01-24T19:32:45.455635,13.371092,1.019342,6.297909,1.682322,-0.781907,0.686612
2026-01-24T19:32:45.465635,13.581661,-0.684347,2.679961,1.611462,-0.196698,0.299323
2026-01-24T19:32:45.474635,12.356535,-1.201196,1.899901,1.651779,0.640186,0.048869
2026-01-24T19:32:45.484635,10.030712,-0.387637,2.904886,1.560149,1.297477,-0.074525
2026-01-24T19:32:45.493635,7.680960,-1.019342,3.311666,0.806341,1.461189,-0.008552
2026-01-24T19:32:45.503635,6.020341,-3.766302,2.316252,0.163711,1.274264,0.210137
2026-01-24T19:32:45.513635,5.130211,-6.029912,1.593619,0.360410,1.003040,0.375071
2026-01-24T19:32:45.522635,4.689932,-7.073183,1.301695,0.979827,0.757472,0.351858
2026-01-24T19:32:45.532635,4.704289,-7.537391,0.818345,1.650557,0.553443,0.205250
2026-01-24T19:32:45.542635,4.972285,-7.417750,0.818345,2.469116,0.406836,0.057421
2026-01-24T19:32:45.551635,5.402993,-5.958128,1.459621,3.282789,0.285884,-0.042760
2026-01-24T19:32:45.561635,5.991627,-3.761517,1.799402,3.715281,0.157603,-0.085521
2026-01-24T19:32:45.570635,6.752545,-1.919043,2.048256,3.630982,0.048869,-0.070860
2026-01-24T19:32:45.580635,7.499106,-0.832702,2.306680,3.172833,-0.034208,-0.024434
2026-01-24T19:32:45.590635,8.307880,-0.713061,2.464607,2.587624,-0.116064,0.041538
2026-01-24T19:32:45.599635,9.245866,-1.301695,2.522035,2.056171,-0.226020,0.109955
2026-01-24T19:32:45.609635,10.341779,-2.105683,2.794816,1.639561,-0.379958,0.153938
2026-01-24T19:32:45.618635,11.672188,-3.029313,2.986242,1.354898,-0.538783,0.190589
2026-01-24T19:32:45.628635,12.993026,-3.684946,2.924029,1.202182,-0.603534,0.246789
2026-01-24T19:32:45.638635,14.222937,-3.842873,2.502892,1.120326,-0.486248,0.307876
2026-01-24T19:32:45.647635,14.835500,-3.445664,2.053041,1.003040,-0.174707,0.334754
2026-01-24T19:32:45.657635,14.806786,-2.981456,1.627119,0.737925,0.238237,0.375071
2026-01-24T19:32:45.667635,14.213366,-2.684746,1.435693,0.332310,0.591317,0.448374
2026-01-24T19:32:45.676635,13.428520,-2.947957,1.244267,-0.112399,0.789237,0.564439
2026-01-24T19:32:45.686635,12.624532,-3.661018,1.009771,-0.482583,0.846659,0.714712
2026-01-24T19:32:45.695635,11.897113,-4.512863,0.933200,-0.730594,0.835663,0.856432
2026-01-24T19:32:45.705635,11.313265,-5.431707,0.947557,-0.814894,0.836885,0.982271
2026-01-24T19:32:45.715635,10.566704,-6.211767,1.191625,-0.724486,0.890641,1.102000
2026-01-24T19:32:45.724635,9.753144,-6.795616,1.325623,-0.498465,0.984714,1.232725
2026-01-24T19:32:45.734635,8.819944,-7.034898,1.478764,-0.153938,1.065348,1.370781
2026-01-24T19:32:45.743635,7.762316,-6.996613,1.713260,0.265115,1.092226,1.499062
