Timestamp,Acceleration_X,Acceleration_Y,Acceleration_Z,Gyro_X,Gyro_Y,Gyro_Z
2026-03-26T22:38:29.967911,7.436892,6.202196,2.072184,0.171042,-0.047647,-0.123394
2026-03-26T22:38:29.977911,7.470392,6.187839,2.005185,0.173485,-0.013439,-0.084299
2026-03-26T22:38:29.986911,7.484749,6.192624,2.029113,0.167377,0.007330,-0.069638
2026-03-26T22:38:29.996911,7.484749,6.125625,2.187039,0.169820,0.017104,-0.076969
2026-03-26T22:38:30.005911,7.451249,6.149554,2.139183,0.150272,-0.025656,-0.087964
2026-03-26T22:38:30.015911,7.494320,6.154339,2.072184,0.118507,-0.057421,-0.098960
2026-03-26T22:38:30.025911,7.422535,6.168696,2.057827,0.105068,-0.065973,-0.108733
2026-03-26T22:38:30.034911,7.441678,6.125625,2.081755,0.103847,-0.067195,-0.118507
2026-03-26T22:38:30.044911,7.389036,6.240481,2.124826,0.100181,-0.065973,-0.120951
2026-03-26T22:38:30.054911,7.417750,6.178267,2.086541,0.094073,-0.064751,-0.112399
2026-03-26T22:38:30.063911,7.412964,6.216553,2.072184,0.070860,-0.068416,-0.113620
2026-03-26T22:38:30.073911,7.417750,6.235695,2.029113,0.032986,-0.069638,-0.111177
2026-03-26T22:38:30.082911,7.379464,6.293123,2.033899,0.012217,-0.063529,-0.089186
2026-03-26T22:38:30.092911,7.398607,6.230910,2.120040,0.014660,-0.058643,-0.056199
2026-03-26T22:38:30.102911,7.465606,6.273980,2.105683,0.025656,-0.061086,-0.031764
2026-03-26T22:38:30.111911,7.460820,6.240481,2.072184,0.037873,-0.053756,-0.012217
2026-03-26T22:38:30.121911,7.460820,6.192624,2.081755,0.041538,-0.050090,-0.023212
2026-03-26T22:38:30.130911,7.389036,6.240481,2.105683,0.057421,-0.057421,-0.045204
2026-03-26T22:38:30.140911,7.503891,6.163911,2.072184,0.074525,-0.061086,-0.059864
2026-03-26T22:38:30.150911,7.374679,6.197410,2.076970,0.096516,-0.065973,-0.073303
2026-03-26T22:38:30.159911,7.417750,6.278766,2.048256,0.111177,-0.073303,-0.069638
2026-03-26T22:38:30.169911,7.365107,6.302694,2.057827,0.109955,-0.081855,-0.051312
2026-03-26T22:38:30.179911,7.412964,6.226124,2.062613,0.112399,-0.097738,-0.034208
2026-03-26T22:38:30.188911,7.408178,6.288337,2.000399,0.125838,-0.112399,-0.019547
2026-03-26T22:38:30.198911,7.508677,6.269195,2.009970,0.127059,-0.116064,-0.013439
2026-03-26T22:38:30.207911,7.408178,6.235695,2.062613,0.124616,-0.114842,-0.017104
2026-03-26T22:38:30.217911,7.451249,6.206981,2.019542,0.127059,-0.114842,-0.037873
2026-03-26T22:38:30.227911,7.422535,6.221338,1.957328,0.139277,-0.118507,-0.062308
2026-03-26T22:38:30.236911,7.412964,6.269195,1.904686,0.141720,-0.113620,-0.070860
2026-03-26T22:38:30.246911,7.412964,6.331408,1.919043,0.134390,-0.102625,-0.069638
2026-03-26T22:38:30.255911,7.412964,6.293123,1.909472,0.123394,-0.086742,-0.067195
2026-03-26T22:38:30.265911,7.422535,6.293123,1.933400,0.109955,-0.069638,-0.062308
2026-03-26T22:38:30.275911,7.369893,6.283552,1.909472,0.112399,-0.064751,-0.068416
2026-03-26T22:38:30.284911,7.475177,6.307480,1.880758,0.101403,-0.062308,-0.083077
2026-03-26T22:38:30.294911,7.432106,6.288337,1.919043,0.092851,-0.062308,-0.106290
2026-03-26T22:38:30.304911,7.398607,6.312266,1.890329,0.086742,-0.064751,-0.106290
2026-03-26T22:38:30.313911,7.355536,6.317051,1.904686,0.081855,-0.068416,-0.097738
2026-03-26T22:38:30.323911,7.374679,6.384050,1.976471,0.091629,-0.083077,-0.090408
2026-03-26T22:38:30.332911,7.374679,6.384050,1.962114,0.108733,-0.095294,-0.079412
2026-03-26T22:38:30.342911,7.369893,6.293123,1.986042,0.117286,-0.095294,-0.087964
2026-03-26T22:38:30.352911,7.293323,6.364908,1.832902,0.122173,-0.097738,-0.094073
2026-03-26T22:38:30.361911,7.379464,6.407978,1.880758,0.111177,-0.089186,-0.087964
2026-03-26T22:38:30.371911,7.422535,6.331408,1.880758,0.096516,-0.086742,-0.084299
2026-03-26T22:38:30.380911,7.427321,6.230910,1.942971,0.100181,-0.076969,-0.109955
2026-03-26T22:38:30.390911,7.341179,6.374479,1.852044,0.117286,-0.087964,-0.116064
2026-03-26T22:38:30.400911,7.451249,6.340979,1.713260,0.095294,-0.079412,-0.112399
2026-03-26T22:38:30.409911,7.456035,6.297909,1.727617,0.065973,-0.073303,-0.113620
2026-03-26T22:38:30.419911,7.398607,6.312266,1.751546,0.045204,-0.061086,-0.089186
2026-03-26T22:38:30.429911,7.743173,5.953342,1.722832,0.018325,-0.047647,-0.056199
2026-03-26T22:38:30.438911,7.546962,6.159125,1.813759,-0.001221,-0.028099,-0.040317
2026-03-26T22:38:30.448911,7.317251,6.479763,1.813759,-0.009773,-0.004886,-0.052534
2026-03-26T22:38:30.457911,7.063612,6.532405,1.942971,-0.009773,0.006108,-0.113620
2026-03-26T22:38:30.467911,7.288537,6.336194,2.067398,0.039095,-0.019547,-0.216246
2026-03-26T22:38:30.477911,7.436892,6.293123,1.813759,0.106290,-0.028099,-0.197920
2026-03-26T22:38:30.486911,7.494320,6.364908,1.895115,0.141720,-0.004886,-0.134390
2026-03-26T22:38:30.496911,7.082754,6.652046,1.866401,0.173485,0.010995,-0.097738
2026-03-26T22:38:30.505911,7.211967,6.551548,1.818545,0.196698,0.003665,-0.068416
2026-03-26T22:38:30.515911,7.322037,6.369693,1.842473,0.218689,0.009773,0.007330
2026-03-26T22:38:30.525911,7.144968,6.656832,1.847259,0.233350,0.003665,0.046425
2026-03-26T22:38:30.534911,7.044469,6.675975,1.871187,0.230907,-0.023212,0.034208
2026-03-26T22:38:30.544911,7.216752,6.537191,1.761117,0.226020,-0.056199,0.023212
2026-03-26T22:38:30.554911,7.173682,6.541976,1.789831,0.233350,-0.065973,0.056199
2026-03-26T22:38:30.563911,7.154539,6.474977,1.794616,0.237015,-0.056199,0.136833
2026-03-26T22:38:30.573911,7.283751,6.522834,1.751546,0.255341,-0.059864,0.156381
2026-03-26T22:38:30.582911,7.240681,6.575476,1.636690,0.262671,-0.063529,0.164933
2026-03-26T22:38:30.592911,7.369893,6.455835,1.660618,0.250454,-0.053756,0.169820
2026-03-26T22:38:30.602911,7.345965,6.484549,1.732403,0.246789,-0.045204,0.172263
2026-03-26T22:38:30.611911,7.422535,6.364908,1.588834,0.244346,-0.020769,0.213802
2026-03-26T22:38:30.621911,7.312465,6.565905,1.641476,0.229685,0.014660,0.260228
2026-03-26T22:38:30.630911,7.298108,6.455835,1.722832,0.211359,0.032986,0.274889
2026-03-26T22:38:30.640911,7.288537,6.508477,1.531406,0.195476,0.040317,0.271224
2026-03-26T22:38:30.650911,7.389036,6.297909,1.646261,0.173485,0.047647,0.262671
2026-03-26T22:38:30.659911,7.412964,6.326622,1.718046,0.194255,0.045204,0.245567
2026-03-26T22:38:30.669911,7.360322,6.326622,1.756331,0.211359,0.019547,0.210137
2026-03-26T22:38:30.679911,7.417750,6.317051,1.670190,0.226020,-0.009773,0.182037
2026-03-26T22:38:30.688911,7.451249,6.297909,1.607976,0.222354,-0.034208,0.167377
2026-03-26T22:38:30.698911,7.369893,6.364908,1.636690,0.201585,-0.045204,0.168598
2026-03-26T22:38:30.707911,7.446463,6.345765,1.517049,0.178372,-0.052534,0.175929
2026-03-26T22:38:30.717911,7.360322,6.345765,1.593619,0.152716,-0.058643,0.171042
2026-03-26T22:38:30.727911,7.575676,6.154339,1.536192,0.136833,-0.053756,0.166155
2026-03-26T22:38:30.736911,7.513462,6.288337,1.584048,0.141720,-0.056199,0.145385
2026-03-26T22:38:30.746911,7.513462,6.293123,1.521835,0.129503,-0.059864,0.128281
2026-03-26T22:38:30.755911,7.561319,6.183053,1.512263,0.120951,-0.051312,0.118507
2026-03-26T22:38:30.765911,7.494320,6.235695,1.603191,0.123394,-0.051312,0.120951
2026-03-26T22:38:30.775911,7.436892,6.321837,1.574477,0.133168,-0.061086,0.136833
2026-03-26T22:38:30.784911,7.508677,6.273980,1.521835,0.136833,-0.068416,0.140498
2026-03-26T22:38:30.794911,7.542176,6.183053,1.478764,0.128281,-0.063529,0.156381
2026-03-26T22:38:30.804911,7.647461,6.269195,1.488335,0.112399,-0.042760,0.174707
2026-03-26T22:38:30.813911,7.647461,6.235695,1.507478,0.091629,-0.021991,0.190589
2026-03-26T22:38:30.823911,7.542176,6.226124,1.440479,0.076969,-0.006108,0.196698
2026-03-26T22:38:30.832911,7.570890,6.230910,1.473978,0.051312,0.013439,0.195476
2026-03-26T22:38:30.842911,7.551748,6.288337,1.478764,0.009773,0.037873,0.210137
2026-03-26T22:38:30.852911,7.714460,6.096911,1.402194,-0.037873,0.047647,0.266337
2026-03-26T22:38:30.861911,7.503891,6.321837,1.593619,-0.087964,0.058643,0.293215
2026-03-26T22:38:30.871911,7.604390,6.173482,1.584048,-0.131946,0.048869,0.333532
2026-03-26T22:38:30.880911,7.680960,6.144768,1.574477,-0.156381,0.061086,0.398284
2026-03-26T22:38:30.890911,8.106882,5.747559,1.584048,-0.173485,0.131946,0.515570
2026-03-26T22:38:30.900911,8.657232,5.369493,1.890329,-0.163711,0.371405,0.796568
2026-03-26T22:38:30.909911,6.661618,6.747759,1.263410,-0.162490,0.806341,1.251051
2026-03-26T22:38:30.919911,7.432106,5.938985,1.785045,-0.133168,0.558330,0.973718
2026-03-26T22:38:30.929911,8.015955,5.532205,2.182254,-0.034208,0.419053,0.872315
2026-03-26T22:38:30.938911,7.594818,5.824130,1.612762,0.006108,0.368962,0.818559
2026-03-26T22:38:30.948911,8.216952,5.398207,2.067398,-0.001221,0.296880,0.715933
2026-03-26T22:38:30.957911,8.020741,5.393422,2.053041,-0.019547,0.317649,0.695164
2026-03-26T22:38:30.967911,7.810172,5.594419,1.852044,-0.008552,0.309097,0.651182
2026-03-26T22:38:30.977911,7.867600,5.479563,1.871187,0.020769,0.221133,0.549778
2026-03-26T22:38:30.986911,8.269594,5.130211,2.143969,0.043982,0.157603,0.485026
2026-03-26T22:38:30.996911,7.910671,5.469992,1.986042,0.043982,0.087964,0.372627
2026-03-26T22:38:31.005911,8.001598,5.273781,2.072184,0.064751,-0.009773,0.244346
2026-03-26T22:38:31.015911,7.977670,5.335994,1.962114,0.109955,-0.092851,0.140498
2026-03-26T22:38:31.025911,8.039883,5.278566,1.971685,0.156381,-0.172263,0.058643
2026-03-26T22:38:31.034911,8.063812,5.292923,1.942971,0.213802,-0.223576,-0.012217
2026-03-26T22:38:31.044911,8.116454,5.335994,1.842473,0.239459,-0.252898,-0.067195
2026-03-26T22:38:31.054911,8.001598,5.398207,1.890329,0.237015,-0.256563,-0.089186
2026-03-26T22:38:31.063911,8.020741,5.312066,2.029113,0.232128,-0.284663,-0.091629
2026-03-26T22:38:31.073911,7.977670,5.450849,2.091326,0.293215,-0.355523,-0.122173
2026-03-26T22:38:31.082911,8.059026,5.335994,1.923829,0.359188,-0.425162,-0.123394
2026-03-26T22:38:31.092911,8.049455,5.335994,1.832902,0.395840,-0.449596,-0.116064
2026-03-26T22:38:31.102911,7.891528,5.469992,1.976471,0.447153,-0.508239,-0.096516
2026-03-26T22:38:31.111911,7.896314,5.565705,1.694118,0.483805,-0.598647,-0.036651
2026-03-26T22:38:31.121911,8.145168,5.527420,1.402194,0.432492,-0.614530,0.023212
2026-03-26T22:38:31.130911,8.169096,5.642275,1.325623,0.337197,-0.566882,0.029321
2026-03-26T22:38:31.140911,8.197810,5.455635,1.330409,0.257785,-0.482583,0.008552
2026-03-26T22:38:31.150911,8.149953,5.479563,1.119840,0.215024,-0.434935,-0.007330
2026-03-26T22:38:31.159911,7.867600,5.747559,0.698704,0.164933,-0.499687,-0.062308
2026-03-26T22:38:31.169911,7.925028,5.503491,0.928415,0.095294,-0.543669,-0.105068
2026-03-26T22:38:31.179911,8.135596,5.474778,1.201196,0.039095,-0.488692,-0.125838
2026-03-26T22:38:31.188911,8.092526,5.484349,1.210768,0.025656,-0.463035,-0.124616
2026-03-26T22:38:31.198911,7.834101,5.551348,1.081555,0.051312,-0.646295,-0.168598
2026-03-26T22:38:31.207911,8.374879,5.264209,1.330409,0.057421,-0.532674,-0.134390
2026-03-26T22:38:31.217911,8.054240,5.584847,0.933200,0.040317,-0.368962,-0.109955
2026-03-26T22:38:31.227911,8.145168,5.503491,1.000199,0.008552,-0.302989,-0.100181
2026-03-26T22:38:31.236911,7.948956,5.541777,1.095912,-0.031764,-0.223576,-0.091629
2026-03-26T22:38:31.246911,8.087740,5.527420,0.985842,-0.061086,-0.218689,-0.084299
2026-03-26T22:38:31.255911,8.173882,5.536991,1.177268,-0.087964,-0.206472,-0.080634
2026-03-26T22:38:31.265911,8.121239,5.532205,1.119840,-0.100181,-0.163711,-0.067195
2026-03-26T22:38:31.275911,8.173882,5.575276,1.091127,-0.106290,-0.129503,-0.042760
2026-03-26T22:38:31.284911,8.207381,5.522634,1.229910,-0.101403,-0.095294,-0.024434
2026-03-26T22:38:31.294911,8.092526,5.479563,1.153340,-0.057421,-0.091629,-0.019547
2026-03-26T22:38:31.304911,8.169096,5.474778,1.033699,-0.017104,-0.074525,-0.015882
2026-03-26T22:38:31.313911,8.111668,5.575276,1.081555,-0.020769,-0.028099,-0.021991
2026-03-26T22:38:31.323911,8.197810,5.513063,1.076770,-0.030543,-0.003665,-0.032986
2026-03-26T22:38:31.332911,8.044669,5.498706,1.153340,-0.036651,0.008552,-0.045204
2026-03-26T22:38:31.342911,8.068597,5.560919,1.201196,-0.026878,0.001221,-0.056199
2026-03-26T22:38:31.352911,8.059026,5.623133,1.105484,-0.013439,-0.002443,-0.057421
2026-03-26T22:38:31.361911,8.082954,5.608776,1.134197,-0.010995,0.007330,-0.037873
2026-03-26T22:38:31.371911,7.982456,5.536991,1.210768,-0.007330,0.000000,-0.025656
2026-03-26T22:38:31.380911,8.078169,5.565705,1.115055,0.019547,-0.020769,-0.009773
2026-03-26T22:38:31.390911,8.063812,5.589633,1.148554,0.035430,-0.024434,0.014660
2026-03-26T22:38:31.400911,8.135596,5.599204,1.129412,0.042760,-0.025656,0.026878
2026-03-26T22:38:31.409911,8.106882,5.594419,1.110269,0.042760,-0.026878,0.034208
2026-03-26T22:38:31.419911,8.073383,5.489135,1.115055,0.037873,-0.028099,0.036651
2026-03-26T22:38:31.429911,8.078169,5.541777,1.148554,0.037873,-0.037873,0.037873
2026-03-26T22:38:31.438911,8.073383,5.532205,1.138983,0.034208,-0.047647,0.036651
2026-03-26T22:38:31.448911,8.149953,5.527420,1.105484,0.029321,-0.061086,0.010995
2026-03-26T22:38:31.457911,8.073383,5.489135,1.057627,0.024434,-0.068416,-0.013439
2026-03-26T22:38:31.467911,8.135596,5.580062,1.172483,0.019547,-0.069638,-0.026878
2026-03-26T22:38:31.477911,8.092526,5.570491,1.143769,0.025656,-0.076969,-0.040317
2026-03-26T22:38:31.486911,8.126025,5.603990,1.095912,0.035430,-0.079412,-0.041538
2026-03-26T22:38:31.496911,8.111668,5.599204,1.071984,0.030543,-0.069638,-0.026878
2026-03-26T22:38:31.505911,8.116454,5.565705,1.048056,0.012217,-0.050090,-0.013439
2026-03-26T22:38:31.515911,8.073383,5.551348,1.115055,0.003665,-0.042760,0.000000
2026-03-26T22:38:31.525911,8.126025,5.560919,1.110269,-0.004886,-0.036651,0.020769
2026-03-26T22:38:31.534911,8.111668,5.551348,1.158126,-0.013439,-0.029321,0.030543
2026-03-26T22:38:31.544911,8.140382,5.527420,1.205982,-0.002443,-0.047647,0.015882
2026-03-26T22:38:31.554911,8.073383,5.560919,1.105484,0.001221,-0.069638,0.002443
2026-03-26T22:38:31.563911,8.078169,5.546562,1.119840,-0.013439,-0.078190,-0.002443
2026-03-26T22:38:31.573911,8.044669,5.594419,1.076770,-0.036651,-0.081855,-0.004886
2026-03-26T22:38:31.582911,8.140382,5.541777,1.091127,-0.069638,-0.102625,-0.007330
2026-03-26T22:38:31.592911,8.073383,5.541777,1.048056,-0.098960,-0.107512,-0.029321
2026-03-26T22:38:31.602911,8.068597,5.513063,1.138983,-0.119729,-0.106290,-0.067195
2026-03-26T22:38:31.611911,8.097311,5.517848,1.091127,-0.131946,-0.103847,-0.092851
2026-03-26T22:38:31.621911,8.149953,5.565705,1.076770,-0.141720,-0.091629,-0.095294
2026-03-26T22:38:31.630911,8.063812,5.560919,1.129412,-0.146607,-0.085521,-0.089186
2026-03-26T22:38:31.640911,8.087740,5.560919,1.205982,-0.134390,-0.089186,-0.079412
2026-03-26T22:38:31.650911,8.011170,5.527420,1.239482,-0.080634,-0.107512,-0.078190
2026-03-26T22:38:31.659911,8.059026,5.608776,1.091127,-0.018325,-0.123394,-0.062308
2026-03-26T22:38:31.669911,8.097311,5.623133,1.124626,0.009773,-0.120951,-0.035430
2026-03-26T22:38:31.679911,8.106882,5.584847,1.091127,0.004886,-0.120951,-0.015882
2026-03-26T22:38:31.688911,8.102097,5.632704,1.062413,-0.053756,-0.123394,0.013439
2026-03-26T22:38:31.698911,8.078169,5.493920,1.095912,-0.120951,-0.122173,-0.001221
2026-03-26T22:38:31.707911,8.087740,5.580062,1.091127,-0.156381,-0.128281,-0.047647
2026-03-26T22:38:31.717911,8.078169,5.503491,1.115055,-0.175929,-0.129503,-0.084299
2026-03-26T22:38:31.727911,8.097311,5.603990,1.119840,-0.171042,-0.129503,-0.109955
2026-03-26T22:38:31.736911,7.135396,6.369693,0.703489,-0.162490,-0.162490,-0.153938
2026-03-26T22:38:31.746911,8.240881,5.417350,1.229910,-0.161268,-0.370184,-0.371405
2026-03-26T22:38:31.755911,8.116454,5.608776,1.148554,-0.162490,-0.349414,-0.307876
2026-03-26T22:38:31.765911,7.867600,5.838487,1.057627,-0.189368,-0.268780,-0.191811
2026-03-26T22:38:31.775911,7.925028,5.800201,0.990628,-0.217467,-0.271224,-0.211359
2026-03-26T22:38:31.784911,7.704888,6.010770,1.038485,-0.228463,-0.311541,-0.295658
2026-03-26T22:38:31.794911,8.159525,5.556134,1.115055,-0.221133,-0.317649,-0.317649
2026-03-26T22:38:31.804911,8.006384,5.718846,0.990628,-0.216246,-0.284663,-0.298102
2026-03-26T22:38:31.813911,7.714460,5.967699,0.942772,-0.233350,-0.284663,-0.329867
2026-03-26T22:38:31.823911,7.738388,6.111268,0.995414,-0.257785,-0.326201,-0.436157
2026-03-26T22:38:31.832911,7.805387,6.010770,1.091127,-0.305432,-0.419053,-0.596204
2026-03-26T22:38:31.842911,7.365107,6.297909,0.899701,-0.332310,-0.492357,-0.777020
2026-03-26T22:38:31.852911,8.451449,5.599204,1.368694,-0.326201,-0.529009,-0.878424
2026-03-26T22:38:31.861911,7.326822,5.934200,0.545563,-0.321315,-0.491135,-0.764803
2026-03-26T22:38:31.871911,8.250452,5.838487,1.182054,-0.289550,-0.475253,-0.634077
2026-03-26T22:38:31.880911,7.613961,6.680760,1.004985,-0.300545,-0.420275,-0.560774
2026-03-26T22:38:31.890911,7.503891,6.230910,1.014556,-0.294436,-0.355523,-0.443488
2026-03-26T22:38:31.900911,7.776673,5.996413,1.028913,-0.266337,-0.327423,-0.329867
2026-03-26T22:38:31.909911,7.838886,6.039484,1.134197,-0.232128,-0.321315,-0.260228
2026-03-26T22:38:31.919911,7.719245,6.049055,0.971485,-0.196698,-0.302989,-0.211359
2026-03-26T22:38:31.929911,7.738388,6.135197,0.990628,-0.171042,-0.272445,-0.169820
2026-03-26T22:38:31.938911,7.877171,6.465406,1.038485,-0.161268,-0.254119,-0.155159
2026-03-26T22:38:31.948911,7.728816,6.235695,0.961914,-0.138055,-0.229685,-0.130725
2026-03-26T22:38:31.957911,7.637889,6.087340,0.890130,-0.101403,-0.191811,-0.096516
2026-03-26T22:38:31.967911,7.647461,6.130411,0.918843,-0.050090,-0.151494,-0.065973
2026-03-26T22:38:31.977911,7.594818,6.139982,0.870987,0.007330,-0.109955,-0.045204
2026-03-26T22:38:31.986911,7.704888,6.173482,0.952343,0.052534,-0.074525,-0.023212
2026-03-26T22:38:31.996911,7.666603,6.125625,1.033699,0.087964,-0.051312,-0.012217
2026-03-26T22:38:32.005911,7.575676,6.340979,0.942772,0.118507,-0.037873,0.004886
2026-03-26T22:38:32.015911,7.604390,6.183053,0.827916,0.118507,-0.032986,0.017104
2026-03-26T22:38:32.025911,7.676174,6.187839,0.904486,0.114842,-0.021991,0.003665
2026-03-26T22:38:32.034911,7.633104,6.168696,0.904486,0.112399,-0.010995,-0.014660
2026-03-26T22:38:32.044911,7.609175,6.197410,0.890130,0.108733,-0.009773,-0.020769
2026-03-26T22:38:32.054911,7.585247,6.273980,0.847059,0.096516,-0.024434,-0.013439
2026-03-26T22:38:32.063911,7.676174,6.235695,0.847059,0.076969,-0.031764,-0.012217
2026-03-26T22:38:32.073911,7.590033,6.269195,0.847059,0.062308,-0.031764,-0.015882
2026-03-26T22:38:32.082911,7.613961,6.302694,0.803988,0.039095,-0.019547,-0.008552
2026-03-26T22:38:32.092911,7.594818,6.192624,0.861416,0.031764,-0.010995,0.001221
2026-03-26T22:38:32.102911,7.685746,6.192624,0.818345,0.036651,-0.012217,0.003665
2026-03-26T22:38:32.111911,7.590033,6.254838,0.880558,0.040317,-0.010995,0.000000
2026-03-26T22:38:32.121911,7.637889,6.183053,0.842273,0.040317,-0.014660,0.000000
2026-03-26T22:38:32.130911,7.647461,6.206981,0.904486,0.042760,-0.013439,-0.004886
2026-03-26T22:38:32.140911,7.642675,6.211767,0.851844,0.041538,-0.017104,0.001221
2026-03-26T22:38:32.150911,7.580461,6.149554,0.909272,0.035430,-0.017104,0.006108
2026-03-26T22:38:32.159911,7.637889,6.178267,0.942772,0.037873,-0.020769,0.001221
2026-03-26T22:38:32.169911,7.642675,6.240481,0.894915,0.046425,-0.024434,0.001221
2026-03-26T22:38:32.179911,7.566105,6.211767,0.861416,0.054977,-0.035430,0.002443
2026-03-26T22:38:32.188911,7.585247,6.173482,0.880558,0.061086,-0.039095,0.000000
2026-03-26T22:38:32.198911,7.657032,6.163911,0.947557,0.070860,-0.042760,-0.006108
2026-03-26T22:38:32.207911,7.585247,6.230910,0.894915,0.090408,-0.048869,-0.008552
2026-03-26T22:38:32.217911,7.676174,6.197410,0.885344,0.096516,-0.046425,-0.010995
2026-03-26T22:38:32.227911,7.633104,6.254838,0.890130,0.096516,-0.036651,-0.012217
2026-03-26T22:38:32.236911,7.604390,6.202196,0.794417,0.076969,-0.043982,0.001221
2026-03-26T22:38:32.246911,7.633104,6.235695,0.847059,0.048869,-0.030543,0.008552
2026-03-26T22:38:32.255911,7.671389,6.273980,0.818345,0.026878,-0.012217,0.009773
2026-03-26T22:38:32.265911,7.609175,6.178267,0.861416,0.000000,0.002443,0.007330
2026-03-26T22:38:32.275911,7.685746,6.163911,0.914058,-0.013439,0.002443,-0.009773
2026-03-26T22:38:32.284911,7.585247,6.125625,0.923629,-0.013439,-0.004886,-0.037873
2026-03-26T22:38:32.294911,7.671389,6.259623,0.799202,-0.014660,-0.006108,-0.051312
2026-03-26T22:38:32.304911,7.633104,6.206981,0.909272,-0.032986,0.000000,-0.046425
2026-03-26T22:38:32.313911,7.613961,6.192624,0.947557,-0.041538,-0.001221,-0.039095
2026-03-26T22:38:32.323911,7.623532,6.211767,0.937986,-0.031764,-0.014660,-0.041538
2026-03-26T22:38:32.332911,7.556533,6.245266,0.976271,-0.009773,-0.029321,-0.035430
2026-03-26T22:38:32.342911,7.590033,6.245266,0.923629,0.004886,-0.035430,-0.019547
2026-03-26T22:38:32.352911,7.599604,6.211767,0.966700,0.008552,-0.032986,-0.017104
2026-03-26T22:38:32.361911,7.623532,6.235695,0.957129,0.018325,-0.029321,-0.014660
2026-03-26T22:38:32.371911,7.637889,6.202196,0.851844,0.023212,-0.025656,-0.012217
2026-03-26T22:38:32.380911,7.604390,6.187839,0.952343,0.024434,-0.020769,-0.012217
2026-03-26T22:38:32.390911,7.580461,6.259623,0.937986,0.021991,-0.024434,-0.006108
2026-03-26T22:38:32.400911,7.637889,6.202196,0.937986,0.013439,-0.030543,0.002443
2026-03-26T22:38:32.409911,7.566105,6.221338,0.885344,0.014660,-0.039095,-0.004886
2026-03-26T22:38:32.419911,7.609175,6.235695,0.875773,0.007330,-0.045204,-0.013439
2026-03-26T22:38:32.429911,7.599604,6.235695,0.947557,0.000000,-0.039095,-0.023212
2026-03-26T22:38:32.438911,7.633104,6.235695,0.909272,0.001221,-0.036651,-0.018325
2026-03-26T22:38:32.448911,7.604390,6.245266,0.961914,0.004886,-0.039095,-0.010995
2026-03-26T22:38:32.457911,7.642675,6.202196,0.914058,0.004886,-0.037873,-0.002443
2026-03-26T22:38:32.467911,7.613961,6.168696,0.971485,0.010995,-0.037873,-0.001221
2026-03-26T22:38:32.477911,7.613961,6.264409,0.985842,0.023212,-0.042760,-0.010995
2026-03-26T22:38:32.486911,7.585247,6.197410,0.894915,0.030543,-0.035430,-0.014660
2026-03-26T22:38:32.496911,7.657032,6.206981,0.899701,0.035430,-0.030543,-0.015882
2026-03-26T22:38:32.505911,7.637889,6.245266,0.933200,0.036651,-0.023212,-0.013439
2026-03-26T22:38:32.515911,7.628318,6.221338,0.937986,0.032986,-0.021991,-0.006108
2026-03-26T22:38:32.525911,7.580461,6.216553,0.976271,0.032986,-0.021991,-0.001221
2026-03-26T22:38:32.534911,7.575676,6.240481,0.933200,0.037873,-0.023212,0.008552
2026-03-26T22:38:32.544911,7.580461,6.245266,0.933200,0.041538,-0.023212,0.015882
2026-03-26T22:38:32.554911,7.590033,6.221338,0.957129,0.047647,-0.026878,0.010995
2026-03-26T22:38:32.563911,7.613961,6.221338,0.914058,0.051312,-0.034208,0.010995
2026-03-26T22:38:32.573911,7.657032,6.259623,0.918843,0.050090,-0.035430,0.013439
2026-03-26T22:38:32.582911,7.618747,6.273980,0.885344,0.046425,-0.036651,0.025656
2026-03-26T22:38:32.592911,7.671389,6.235695,0.827916,0.017104,-0.024434,0.048869
2026-03-26T22:38:32.602911,7.551748,6.312266,1.000199,0.007330,-0.007330,0.083077
2026-03-26T22:38:32.611911,7.618747,6.317051,0.894915,0.008552,-0.002443,0.136833
2026-03-26T22:38:32.621911,7.585247,6.254838,1.014556,0.006108,0.014660,0.184481
2026-03-26T22:38:32.630911,7.566105,6.202196,1.028913,0.026878,0.018325,0.224798
2026-03-26T22:38:32.640911,7.594818,6.211767,0.947557,0.053756,0.023212,0.266337
2026-03-26T22:38:32.650911,7.590033,6.183053,1.019342,0.085521,0.017104,0.321315
2026-03-26T22:38:32.659911,7.628318,6.250052,1.033699,0.114842,-0.001221,0.392175
2026-03-26T22:38:32.669911,7.594818,6.264409,1.004985,0.124616,-0.007330,0.491135
2026-03-26T22:38:32.679911,7.642675,6.283552,0.942772,0.123394,-0.004886,0.609643
2026-03-26T22:38:32.688911,7.757530,6.087340,0.933200,0.114842,0.007330,0.724486
2026-03-26T22:38:32.698911,7.810172,5.986842,0.933200,0.108733,0.012217,0.822224
2026-03-26T22:38:32.707911,7.920242,5.771488,1.071984,0.111177,0.007330,0.869871
2026-03-26T22:38:32.717911,7.944171,5.728417,0.894915,0.118507,-0.007330,0.867428
2026-03-26T22:38:32.727911,8.015955,5.714060,0.866201,0.105068,-0.006108,0.864984
2026-03-26T22:38:32.736911,8.063812,5.632704,0.904486,0.106290,0.035430,0.874758
2026-03-26T22:38:32.746911,8.245666,5.465206,0.856630,0.162490,0.112399,0.918741
2026-03-26T22:38:32.755911,9.174081,4.503292,0.550349,0.202807,0.157603,1.084896
2026-03-26T22:38:32.765911,8.953942,4.522434,0.693918,0.212581,0.178372,1.479515
2026-03-26T22:38:32.775911,12.323036,-1.028913,-0.244067,0.978605,0.717155,3.386636
2026-03-26T22:38:32.784911,10.906485,2.100898,0.172283,0.940732,0.791681,4.916242
2026-03-26T22:38:32.794911,7.944171,5.407779,0.669990,0.750142,0.979827,5.466021
2026-03-26T22:38:32.804911,9.442077,4.043870,1.469193,0.780685,1.056796,5.758014
2026-03-26T22:38:32.813911,9.600004,3.766302,0.780060,1.050687,1.027475,7.142234
2026-03-26T22:38:32.823911,11.566904,1.091127,1.564905,1.188743,1.622457,7.783643
2026-03-26T22:38:32.832911,8.963513,4.029513,2.033899,1.331685,1.550375,8.561885
2026-03-26T22:38:32.842911,6.991827,1.454836,2.330609,1.265712,1.968207,9.249719
2026-03-26T22:38:32.852911,10.796415,-2.000399,2.239681,0.878424,1.453858,11.209374
2026-03-26T22:38:32.861911,10.973484,0.875773,3.938585,0.442266,1.158200,12.130559
2026-03-26T22:38:32.871911,7.714460,-0.966700,-1.301695,-0.559552,0.241902,12.034042
2026-03-26T22:38:32.880911,8.882157,2.153540,1.641476,-1.007927,-0.676838,8.794014
2026-03-26T22:38:32.890911,8.738588,-0.559920,0.354137,-0.438601,0.002443,4.333477
2026-03-26T22:38:32.900911,8.997012,-2.785245,1.737189,-0.249232,0.383623,1.892460
2026-03-26T22:38:32.909911,9.035298,-3.483949,1.928615,-0.248011,0.463035,1.183856
2026-03-26T22:38:32.919911,9.025726,-3.215953,1.512263,-0.241902,0.502131,0.934623
2026-03-26T22:38:32.929911,9.279366,-2.608176,1.574477,-0.095294,0.554665,0.404392
2026-03-26T22:38:32.938911,9.226723,-2.665604,1.952543,0.048869,0.491135,0.009773
2026-03-26T22:38:32.948911,9.140582,-3.120240,2.191825,0.131946,0.318871,-0.255341
2026-03-26T22:38:32.957911,8.882157,-3.814159,2.053041,0.134390,0.200363,-0.283441
2026-03-26T22:38:32.967911,9.332008,-3.168097,1.818545,0.081855,0.244346,-0.283441
2026-03-26T22:38:32.977911,9.370293,-3.062812,2.196611,-0.067195,0.375071,-0.086742
2026-03-26T22:38:32.986911,9.092725,-3.421736,2.225325,-0.202807,0.425162,0.134390
2026-03-26T22:38:32.996911,8.896514,-3.761517,2.153540,-0.346971,0.520457,0.445931
2026-03-26T22:38:33.005911,8.465806,-4.402793,2.364108,-0.283441,0.547335,0.338419
2026-03-26T22:38:33.015911,8.757730,-3.967299,2.431107,-0.164933,0.447153,0.152716
2026-03-26T22:38:33.025911,8.920442,-3.833301,2.316252,-0.106290,0.359188,0.108733
2026-03-26T22:38:33.034911,8.647660,-4.019941,2.569891,-0.073303,0.282219,0.102625
2026-03-26T22:38:33.044911,8.647660,-4.340580,2.818745,-0.034208,0.197920,0.111177
2026-03-26T22:38:33.054911,8.480163,-4.828716,2.579462,0.030543,0.320093,0.359188
2026-03-26T22:38:33.063911,8.590233,-4.230510,2.340180,0.073303,0.421496,0.470366
2026-03-26T22:38:33.073911,9.911071,-3.507877,2.952743,0.100181,0.470366,0.382401
2026-03-26T22:38:33.082911,9.164510,-3.268595,2.392822,0.029321,0.094073,0.015882
2026-03-26T22:38:33.092911,8.886943,-3.771088,2.574677,-0.030543,-0.017104,-0.100181
2026-03-26T22:38:33.102911,8.748159,-3.948157,2.550748,-0.075747,-0.002443,-0.091629
2026-03-26T22:38:33.111911,8.719445,-4.096512,2.517249,-0.081855,0.003665,-0.120951
2026-03-26T22:38:33.121911,8.781658,-3.972085,2.474178,-0.079412,0.004886,-0.155159
2026-03-26T22:38:33.130911,8.705088,-3.967299,2.507678,-0.058643,-0.008552,-0.161268
2026-03-26T22:38:33.140911,8.891728,-3.732803,2.498106,-0.024434,-0.025656,-0.158824
2026-03-26T22:38:33.150911,8.944370,-3.675375,2.555534,-0.037873,-0.026878,-0.067195
2026-03-26T22:38:33.159911,8.743373,-3.991228,2.455035,-0.037873,-0.031764,0.004886
2026-03-26T22:38:33.169911,8.690731,-4.086941,2.488535,-0.007330,-0.043982,-0.034208
2026-03-26T22:38:33.179911,8.791230,-3.976871,2.450250,0.021991,-0.053756,-0.098960
2026-03-26T22:38:33.188911,8.958727,-4.421936,1.674975,0.006108,-0.078190,0.012217
2026-03-26T22:38:33.198911,8.757730,-4.029513,2.416750,-0.061086,-0.063529,0.197920
2026-03-26T22:38:33.207911,8.834301,-3.785445,2.828316,-0.064751,-0.046425,0.202807
2026-03-26T22:38:33.217911,8.896514,-3.967299,2.435893,-0.025656,-0.057421,0.168598
2026-03-26T22:38:33.227911,8.724231,-4.230510,2.163111,-0.009773,-0.072082,0.200363
2026-03-26T22:38:33.236911,8.733802,-4.139583,2.560320,-0.003665,-0.073303,0.223576
2026-03-26T22:38:33.246911,8.748159,-3.699303,2.861815,-0.008552,-0.061086,0.218689
2026-03-26T22:38:33.255911,8.815158,-3.933800,2.517249,-0.013439,-0.059864,0.190589
2026-03-26T22:38:33.265911,8.752945,-3.847658,2.579462,-0.004886,-0.058643,0.151494
2026-03-26T22:38:33.275911,8.719445,-3.986442,2.550748,0.004886,-0.058643,0.102625
2026-03-26T22:38:33.284911,8.690731,-4.086941,2.517249,0.021991,-0.062308,0.054977
2026-03-26T22:38:33.294911,8.839086,-4.024727,2.459821,0.026878,-0.070860,0.065973
2026-03-26T22:38:33.304911,8.824729,-3.900300,2.388036,0.018325,-0.070860,0.120951
2026-03-26T22:38:33.313911,8.843872,-4.072584,2.225325,-0.039095,-0.063529,0.278554
2026-03-26T22:38:33.323911,8.528019,-4.517649,2.354537,-0.101403,-0.051312,0.419053
2026-03-26T22:38:33.332911,8.676374,-4.364508,2.526820,-0.130725,-0.039095,0.431270
2026-03-26T22:38:33.342911,8.422735,-4.680361,2.483749,-0.200363,-0.090408,0.508239
2026-03-26T22:38:33.352911,8.532805,-4.565505,2.364108,-0.394618,-0.312762,0.777020
2026-03-26T22:38:33.361911,8.441878,-4.546362,2.364108,-0.500909,-0.430049,0.867428
2026-03-26T22:38:33.371911,8.700302,-4.426721,2.373680,-0.658512,-0.636521,1.012814
2026-03-26T22:38:33.380911,8.738588,-3.842873,2.804388,-0.594982,-0.541226,0.858876
2026-03-26T22:38:33.390911,8.815158,-3.914657,2.579462,-0.344527,-0.290771,0.482583
2026-03-26T22:38:33.400911,8.523234,-4.565505,2.297109,-0.229685,-0.243124,0.372627
2026-03-26T22:38:33.409911,8.604590,-4.651647,2.230110,-0.191811,-0.233350,0.328645
2026-03-26T22:38:33.419911,8.551947,-4.541577,2.244467,-0.202807,-0.288328,0.316428
2026-03-26T22:38:33.429911,8.580661,-4.512863,2.196611,-0.144164,-0.224798,0.193033
2026-03-26T22:38:33.438911,8.652446,-4.488935,2.100898,-0.058643,-0.127059,0.063529
2026-03-26T22:38:33.448911,8.518448,-4.651647,2.163111,-0.045204,-0.056199,0.029321
2026-03-26T22:38:33.457911,8.394021,-4.881358,1.976471,-0.048869,-0.017104,-0.031764
2026-03-26T22:38:33.467911,8.494520,-4.689932,2.120040,-0.037873,0.006108,-0.109955
2026-03-26T22:38:33.477911,8.556733,-4.675575,2.062613,-0.032986,0.025656,-0.135612
2026-03-26T22:38:33.486911,8.628518,-4.527220,2.115255,-0.028099,0.036651,-0.125838
2026-03-26T22:38:33.496911,8.595018,-4.575076,2.115255,-0.041538,0.046425,-0.081855
2026-03-26T22:38:33.505911,8.480163,-4.656432,2.191825,-0.057421,0.042760,-0.057421
2026-03-26T22:38:33.515911,8.685946,-4.455435,2.201396,-0.085521,0.029321,-0.065973
2026-03-26T22:38:33.525911,10.322636,-1.708475,3.416950,-0.285884,0.030543,0.757472
2026-03-26T22:38:33.534911,8.178667,-4.953142,3.254238,-0.302989,0.001221,0.904080
2026-03-26T22:38:33.544911,8.427521,-4.838287,1.938186,-0.184481,-0.177150,0.852767
2026-03-26T22:38:33.554911,8.149953,-5.417350,1.947757,-0.190589,-0.169820,0.811228
2026-03-26T22:38:33.563911,8.642875,-4.747360,2.373680,-0.265115,-0.136833,0.839328
2026-03-26T22:38:33.573911,8.513662,-4.972285,2.325823,-0.349414,-0.331088,1.178969
2026-03-26T22:38:33.582911,8.427521,-5.268995,2.277967,-0.408057,-0.576656,1.655444
2026-03-26T22:38:33.592911,8.035098,-5.326423,2.464607,-0.582765,-0.938288,2.420247
2026-03-26T22:38:33.602911,6.742974,-7.269395,1.488335,-0.884532,-1.492954,3.172833
2026-03-26T22:38:33.611911,7.637889,-5.690132,1.311266,-0.689055,-1.354898,2.397034
2026-03-26T22:38:33.621911,7.250252,-6.537191,0.937986,-0.416610,-0.860098,1.205847
2026-03-26T22:38:33.630911,7.068397,-6.781259,1.115055,-0.302989,-0.493579,0.456927
2026-03-26T22:38:33.640911,7.628318,-6.264409,1.359123,-0.240680,-0.353080,0.081855
2026-03-26T22:38:33.650911,7.982456,-5.608776,1.430907,-0.199142,-0.246789,-0.100181
2026-03-26T22:38:33.659911,7.915457,-5.752345,1.416550,-0.164933,-0.169820,-0.152716
2026-03-26T22:38:33.669911,7.881957,-5.776273,1.464407,-0.130725,-0.113620,-0.246789
2026-03-26T22:38:33.679911,7.881957,-5.871986,1.282552,-0.122173,-0.058643,-0.335975
2026-03-26T22:38:33.688911,7.925028,-5.848058,1.301695,-0.128281,-0.004886,-0.378736
2026-03-26T22:38:33.698911,8.030312,-5.790630,1.383051,-0.131946,0.021991,-0.370184
2026-03-26T22:38:33.707911,8.059026,-5.714060,1.416550,-0.129503,0.007330,-0.306654
2026-03-26T22:38:33.717911,8.068597,-5.647061,1.406979,-0.112399,-0.031764,-0.229685
2026-03-26T22:38:33.727911,7.896314,-5.771488,1.287338,-0.102625,-0.042760,-0.163711
2026-03-26T22:38:33.736911,7.920242,-5.776273,1.344766,-0.107512,-0.020769,-0.142942
2026-03-26T22:38:33.746911,7.929814,-5.761916,1.320838,-0.116064,0.006108,-0.144164
2026-03-26T22:38:33.755911,8.025527,-5.680560,1.325623,-0.116064,0.010995,-0.116064
2026-03-26T22:38:33.765911,8.054240,-5.714060,1.316052,-0.095294,-0.001221,-0.064751
2026-03-26T22:38:33.775911,8.049455,-5.690132,1.363908,-0.068416,-0.017104,-0.004886
2026-03-26T22:38:33.784911,8.092526,-5.675775,1.330409,-0.047647,-0.034208,0.058643
2026-03-26T22:38:33.794911,7.915457,-5.833701,1.258624,-0.032986,-0.048869,0.125838
2026-03-26T22:38:33.804911,7.838886,-5.915057,1.344766,-0.017104,-0.063529,0.096516
2026-03-26T22:38:33.813911,7.934599,-5.709274,1.406979,-0.010995,-0.085521,0.080634
2026-03-26T22:38:33.823911,7.929814,-5.742774,1.406979,-0.012217,-0.113620,0.116064
2026-03-26T22:38:33.832911,7.934599,-5.742774,1.493121,-0.006108,-0.174707,0.164933
2026-03-26T22:38:33.842911,7.987241,-5.809773,1.301695,-0.008552,-0.213802,0.212581
2026-03-26T22:38:33.852911,7.896314,-5.900700,1.277767,-0.009773,-0.215024,0.239459
2026-03-26T22:38:33.861911,7.929814,-5.881557,1.263410,-0.008552,-0.205250,0.246789
2026-03-26T22:38:33.871911,7.786244,-5.910271,1.225125,-0.012217,-0.185702,0.246789
2026-03-26T22:38:33.880911,7.724031,-6.015556,1.320838,-0.013439,-0.166155,0.218689
2026-03-26T22:38:33.890911,7.810172,-5.986842,1.287338,-0.003665,-0.186924,0.184481
2026-03-26T22:38:33.900911,7.886743,-5.910271,1.258624,0.004886,-0.221133,0.177150
2026-03-26T22:38:33.909911,7.695317,-6.025127,1.177268,-0.001221,-0.233350,0.184481
2026-03-26T22:38:33.919911,7.657032,-6.163911,1.191625,-0.015882,-0.227241,0.149051
2026-03-26T22:38:33.929911,7.542176,-6.192624,1.177268,-0.030543,-0.210137,0.046425
2026-03-26T22:38:33.938911,7.518248,-6.288337,1.196411,-0.043982,-0.175929,-0.109955
2026-03-26T22:38:33.948911,7.704888,-6.092126,1.138983,-0.048869,-0.142942,-0.237015
2026-03-26T22:38:33.957911,7.843672,-5.986842,1.148554,-0.047647,-0.128281,-0.288328
2026-03-26T22:38:33.967911,7.929814,-5.852844,1.177268,-0.051312,-0.125838,-0.293215
2026-03-26T22:38:33.977911,7.886743,-5.895914,1.153340,-0.056199,-0.120951,-0.268780
2026-03-26T22:38:33.986911,7.929814,-5.843272,1.119840,-0.050090,-0.105068,-0.243124
2026-03-26T22:38:33.996911,8.006384,-5.790630,1.153340,-0.042760,-0.081855,-0.205250
2026-03-26T22:38:34.005911,8.068597,-5.814558,1.095912,-0.052534,-0.054977,-0.155159
2026-03-26T22:38:34.015911,8.035098,-5.819344,1.167697,-0.054977,-0.062308,-0.109955
2026-03-26T22:38:34.025911,7.953742,-5.790630,1.057627,-0.032986,-0.092851,-0.065973
2026-03-26T22:38:34.034911,7.992027,-5.785845,1.086341,-0.014660,-0.114842,-0.024434
2026-03-26T22:38:34.044911,7.953742,-5.857629,1.105484,-0.007330,-0.113620,0.004886
2026-03-26T22:38:34.054911,7.881957,-5.852844,1.134197,-0.008552,-0.109955,0.008552
2026-03-26T22:38:34.063911,7.862815,-5.857629,1.067198,-0.010995,-0.113620,0.003665
2026-03-26T22:38:34.073911,7.843672,-6.029912,1.062413,-0.013439,-0.095294,-0.025656
2026-03-26T22:38:34.082911,7.891528,-5.934200,1.014556,-0.009773,-0.076969,-0.090408
2026-03-26T22:38:34.092911,7.925028,-5.919843,1.057627,0.004886,-0.063529,-0.136833
2026-03-26T22:38:34.102911,7.905885,-5.819344,1.100698,0.019547,-0.063529,-0.158824
2026-03-26T22:38:34.111911,7.972884,-5.747559,1.115055,0.028099,-0.069638,-0.157603
2026-03-26T22:38:34.121911,8.030312,-5.785845,1.100698,0.026878,-0.068416,-0.139277
2026-03-26T22:38:34.130911,8.030312,-5.723631,1.057627,0.026878,-0.061086,-0.119729
2026-03-26T22:38:34.140911,8.039883,-5.776273,1.095912,0.026878,-0.067195,-0.097738
2026-03-26T22:38:34.150911,8.015955,-5.699703,1.091127,0.025656,-0.073303,-0.059864
2026-03-26T22:38:34.159911,8.001598,-5.752345,1.081555,0.028099,-0.072082,-0.040317
2026-03-26T22:38:34.169911,8.015955,-5.694917,1.091127,0.040317,-0.067195,-0.023212
2026-03-26T22:38:34.179911,7.948956,-5.776273,1.143769,0.057421,-0.073303,-0.001221
2026-03-26T22:38:34.188911,7.929814,-5.785845,1.095912,0.040317,-0.084299,-0.021991
2026-03-26T22:38:34.198911,8.039883,-5.771488,1.067198,0.037873,-0.095294,-0.017104
2026-03-26T22:38:34.207911,7.982456,-5.757131,1.177268,0.048869,-0.102625,0.001221
2026-03-26T22:38:34.217911,7.968099,-5.804987,1.095912,0.057421,-0.102625,0.008552
2026-03-26T22:38:34.227911,7.953742,-5.795416,1.062413,0.065973,-0.097738,-0.003665
2026-03-26T22:38:34.236911,7.925028,-5.833701,1.100698,0.051312,-0.086742,-0.032986
2026-03-26T22:38:34.246911,7.925028,-5.824130,1.081555,0.046425,-0.068416,-0.063529
2026-03-26T22:38:34.255911,7.977670,-5.790630,1.158126,0.053756,-0.063529,-0.081855
2026-03-26T22:38:34.265911,7.963313,-5.781059,1.115055,0.061086,-0.081855,-0.078190
2026-03-26T22:38:34.275911,7.958527,-5.728417,1.129412,0.062308,-0.097738,-0.063529
2026-03-26T22:38:34.284911,8.006384,-5.737988,1.153340,0.053756,-0.096516,-0.067195
2026-03-26T22:38:34.294911,8.025527,-5.737988,1.134197,0.046425,-0.090408,-0.068416
2026-03-26T22:38:34.304911,8.015955,-5.728417,1.076770,0.043982,-0.084299,-0.058643
2026-03-26T22:38:34.313911,7.968099,-5.704489,1.095912,0.046425,-0.087964,-0.045204
2026-03-26T22:38:34.323911,8.035098,-5.704489,1.129412,0.051312,-0.102625,-0.029321
2026-03-26T22:38:34.332911,8.006384,-5.709274,1.100698,0.054977,-0.108733,0.002443
2026-03-26T22:38:34.342911,8.020741,-5.642275,1.124626,0.056199,-0.109955,0.037873
2026-03-26T22:38:34.352911,8.035098,-5.709274,1.105484,0.053756,-0.114842,0.073303
2026-03-26T22:38:34.361911,7.987241,-5.804987,1.067198,0.054977,-0.125838,0.120951
2026-03-26T22:38:34.371911,7.891528,-5.876772,1.134197,0.037873,-0.124616,0.141720
2026-03-26T22:38:34.380911,7.834101,-5.891129,1.024128,0.026878,-0.111177,0.131946
2026-03-26T22:38:34.390911,7.881957,-5.838487,1.004985,0.020769,-0.090408,0.112399
2026-03-26T22:38:34.400911,7.948956,-5.804987,0.971485,0.026878,-0.063529,0.061086
2026-03-26T22:38:34.409911,7.934599,-5.819344,1.081555,0.031764,-0.048869,0.020769
2026-03-26T22:38:34.419911,7.992027,-5.742774,1.115055,0.021991,-0.043982,0.015882
2026-03-26T22:38:34.429911,7.996813,-5.728417,1.105484,0.013439,-0.056199,0.034208
2026-03-26T22:38:34.438911,8.025527,-5.776273,1.153340,0.003665,-0.072082,0.079412
2026-03-26T22:38:34.448911,8.025527,-5.785845,1.100698,-0.002443,-0.089186,0.120951
2026-03-26T22:38:34.457911,8.049455,-5.690132,1.067198,-0.004886,-0.095294,0.145385
2026-03-26T22:38:34.467911,7.963313,-5.843272,1.100698,0.004886,-0.123394,0.174707
2026-03-26T22:38:34.477911,7.891528,-5.905486,1.028913,0.021991,-0.158824,0.194255
2026-03-26T22:38:34.486911,7.834101,-5.929414,1.004985,0.031764,-0.156381,0.189368
2026-03-26T22:38:34.496911,7.781459,-5.996413,0.942772,0.031764,-0.117286,0.094073
2026-03-26T22:38:34.505911,7.934599,-5.905486,0.866201,0.030543,-0.076969,0.020769
2026-03-26T22:38:34.515911,7.963313,-5.876772,1.062413,0.034208,-0.054977,0.002443
2026-03-26T22:38:34.525911,7.886743,-5.785845,1.062413,0.032986,-0.052534,0.002443
2026-03-26T22:38:34.534911,7.877171,-5.828915,1.153340,0.026878,-0.061086,0.008552
2026-03-26T22:38:34.544911,7.915457,-5.876772,1.124626,0.020769,-0.078190,0.026878
2026-03-26T22:38:34.554911,7.905885,-5.824130,1.119840,0.010995,-0.107512,0.047647
2026-03-26T22:38:34.563911,7.929814,-5.891129,1.100698,0.000000,-0.124616,0.063529
2026-03-26T22:38:34.573911,7.972884,-5.915057,1.014556,-0.017104,-0.125838,0.065973
2026-03-26T22:38:34.582911,7.843672,-5.915057,1.028913,-0.012217,-0.108733,0.045204
2026-03-26T22:38:34.592911,7.901100,-5.910271,1.033699,-0.004886,-0.101403,0.029321
2026-03-26T22:38:34.602911,7.881957,-5.943771,1.014556,0.004886,-0.096516,0.021991
2026-03-26T22:38:34.611911,7.910671,-5.891129,1.028913,0.008552,-0.090408,0.012217
2026-03-26T22:38:34.621911,7.915457,-5.857629,1.043270,0.017104,-0.084299,0.018325
2026-03-26T22:38:34.630911,7.915457,-5.891129,0.937986,0.023212,-0.069638,0.026878
2026-03-26T22:38:34.640911,7.886743,-5.895914,0.981057,0.026878,-0.048869,0.009773
2026-03-26T22:38:34.650911,7.838886,-5.934200,1.033699,0.031764,-0.035430,-0.017104
2026-03-26T22:38:34.659911,7.853243,-5.871986,1.004985,0.028099,-0.036651,-0.028099
2026-03-26T22:38:34.669911,7.848458,-5.900700,1.062413,0.024434,-0.042760,-0.030543
2026-03-26T22:38:34.679911,7.929814,-5.895914,1.091127,0.012217,-0.048869,-0.020769
2026-03-26T22:38:34.688911,7.905885,-5.871986,1.028913,0.009773,-0.064751,-0.004886
2026-03-26T22:38:34.698911,7.920242,-5.972485,1.071984,0.004886,-0.070860,0.003665
2026-03-26T22:38:34.707911,7.781459,-5.891129,0.981057,0.000000,-0.067195,-0.003665
2026-03-26T22:38:34.717911,7.901100,-5.929414,0.990628,0.000000,-0.069638,-0.007330
2026-03-26T22:38:34.727911,7.905885,-5.953342,1.024128,0.002443,-0.079412,0.006108
2026-03-26T22:38:34.736911,7.877171,-5.915057,0.990628,0.004886,-0.070860,0.010995
2026-03-26T22:38:34.746911,7.925028,-5.915057,0.990628,0.008552,-0.062308,0.014660
2026-03-26T22:38:34.755911,7.872386,-5.905486,1.048056,0.010995,-0.063529,0.024434
2026-03-26T22:38:34.765911,7.843672,-5.886343,1.105484,0.007330,-0.067195,0.031764
2026-03-26T22:38:34.775911,7.877171,-5.867201,1.024128,0.003665,-0.059864,0.025656
2026-03-26T22:38:34.784911,7.891528,-5.996413,0.918843,0.001221,-0.052534,0.007330
2026-03-26T22:38:34.794911,7.858029,-5.962913,0.981057,0.000000,-0.042760,-0.012217
2026-03-26T22:38:34.804911,7.877171,-5.938985,1.043270,-0.012217,-0.037873,-0.026878
2026-03-26T22:38:34.813911,7.896314,-5.924628,1.019342,-0.020769,-0.048869,-0.030543
2026-03-26T22:38:34.823911,7.872386,-5.929414,1.062413,-0.029321,-0.056199,-0.012217
2026-03-26T22:38:34.832911,7.905885,-5.915057,1.062413,-0.028099,-0.070860,-0.001221
2026-03-26T22:38:34.842911,7.910671,-5.958128,0.971485,-0.023212,-0.083077,0.009773
2026-03-26T22:38:34.852911,7.915457,-5.881557,0.966700,-0.019547,-0.089186,0.018325
2026-03-26T22:38:34.861911,7.886743,-5.934200,1.009771,-0.024434,-0.087964,0.024434
2026-03-26T22:38:34.871911,7.881957,-6.015556,1.028913,-0.041538,-0.074525,0.013439
2026-03-26T22:38:34.880911,7.905885,-5.915057,0.961914,-0.053756,-0.059864,-0.001221
2026-03-26T22:38:34.890911,7.877171,-5.972485,1.009771,-0.052534,-0.048869,-0.026878
2026-03-26T22:38:34.900911,7.795816,-6.087340,0.966700,-0.051312,-0.048869,-0.061086
2026-03-26T22:38:34.909911,7.853243,-5.948556,0.928415,-0.047647,-0.050090,-0.095294
2026-03-26T22:38:34.919911,7.915457,-5.895914,0.899701,-0.037873,-0.045204,-0.094073
2026-03-26T22:38:34.929911,7.996813,-5.819344,1.004985,-0.028099,-0.050090,-0.061086
2026-03-26T22:38:34.938911,7.996813,-5.881557,0.928415,-0.020769,-0.063529,-0.015882
2026-03-26T22:38:34.948911,7.910671,-5.871986,0.971485,-0.024434,-0.062308,0.006108
2026-03-26T22:38:34.957911,7.848458,-5.982056,0.961914,-0.024434,-0.058643,0.002443
2026-03-26T22:38:34.967911,7.843672,-6.001199,1.000199,-0.026878,-0.057421,-0.017104
2026-03-26T22:38:34.977911,7.786244,-5.977270,0.942772,-0.025656,-0.054977,-0.047647
2026-03-26T22:38:34.986911,7.872386,-5.871986,0.933200,-0.021991,-0.053756,-0.072082
2026-03-26T22:38:34.996911,7.977670,-5.852844,0.933200,-0.013439,-0.064751,-0.062308
2026-03-26T22:38:35.005911,7.987241,-5.838487,0.961914,-0.009773,-0.070860,-0.036651
2026-03-26T22:38:35.015911,7.934599,-5.886343,0.937986,-0.010995,-0.062308,-0.012217
2026-03-26T22:38:35.025911,7.920242,-5.953342,0.957129,-0.008552,-0.062308,-0.002443
2026-03-26T22:38:35.034911,7.929814,-5.895914,0.890130,-0.004886,-0.059864,-0.004886
2026-03-26T22:38:35.044911,7.881957,-5.934200,0.937986,-0.001221,-0.059864,-0.004886
2026-03-26T22:38:35.054911,7.953742,-5.886343,1.000199,-0.002443,-0.069638,0.002443
2026-03-26T22:38:35.063911,7.896314,-5.948556,0.966700,0.002443,-0.079412,0.010995
2026-03-26T22:38:35.073911,7.877171,-5.900700,0.957129,0.008552,-0.083077,0.006108
2026-03-26T22:38:35.082911,7.891528,-5.900700,0.861416,0.012217,-0.076969,-0.007330
2026-03-26T22:38:35.092911,7.896314,-5.886343,0.899701,0.014660,-0.070860,-0.012217
2026-03-26T22:38:35.102911,8.001598,-5.871986,0.942772,0.013439,-0.058643,-0.012217
2026-03-26T22:38:35.111911,7.963313,-5.871986,0.899701,0.010995,-0.048869,0.001221
2026-03-26T22:38:35.121911,7.872386,-5.953342,0.914058,0.009773,-0.041538,0.002443
2026-03-26T22:38:35.130911,7.881957,-5.900700,0.904486,0.009773,-0.039095,-0.009773
2026-03-26T22:38:35.140911,7.829315,-5.977270,0.914058,0.012217,-0.047647,-0.020769
2026-03-26T22:38:35.150911,8.011170,-5.871986,0.894915,0.008552,-0.047647,-0.026878
2026-03-26T22:38:35.159911,7.896314,-5.881557,0.885344,-0.003665,-0.030543,-0.024434
2026-03-26T22:38:35.169911,7.862815,-5.962913,1.004985,-0.007330,-0.024434,-0.024434
2026-03-26T22:38:35.179911,7.934599,-5.852844,0.981057,-0.003665,-0.039095,-0.017104
2026-03-26T22:38:35.188911,7.958527,-5.919843,0.961914,-0.003665,-0.050090,-0.001221
2026-03-26T22:38:35.198911,7.872386,-5.900700,0.923629,-0.006108,-0.052534,-0.001221
2026-03-26T22:38:35.207911,7.896314,-5.881557,0.933200,-0.008552,-0.058643,-0.001221
2026-03-26T22:38:35.217911,7.896314,-5.924628,0.952343,-0.003665,-0.062308,0.002443
2026-03-26T22:38:35.227911,7.872386,-5.900700,0.976271,-0.002443,-0.063529,0.001221
2026-03-26T22:38:35.236911,7.910671,-5.886343,1.028913,-0.002443,-0.064751,-0.009773
2026-03-26T22:38:35.246911,7.948956,-5.881557,0.937986,-0.001221,-0.072082,-0.004886
2026-03-26T22:38:35.255911,7.963313,-5.871986,0.866201,0.002443,-0.072082,0.008552
2026-03-26T22:38:35.265911,7.929814,-5.924628,0.875773,-0.001221,-0.048869,0.006108
2026-03-26T22:38:35.275911,7.872386,-5.876772,0.942772,-0.002443,-0.031764,-0.010995
2026-03-26T22:38:35.284911,7.843672,-5.919843,0.942772,-0.003665,-0.021991,-0.031764
2026-03-26T22:38:35.294911,7.838886,-5.895914,0.971485,-0.004886,-0.030543,-0.056199
2026-03-26T22:38:35.304911,7.896314,-5.857629,0.937986,-0.009773,-0.046425,-0.064751
2026-03-26T22:38:35.313911,8.087740,-5.867201,0.966700,-0.014660,-0.062308,-0.050090
2026-03-26T22:38:35.323911,7.848458,-5.848058,0.861416,-0.023212,-0.065973,-0.024434
2026-03-26T22:38:35.332911,8.015955,-5.867201,0.861416,-0.017104,-0.069638,0.002443
2026-03-26T22:38:35.342911,7.896314,-5.891129,0.861416,-0.004886,-0.067195,0.026878
2026-03-26T22:38:35.352911,7.925028,-5.915057,0.866201,0.004886,-0.056199,0.025656
2026-03-26T22:38:35.361911,7.881957,-5.910271,1.000199,0.014660,-0.040317,0.015882
2026-03-26T22:38:35.371911,7.920242,-5.938985,0.933200,0.015882,-0.026878,0.001221
2026-03-26T22:38:35.380911,7.877171,-5.857629,0.952343,0.014660,-0.026878,-0.014660
2026-03-26T22:38:35.390911,7.929814,-5.924628,0.961914,0.013439,-0.042760,-0.017104
2026-03-26T22:38:35.400911,7.977670,-5.895914,1.019342,0.008552,-0.058643,-0.008552
2026-03-26T22:38:35.409911,7.886743,-5.862415,0.952343,0.004886,-0.070860,0.002443
2026-03-26T22:38:35.419911,7.920242,-5.876772,0.952343,-0.007330,-0.072082,0.002443
2026-03-26T22:38:35.429911,7.886743,-5.886343,0.909272,-0.012217,-0.079412,-0.006108
2026-03-26T22:38:35.438911,7.963313,-5.828915,0.899701,-0.013439,-0.079412,-0.009773
2026-03-26T22:38:35.448911,7.910671,-5.814558,0.933200,-0.009773,-0.073303,-0.001221
2026-03-26T22:38:35.457911,7.925028,-5.934200,0.899701,-0.003665,-0.063529,0.014660
2026-03-26T22:38:35.467911,7.958527,-5.910271,0.909272,-0.002443,-0.058643,0.020769
2026-03-26T22:38:35.477911,7.824529,-5.900700,0.914058,-0.001221,-0.058643,0.015882
2026-03-26T22:38:35.486911,7.886743,-5.972485,0.880558,0.001221,-0.058643,0.009773
2026-03-26T22:38:35.496911,7.944171,-5.910271,0.918843,0.002443,-0.048869,-0.002443
2026-03-26T22:38:35.505911,7.905885,-5.910271,0.847059,0.008552,-0.053756,-0.012217
2026-03-26T22:38:35.515911,7.896314,-5.943771,0.928415,0.010995,-0.056199,-0.019547
2026-03-26T22:38:35.525911,7.910671,-5.833701,0.899701,0.008552,-0.061086,-0.018325
2026-03-26T22:38:35.534911,7.996813,-5.843272,0.971485,0.000000,-0.072082,-0.006108
2026-03-26T22:38:35.544911,7.939385,-5.852844,0.971485,-0.007330,-0.080634,0.020769
2026-03-26T22:38:35.554911,8.006384,-5.910271,0.894915,-0.013439,-0.080634,0.045204
2026-03-26T22:38:35.563911,7.834101,-5.938985,0.894915,-0.015882,-0.074525,0.041538
2026-03-26T22:38:35.573911,7.905885,-6.005984,0.866201,-0.012217,-0.061086,0.008552
2026-03-26T22:38:35.582911,7.843672,-5.977270,0.890130,-0.007330,-0.048869,-0.024434
2026-03-26T22:38:35.592911,7.858029,-5.828915,0.918843,-0.001221,-0.045204,-0.040317
2026-03-26T22:38:35.602911,7.886743,-5.905486,0.918843,0.003665,-0.050090,-0.036651
2026-03-26T22:38:35.611911,7.968099,-5.871986,0.923629,0.001221,-0.057421,-0.020769
2026-03-26T22:38:35.621911,7.925028,-5.919843,0.909272,-0.001221,-0.070860,-0.001221
2026-03-26T22:38:35.630911,7.953742,-5.948556,0.952343,0.001221,-0.078190,0.012217
2026-03-26T22:38:35.640911,7.934599,-5.938985,0.952343,0.003665,-0.075747,0.013439
2026-03-26T22:38:35.650911,7.829315,-5.986842,0.842273,0.004886,-0.059864,-0.002443
2026-03-26T22:38:35.659911,7.795816,-5.804987,0.894915,0.006108,-0.050090,-0.023212
2026-03-26T22:38:35.669911,7.939385,-5.967699,0.937986,0.006108,-0.051312,-0.026878
2026-03-26T22:38:35.679911,7.881957,-5.919843,0.923629,0.001221,-0.054977,-0.024434
2026-03-26T22:38:35.688911,7.948956,-5.938985,0.890130,-0.002443,-0.059864,-0.010995
2026-03-26T22:38:35.698911,7.958527,-5.924628,0.976271,-0.006108,-0.070860,0.001221
2026-03-26T22:38:35.707911,7.934599,-5.895914,0.899701,-0.007330,-0.083077,0.009773
2026-03-26T22:38:35.717911,7.776673,-5.876772,0.818345,-0.007330,-0.089186,0.008552
2026-03-26T22:38:35.727911,7.905885,-5.905486,0.914058,-0.009773,-0.094073,0.003665
2026-03-26T22:38:35.736911,7.814958,-5.814558,0.875773,-0.012217,-0.095294,0.007330
2026-03-26T22:38:35.746911,7.867600,-5.838487,0.909272,-0.009773,-0.095294,0.018325
2026-03-26T22:38:35.755911,7.853243,-5.867201,0.870987,-0.003665,-0.092851,0.021991
2026-03-26T22:38:35.765911,7.848458,-5.871986,0.861416,-0.003665,-0.081855,0.017104
2026-03-26T22:38:35.775911,7.891528,-5.905486,0.909272,0.000000,-0.068416,0.007330
2026-03-26T22:38:35.784911,7.905885,-5.886343,0.803988,0.002443,-0.058643,-0.003665
2026-03-26T22:38:35.794911,7.925028,-5.891129,0.904486,0.006108,-0.057421,-0.002443
2026-03-26T22:38:35.804911,7.877171,-5.938985,0.914058,0.002443,-0.057421,-0.003665
2026-03-26T22:38:35.813911,7.867600,-5.977270,0.890130,0.000000,-0.058643,-0.008552
2026-03-26T22:38:35.823911,7.939385,-5.852844,0.856630,-0.003665,-0.058643,-0.009773
2026-03-26T22:38:35.832911,7.905885,-5.891129,0.832702,-0.004886,-0.067195,0.000000
2026-03-26T22:38:35.842911,7.929814,-5.915057,0.832702,-0.007330,-0.073303,-0.004886
2026-03-26T22:38:35.852911,7.934599,-5.953342,0.847059,-0.002443,-0.075747,-0.003665
2026-03-26T22:38:35.861911,7.905885,-6.001199,0.832702,-0.001221,-0.064751,-0.008552
2026-03-26T22:38:35.871911,7.996813,-5.943771,0.847059,0.000000,-0.059864,-0.014660
2026-03-26T22:38:35.880911,7.858029,-5.857629,0.851844,0.004886,-0.062308,-0.017104
2026-03-26T22:38:35.890911,7.872386,-5.891129,0.823130,0.008552,-0.065973,-0.007330
2026-03-26T22:38:35.900911,7.934599,-5.852844,0.799202,0.007330,-0.069638,0.001221
2026-03-26T22:38:35.909911,7.968099,-5.929414,0.736989,0.009773,-0.067195,0.006108
2026-03-26T22:38:35.919911,7.824529,-5.934200,0.880558,0.014660,-0.059864,0.002443
2026-03-26T22:38:35.929911,7.891528,-5.900700,0.909272,0.015882,-0.054977,-0.004886
2026-03-26T22:38:35.938911,7.953742,-5.953342,0.909272,0.014660,-0.051312,-0.007330
2026-03-26T22:38:35.948911,7.963313,-5.905486,0.890130,0.013439,-0.056199,-0.006108
2026-03-26T22:38:35.957911,8.039883,-5.977270,0.894915,0.010995,-0.058643,-0.007330
2026-03-26T22:38:35.967911,7.934599,-5.924628,0.928415,0.006108,-0.057421,-0.006108
2026-03-26T22:38:35.977911,7.963313,-5.905486,0.842273,0.001221,-0.052534,-0.010995
2026-03-26T22:38:35.986911,7.838886,-5.915057,0.894915,-0.003665,-0.051312,-0.015882
2026-03-26T22:38:35.996911,7.977670,-5.962913,0.856630,-0.002443,-0.054977,-0.012217
2026-03-26T22:38:36.005911,7.872386,-5.943771,0.827916,0.003665,-0.054977,-0.012217
2026-03-26T22:38:36.015911,7.996813,-5.934200,0.751346,0.001221,-0.056199,-0.009773
2026-03-26T22:38:36.025911,7.944171,-5.924628,0.808774,0.001221,-0.058643,-0.004886
2026-03-26T22:38:36.034911,7.910671,-5.943771,0.727418,-0.001221,-0.056199,0.000000
2026-03-26T22:38:36.044911,7.853243,-5.929414,0.736989,0.002443,-0.048869,0.000000
2026-03-26T22:38:36.054911,7.958527,-6.010770,0.837487,0.004886,-0.041538,-0.007330
2026-03-26T22:38:36.063911,7.800601,-5.924628,0.808774,0.006108,-0.036651,-0.019547
2026-03-26T22:38:36.073911,7.872386,-5.962913,0.736989,0.009773,-0.034208,-0.034208
2026-03-26T22:38:36.082911,7.929814,-5.833701,0.803988,0.008552,-0.031764,-0.039095
2026-03-26T22:38:36.092911,7.939385,-5.910271,0.827916,0.009773,-0.032986,-0.031764
2026-03-26T22:38:36.102911,7.843672,-5.881557,0.823130,0.009773,-0.041538,-0.020769
2026-03-26T22:38:36.111911,7.829315,-5.862415,0.918843,0.012217,-0.048869,-0.009773
2026-03-26T22:38:36.121911,7.910671,-5.895914,0.875773,0.008552,-0.050090,0.004886
2026-03-26T22:38:36.130911,7.910671,-5.977270,0.799202,0.003665,-0.045204,-0.001221
2026-03-26T22:38:36.140911,7.896314,-5.943771,0.899701,0.002443,-0.039095,-0.010995
2026-03-26T22:38:36.150911,7.862815,-5.934200,0.875773,-0.002443,-0.037873,-0.017104
2026-03-26T22:38:36.159911,7.929814,-5.982056,0.947557,-0.006108,-0.040317,-0.019547
2026-03-26T22:38:36.169911,7.896314,-5.905486,0.837487,-0.006108,-0.045204,-0.020769
2026-03-26T22:38:36.179911,7.920242,-5.943771,0.870987,-0.009773,-0.057421,-0.018325
2026-03-26T22:38:36.188911,7.896314,-5.886343,0.827916,-0.010995,-0.068416,-0.012217
2026-03-26T22:38:36.198911,7.920242,-5.910271,0.847059,-0.008552,-0.074525,-0.003665
2026-03-26T22:38:36.207911,7.872386,-5.962913,0.751346,-0.002443,-0.069638,-0.003665
2026-03-26T22:38:36.217911,7.848458,-5.977270,0.760917,0.002443,-0.063529,-0.007330
2026-03-26T22:38:36.227911,7.791030,-5.895914,0.827916,0.008552,-0.052534,-0.013439
2026-03-26T22:38:36.236911,7.982456,-5.991627,0.799202,0.017104,-0.047647,-0.015882
2026-03-26T22:38:36.246911,7.977670,-6.015556,0.861416,0.028099,-0.042760,-0.019547
2026-03-26T22:38:36.255911,7.824529,-5.848058,0.717846,0.028099,-0.042760,-0.017104
2026-03-26T22:38:36.265911,7.786244,-5.962913,0.818345,0.030543,-0.026878,-0.026878
2026-03-26T22:38:36.275911,7.915457,-5.881557,0.937986,0.019547,-0.020769,-0.031764
2026-03-26T22:38:36.284911,7.948956,-5.867201,0.885344,0.009773,-0.023212,-0.026878
2026-03-26T22:38:36.294911,7.915457,-5.929414,0.870987,0.006108,-0.031764,-0.014660
2026-03-26T22:38:36.304911,7.872386,-5.915057,0.890130,0.003665,-0.040317,-0.013439
2026-03-26T22:38:36.313911,7.886743,-5.929414,0.870987,0.000000,-0.050090,-0.017104
2026-03-26T22:38:36.323911,7.953742,-5.852844,0.827916,0.006108,-0.062308,-0.012217
2026-03-26T22:38:36.332911,7.843672,-5.886343,0.861416,0.008552,-0.065973,-0.004886
2026-03-26T22:38:36.342911,7.977670,-5.886343,0.837487,0.004886,-0.057421,0.000000
2026-03-26T22:38:36.352911,7.934599,-5.938985,0.832702,0.007330,-0.042760,-0.004886
2026-03-26T22:38:36.361911,8.001598,-5.876772,0.851844,0.010995,-0.028099,-0.007330
2026-03-26T22:38:36.371911,7.939385,-5.915057,0.789631,0.018325,-0.018325,-0.003665
2026-03-26T22:38:36.380911,7.925028,-5.871986,0.880558,0.023212,-0.004886,-0.007330
2026-03-26T22:38:36.390911,7.901100,-5.900700,0.861416,0.028099,0.001221,-0.009773
2026-03-26T22:38:36.400911,7.896314,-5.910271,0.861416,0.031764,0.006108,-0.015882
2026-03-26T22:38:36.409911,7.901100,-5.919843,0.842273,0.029321,0.006108,-0.020769
2026-03-26T22:38:36.419911,7.896314,-5.958128,0.794417,0.023212,0.017104,-0.026878
2026-03-26T22:38:36.429911,7.886743,-5.915057,0.899701,0.017104,0.012217,-0.030543
2026-03-26T22:38:36.438911,7.925028,-5.962913,0.885344,0.014660,0.004886,-0.035430
2026-03-26T22:38:36.448911,7.953742,-5.910271,0.933200,0.010995,-0.002443,-0.031764
2026-03-26T22:38:36.457911,7.920242,-5.910271,0.923629,0.004886,-0.008552,-0.030543
2026-03-26T22:38:36.467911,7.915457,-5.867201,0.976271,-0.002443,-0.012217,-0.028099
2026-03-26T22:38:36.477911,7.939385,-5.905486,0.976271,-0.007330,-0.017104,-0.025656
2026-03-26T22:38:36.486911,7.915457,-5.943771,0.832702,-0.006108,-0.018325,-0.019547
2026-03-26T22:38:36.496911,7.886743,-5.886343,0.995414,-0.007330,-0.012217,-0.029321
2026-03-26T22:38:36.505911,7.891528,-5.943771,0.890130,-0.001221,-0.004886,-0.030543
2026-03-26T22:38:36.515911,7.910671,-5.900700,0.899701,0.004886,-0.001221,-0.032986
2026-03-26T22:38:36.525911,7.920242,-5.891129,0.952343,0.008552,0.004886,-0.039095
2026-03-26T22:38:36.534911,7.920242,-5.852844,0.933200,0.010995,0.001221,-0.034208
2026-03-26T22:38:36.544911,7.910671,-5.871986,0.952343,0.010995,-0.009773,-0.029321
2026-03-26T22:38:36.554911,7.934599,-5.838487,0.985842,0.006108,-0.014660,-0.020769
2026-03-26T22:38:36.563911,7.934599,-5.857629,0.957129,0.003665,-0.014660,-0.018325
2026-03-26T22:38:36.573911,7.920242,-5.871986,0.981057,0.004886,-0.015882,-0.019547
2026-03-26T22:38:36.582911,7.881957,-5.881557,0.933200,0.006108,-0.014660,-0.025656
2026-03-26T22:38:36.592911,7.896314,-5.905486,0.918843,0.009773,-0.012217,-0.036651
2026-03-26T22:38:36.602911,7.905885,-5.852844,0.923629,0.008552,-0.012217,-0.045204
2026-03-26T22:38:36.611911,7.963313,-5.891129,0.957129,0.009773,-0.010995,-0.045204
2026-03-26T22:38:36.621911,7.963313,-5.876772,0.918843,0.009773,-0.020769,-0.037873
2026-03-26T22:38:36.630911,7.915457,-5.838487,1.048056,0.010995,-0.028099,-0.018325
2026-03-26T22:38:36.640911,7.953742,-5.804987,0.961914,0.008552,-0.041538,-0.006108
2026-03-26T22:38:36.650911,7.948956,-5.867201,0.966700,0.000000,-0.048869,0.001221
2026-03-26T22:38:36.659911,7.915457,-5.857629,0.990628,-0.003665,-0.058643,0.004886
2026-03-26T22:38:36.669911,7.944171,-5.857629,0.990628,-0.006108,-0.076969,0.015882
2026-03-26T22:38:36.679911,7.953742,-5.867201,1.024128,-0.015882,-0.090408,0.019547
2026-03-26T22:38:36.688911,7.915457,-5.843272,1.052841,-0.023212,-0.101403,0.023212
2026-03-26T22:38:36.698911,7.915457,-5.843272,0.981057,-0.025656,-0.131946,0.024434
2026-03-26T22:38:36.707911,7.910671,-5.871986,0.918843,-0.025656,-0.151494,0.029321
2026-03-26T22:38:36.717911,7.963313,-5.895914,0.890130,-0.018325,-0.157603,0.032986
2026-03-26T22:38:36.727911,7.920242,-5.876772,0.899701,-0.003665,-0.151494,0.035430
2026-03-26T22:38:36.736911,7.996813,-5.938985,0.765703,0.012217,-0.129503,0.043982
2026-03-26T22:38:36.746911,7.944171,-5.919843,0.837487,0.030543,-0.096516,0.039095
2026-03-26T22:38:36.755911,7.862815,-5.881557,0.808774,0.042760,-0.067195,0.020769
2026-03-26T22:38:36.765911,7.877171,-5.871986,0.971485,0.043982,-0.056199,0.009773
2026-03-26T22:38:36.775911,7.915457,-5.814558,0.909272,0.032986,-0.057421,0.004886
2026-03-26T22:38:36.784911,7.881957,-5.871986,0.961914,0.017104,-0.059864,-0.004886
2026-03-26T22:38:36.794911,7.948956,-5.891129,0.942772,0.002443,-0.064751,-0.009773
2026-03-26T22:38:36.804911,7.891528,-5.848058,0.976271,-0.007330,-0.087964,0.004886
2026-03-26T22:38:36.813911,7.934599,-5.876772,0.909272,-0.009773,-0.106290,0.018325
2026-03-26T22:38:36.823911,7.910671,-5.948556,0.851844,-0.010995,-0.097738,0.020769
2026-03-26T22:38:36.832911,7.982456,-5.924628,0.866201,-0.002443,-0.080634,0.014660
2026-03-26T22:38:36.842911,7.858029,-5.924628,0.870987,0.006108,-0.063529,0.003665
2026-03-26T22:38:36.852911,7.915457,-5.977270,0.823130,0.008552,-0.053756,-0.015882
2026-03-26T22:38:36.861911,7.987241,-6.001199,0.827916,0.013439,-0.059864,-0.023212
2026-03-26T22:38:36.871911,7.886743,-5.900700,0.976271,0.008552,-0.059864,-0.035430
2026-03-26T22:38:36.880911,7.925028,-5.929414,0.866201,0.000000,-0.084299,-0.021991
2026-03-26T22:38:36.890911,8.063812,-5.886343,0.885344,-0.008552,-0.105068,-0.004886
2026-03-26T22:38:36.900911,7.901100,-5.938985,0.933200,-0.015882,-0.118507,0.012217
2026-03-26T22:38:36.909911,7.972884,-5.943771,0.923629,-0.025656,-0.109955,0.013439
2026-03-26T22:38:36.919911,7.805387,-5.876772,0.942772,-0.029321,-0.098960,0.008552
2026-03-26T22:38:36.929911,7.953742,-5.972485,0.890130,-0.030543,-0.091629,0.002443
2026-03-26T22:38:36.938911,7.867600,-5.871986,0.813559,-0.028099,-0.089186,0.000000
2026-03-26T22:38:36.948911,7.901100,-5.962913,0.751346,-0.015882,-0.087964,-0.006108
2026-03-26T22:38:36.957911,7.977670,-5.962913,0.856630,-0.004886,-0.090408,-0.010995
2026-03-26T22:38:36.967911,7.872386,-5.886343,0.684347,0.009773,-0.095294,-0.006108
2026-03-26T22:38:36.977911,7.920242,-5.905486,0.741775,0.023212,-0.078190,-0.006108
2026-03-26T22:38:36.986911,7.853243,-5.943771,0.741775,0.029321,-0.050090,-0.017104
2026-03-26T22:38:36.996911,7.891528,-5.761916,0.818345,0.034208,-0.030543,-0.019547
2026-03-26T22:38:37.005911,7.920242,-5.929414,0.827916,0.031764,-0.018325,-0.012217
2026-03-26T22:38:37.015911,7.958527,-5.900700,0.937986,0.026878,-0.009773,-0.020769
2026-03-26T22:38:37.025911,7.881957,-5.900700,0.952343,0.015882,-0.025656,-0.014660
2026-03-26T22:38:37.034911,7.877171,-5.900700,0.870987,0.003665,-0.047647,-0.017104
2026-03-26T22:38:37.044911,7.901100,-5.905486,0.918843,-0.008552,-0.062308,-0.023212
2026-03-26T22:38:37.054911,7.910671,-5.886343,0.880558,-0.019547,-0.070860,-0.034208
2026-03-26T22:38:37.063911,7.910671,-5.900700,0.875773,-0.021991,-0.070860,-0.026878
2026-03-26T22:38:37.073911,7.920242,-5.857629,0.803988,-0.020769,-0.072082,-0.013439
2026-03-26T22:38:37.082911,7.848458,-5.886343,0.808774,-0.015882,-0.065973,0.003665
2026-03-26T22:38:37.092911,7.867600,-5.905486,0.799202,-0.008552,-0.050090,-0.007330
2026-03-26T22:38:37.102911,7.843672,-5.852844,0.880558,0.000000,-0.037873,-0.014660
2026-03-26T22:38:37.111911,7.858029,-5.915057,0.875773,0.009773,-0.037873,-0.009773
2026-03-26T22:38:37.121911,7.834101,-5.986842,0.937986,0.012217,-0.036651,-0.009773
2026-03-26T22:38:37.130911,7.905885,-5.915057,0.703489,0.014660,-0.035430,-0.023212
2026-03-26T22:38:37.140911,7.901100,-5.905486,0.866201,0.013439,-0.031764,-0.039095
2026-03-26T22:38:37.150911,7.896314,-5.891129,0.780060,0.014660,-0.034208,-0.046425
2026-03-26T22:38:37.159911,8.011170,-5.852844,0.942772,0.018325,-0.042760,-0.047647
2026-03-26T22:38:37.169911,8.006384,-5.843272,0.856630,0.026878,-0.051312,-0.026878
2026-03-26T22:38:37.179911,7.901100,-5.737988,0.914058,0.043982,-0.065973,0.007330
2026-03-26T22:38:37.188911,8.078169,-5.891129,0.870987,0.058643,-0.081855,0.047647
2026-03-26T22:38:37.198911,7.920242,-5.838487,0.827916,0.069638,-0.092851,0.073303
2026-03-26T22:38:37.207911,7.939385,-5.891129,0.914058,0.080634,-0.097738,0.079412
2026-03-26T22:38:37.217911,8.001598,-5.871986,0.813559,0.094073,-0.106290,0.086742
2026-03-26T22:38:37.227911,7.700103,-6.005984,0.770488,0.091629,-0.084299,0.048869
2026-03-26T22:38:37.236911,7.896314,-5.953342,0.894915,0.087964,-0.067195,0.002443
2026-03-26T22:38:37.246911,7.925028,-5.876772,0.741775,0.097738,-0.059864,-0.019547
2026-03-26T22:38:37.255911,7.858029,-5.862415,0.914058,0.106290,-0.068416,-0.008552
2026-03-26T22:38:37.265911,7.934599,-5.867201,0.847059,0.118507,-0.070860,0.007330
2026-03-26T22:38:37.275911,7.996813,-5.910271,0.937986,0.130725,-0.061086,0.013439
2026-03-26T22:38:37.284911,7.881957,-5.876772,0.875773,0.142942,-0.056199,0.028099
2026-03-26T22:38:37.294911,7.944171,-6.005984,0.981057,0.155159,-0.031764,0.020769
2026-03-26T22:38:37.304911,7.848458,-5.881557,0.971485,0.155159,-0.015882,0.000000
2026-03-26T22:38:37.313911,7.939385,-5.924628,0.947557,0.136833,-0.006108,-0.012217
2026-03-26T22:38:37.323911,7.886743,-5.900700,1.024128,0.103847,0.002443,-0.028099
2026-03-26T22:38:37.332911,7.872386,-5.857629,1.062413,0.057421,-0.001221,-0.039095
2026-03-26T22:38:37.342911,6.226124,-4.398007,1.071984,0.069638,-0.039095,-0.026878
2026-03-26T22:38:37.352911,11.083554,-8.925228,0.478564,-0.194255,0.103847,-0.130725
2026-03-26T22:38:37.361911,6.116054,-2.995813,0.914058,0.015882,-0.259006,0.002443
2026-03-26T22:38:37.371911,8.944370,-8.121239,0.803988,-0.178372,-0.230907,0.129503
2026-03-26T22:38:37.380911,6.786044,-5.087140,0.818345,-0.226020,0.063529,-0.157603
2026-03-26T22:38:37.390911,7.642675,-5.503491,0.765703,0.108733,-0.076969,0.074525
2026-03-26T22:38:37.400911,8.867800,-6.685546,0.679561,-0.014660,0.235793,-0.123394
2026-03-26T22:38:37.409911,7.724031,-5.144568,0.803988,0.158824,0.207694,-0.092851
2026-03-26T22:38:37.419911,8.250452,-6.618547,0.937986,0.248011,0.162490,-0.003665
2026-03-26T22:38:37.429911,7.843672,-5.819344,0.952343,0.123394,0.246789,-0.177150
2026-03-26T22:38:37.438911,7.451249,-5.465206,1.435693,0.301767,0.023212,-0.052534
2026-03-26T22:38:37.448911,7.925028,-6.331408,1.454836,0.201585,0.010995,-0.089186
2026-03-26T22:38:37.457911,8.001598,-5.178068,1.258624,0.147829,-0.153938,-0.105068
2026-03-26T22:38:37.467911,8.015955,-6.001199,1.430907,0.090408,-0.285884,-0.009773
2026-03-26T22:38:37.477911,8.260023,-6.053841,0.942772,-0.068416,-0.311541,-0.057421
2026-03-26T22:38:37.486911,7.671389,-5.393422,0.827916,0.029321,-0.379958,0.046425
2026-03-26T22:38:37.496911,8.030312,-6.321837,0.794417,-0.002443,-0.201585,0.028099
2026-03-26T22:38:37.505911,8.044669,-5.776273,0.478564,-0.001221,-0.031764,-0.046425
2026-03-26T22:38:37.515911,7.814958,-5.824130,0.784845,0.098960,0.012217,0.004886
2026-03-26T22:38:37.525911,8.030312,-6.192624,0.665204,0.067195,0.076969,-0.009773
2026-03-26T22:38:37.534911,7.848458,-5.982056,0.866201,0.111177,0.107512,-0.019547
2026-03-26T22:38:37.544911,7.810172,-6.077769,1.071984,0.116064,0.124616,-0.080634
2026-03-26T22:38:37.554911,7.633104,-5.843272,1.067198,0.114842,0.130725,-0.169820
2026-03-26T22:38:37.563911,7.728816,-5.843272,1.182054,0.085521,0.094073,-0.180816
2026-03-26T22:38:37.573911,8.092526,-5.838487,1.124626,0.003665,0.020769,-0.139277
2026-03-26T22:38:37.582911,7.877171,-5.790630,1.196411,-0.046425,-0.133168,-0.013439
2026-03-26T22:38:37.592911,7.934599,-5.790630,1.129412,-0.074525,-0.235793,0.097738
2026-03-26T22:38:37.602911,7.475177,-5.986842,0.952343,-0.118507,-0.298102,0.156381
2026-03-26T22:38:37.611911,8.011170,-5.752345,1.162911,-0.096516,-0.262671,0.100181
2026-03-26T22:38:37.621911,8.097311,-5.699703,0.947557,-0.047647,-0.221133,-0.015882
2026-03-26T22:38:37.630911,7.982456,-5.958128,0.918843,0.019547,-0.226020,-0.028099
2026-03-26T22:38:37.640911,8.039883,-5.986842,0.976271,0.041538,-0.230907,-0.003665
2026-03-26T22:38:37.650911,7.819744,-6.058626,0.765703,0.026878,-0.268780,0.061086
2026-03-26T22:38:37.659911,7.719245,-5.929414,1.004985,0.037873,-0.280997,0.072082
2026-03-26T22:38:37.669911,7.666603,-5.972485,0.646062,0.023212,-0.251676,0.009773
2026-03-26T22:38:37.679911,8.092526,-5.718846,0.837487,0.043982,-0.252898,-0.024434
2026-03-26T22:38:37.688911,7.992027,-5.824130,1.004985,0.092851,-0.230907,-0.083077
2026-03-26T22:38:37.698911,8.039883,-5.685346,1.024128,0.103847,-0.243124,-0.070860
2026-03-26T22:38:37.707911,7.834101,-5.757131,1.086341,0.133168,-0.255341,-0.015882
2026-03-26T22:38:37.717911,8.111668,-5.618347,0.885344,0.101403,-0.260228,0.020769
2026-03-26T22:38:37.727911,7.929814,-5.771488,0.966700,0.096516,-0.248011,0.012217
2026-03-26T22:38:37.736911,8.145168,-5.680560,0.957129,0.118507,-0.245567,-0.007330
2026-03-26T22:38:37.746911,8.035098,-5.680560,0.952343,0.108733,-0.243124,-0.013439
2026-03-26T22:38:37.755911,8.054240,-5.704489,0.837487,0.108733,-0.223576,-0.015882
2026-03-26T22:38:37.765911,8.039883,-5.690132,0.923629,0.111177,-0.201585,-0.025656
2026-03-26T22:38:37.775911,7.972884,-5.733202,0.765703,0.096516,-0.177150,-0.034208
2026-03-26T22:38:37.784911,8.006384,-5.814558,0.856630,0.089186,-0.149051,-0.041538
2026-03-26T22:38:37.794911,8.030312,-5.761916,0.899701,0.087964,-0.163711,-0.025656
2026-03-26T22:38:37.804911,8.073383,-5.776273,0.856630,0.090408,-0.206472,0.015882
2026-03-26T22:38:37.813911,8.078169,-5.637490,0.803988,0.087964,-0.210137,0.035430
2026-03-26T22:38:37.823911,7.958527,-5.804987,0.832702,0.086742,-0.186924,0.064751
2026-03-26T22:38:37.832911,7.944171,-5.886343,0.789631,0.090408,-0.166155,0.046425
2026-03-26T22:38:37.842911,7.910671,-5.843272,0.703489,0.098960,-0.149051,0.010995
2026-03-26T22:38:37.852911,7.958527,-5.857629,0.760917,0.097738,-0.118507,-0.023212
2026-03-26T22:38:37.861911,8.015955,-5.790630,0.708275,0.087964,-0.080634,-0.029321
2026-03-26T22:38:37.871911,7.972884,-5.795416,0.775274,0.080634,-0.042760,-0.015882
2026-03-26T22:38:37.880911,8.015955,-5.733202,0.751346,0.072082,-0.018325,-0.029321
2026-03-26T22:38:37.890911,7.968099,-5.895914,0.770488,0.074525,0.009773,-0.037873
2026-03-26T22:38:37.900911,8.035098,-5.785845,0.784845,0.069638,0.024434,-0.043982
2026-03-26T22:38:37.909911,8.015955,-5.761916,0.837487,0.069638,0.021991,-0.024434
2026-03-26T22:38:37.919911,7.977670,-5.709274,1.004985,0.056199,0.010995,-0.001221
2026-03-26T22:38:37.929911,7.872386,-5.737988,0.933200,0.006108,-0.012217,0.034208
2026-03-26T22:38:37.938911,7.896314,-5.986842,0.866201,-0.032986,-0.026878,0.019547
2026-03-26T22:38:37.948911,7.968099,-5.728417,0.732203,-0.041538,-0.024434,0.018325
2026-03-26T22:38:37.957911,7.901100,-6.106483,0.607776,-0.018325,-0.009773,-0.007330
2026-03-26T22:38:37.967911,7.834101,-5.919843,0.799202,0.031764,0.021991,-0.076969
2026-03-26T22:38:37.977911,8.087740,-5.848058,0.679561,0.061086,0.047647,-0.142942
2026-03-26T22:38:37.986911,7.958527,-5.733202,0.885344,0.091629,0.065973,-0.168598
2026-03-26T22:38:37.996911,8.054240,-5.766702,0.870987,0.106290,0.068416,-0.138055
2026-03-26T22:38:38.005911,7.929814,-5.790630,0.880558,0.109955,0.045204,-0.096516
2026-03-26T22:38:38.015911,8.178667,-5.613561,1.028913,0.103847,0.028099,-0.046425
2026-03-26T22:38:38.025911,7.944171,-5.761916,0.904486,0.091629,0.019547,0.001221
2026-03-26T22:38:38.034911,8.054240,-5.733202,0.942772,0.087964,0.012217,0.029321
2026-03-26T22:38:38.044911,8.020741,-5.694917,0.918843,0.085521,-0.008552,0.069638
2026-03-26T22:38:38.054911,7.963313,-5.790630,1.048056,0.084299,-0.036651,0.097738
2026-03-26T22:38:38.063911,7.963313,-5.848058,1.129412,0.084299,-0.072082,0.103847
2026-03-26T22:38:38.073911,7.929814,-5.804987,1.019342,0.062308,-0.087964,0.089186
2026-03-26T22:38:38.082911,7.901100,-5.910271,0.985842,0.041538,-0.107512,0.085521
2026-03-26T22:38:38.092911,7.934599,-5.895914,0.933200,0.031764,-0.100181,0.050090
2026-03-26T22:38:38.102911,8.015955,-5.833701,0.899701,0.029321,-0.081855,0.036651
2026-03-26T22:38:38.111911,8.025527,-5.843272,0.928415,0.014660,-0.075747,0.045204
2026-03-26T22:38:38.121911,7.858029,-5.924628,0.952343,0.008552,-0.078190,0.043982
2026-03-26T22:38:38.130911,7.977670,-5.891129,0.928415,0.017104,-0.087964,0.025656
2026-03-26T22:38:38.140911,8.035098,-5.742774,1.014556,0.025656,-0.108733,0.036651
2026-03-26T22:38:38.150911,7.948956,-5.843272,0.890130,0.045204,-0.144164,0.062308
2026-03-26T22:38:38.159911,8.020741,-5.814558,0.933200,0.054977,-0.168598,0.092851
2026-03-26T22:38:38.169911,7.977670,-5.876772,0.904486,0.047647,-0.172263,0.119729
2026-03-26T22:38:38.179911,7.862815,-5.910271,0.957129,0.041538,-0.156381,0.116064
2026-03-26T22:38:38.188911,7.910671,-5.929414,0.851844,0.025656,-0.117286,0.084299
2026-03-26T22:38:38.198911,7.791030,-5.991627,0.837487,0.032986,-0.094073,0.030543
2026-03-26T22:38:38.207911,7.920242,-5.938985,0.847059,0.041538,-0.072082,-0.020769
2026-03-26T22:38:38.217911,7.858029,-5.958128,0.971485,0.042760,-0.090408,-0.043982
2026-03-26T22:38:38.227911,7.996813,-5.800201,0.947557,0.046425,-0.123394,-0.037873
2026-03-26T22:38:38.236911,7.958527,-5.742774,0.937986,0.040317,-0.152716,0.007330
2026-03-26T22:38:38.246911,8.001598,-5.804987,0.803988,0.036651,-0.140498,0.050090
2026-03-26T22:38:38.255911,7.872386,-5.953342,0.770488,0.054977,-0.101403,0.059864
2026-03-26T22:38:38.265911,7.896314,-5.962913,0.756131,0.072082,-0.047647,0.041538
2026-03-26T22:38:38.275911,7.814958,-5.934200,0.866201,0.098960,-0.023212,0.006108
2026-03-26T22:38:38.284911,7.929814,-5.833701,0.885344,0.118507,-0.025656,-0.012217
2026-03-26T22:38:38.294911,7.939385,-5.852844,0.904486,0.124616,-0.026878,-0.009773
2026-03-26T22:38:38.304911,8.025527,-5.891129,0.569491,0.078190,0.064751,-0.029321
2026-03-26T22:38:38.313911,8.001598,-5.718846,1.043270,0.026878,0.152716,-0.052534
2026-03-26T22:38:38.323911,7.934599,-5.848058,1.009771,-0.004886,0.135612,-0.035430
2026-03-26T22:38:38.332911,7.814958,-5.900700,1.057627,-0.030543,0.095294,-0.039095
2026-03-26T22:38:38.342911,7.891528,-5.867201,1.043270,-0.039095,0.065973,-0.061086
2026-03-26T22:38:38.352911,7.891528,-5.857629,1.004985,-0.036651,0.004886,-0.058643
2026-03-26T22:38:38.361911,7.843672,-5.857629,1.091127,-0.024434,-0.058643,-0.050090
2026-03-26T22:38:38.371911,7.905885,-5.900700,1.067198,-0.008552,-0.091629,-0.045204
2026-03-26T22:38:38.380911,8.039883,-5.838487,0.957129,0.009773,-0.109955,-0.024434
2026-03-26T22:38:38.390911,7.963313,-5.876772,0.942772,0.030543,-0.116064,-0.006108
2026-03-26T22:38:38.400911,7.925028,-5.886343,0.909272,0.046425,-0.138055,0.032986
2026-03-26T22:38:38.409911,7.872386,-5.848058,0.904486,0.041538,-0.129503,0.061086
2026-03-26T22:38:38.419911,7.795816,-6.025127,0.856630,0.017104,-0.111177,0.074525
2026-03-26T22:38:38.429911,7.838886,-6.020341,0.875773,-0.012217,-0.083077,0.058643
2026-03-26T22:38:38.438911,7.819744,-6.072983,0.861416,-0.029321,-0.084299,0.026878
2026-03-26T22:38:38.448911,7.647461,-6.163911,0.851844,-0.036651,-0.095294,-0.002443
2026-03-26T22:38:38.457911,7.743173,-6.106483,0.875773,-0.048869,-0.134390,0.004886
2026-03-26T22:38:38.467911,7.661817,-6.144768,0.818345,-0.076969,-0.199142,0.076969
2026-03-26T22:38:38.477911,7.695317,-6.436692,0.885344,-0.125838,-0.276111,0.207694
2026-03-26T22:38:38.486911,7.331608,-6.518048,0.818345,-0.283441,-0.408057,0.487470
2026-03-26T22:38:38.496911,7.886743,-6.087340,0.521635,-0.412944,-0.504574,0.663399
2026-03-26T22:38:38.505911,7.867600,-5.742774,0.689132,-0.398284,-0.395840,0.563217
2026-03-26T22:38:38.515911,7.968099,-5.781059,0.961914,-0.244346,-0.189368,0.333532
2026-03-26T22:38:38.525911,7.728816,-6.216553,0.794417,-0.216246,-0.128281,0.294436
2026-03-26T22:38:38.534911,7.432106,-6.293123,0.559920,-0.289550,-0.194255,0.361632
2026-03-26T22:38:38.544911,8.336593,-5.967699,0.612562,-0.317649,-0.179594,0.340862
2026-03-26T22:38:38.554911,8.049455,-5.766702,0.957129,-0.241902,-0.073303,0.291993
2026-03-26T22:38:38.563911,8.073383,-5.694917,0.646062,-0.169820,-0.019547,0.221133
2026-03-26T22:38:38.573911,7.992027,-5.819344,0.650847,-0.075747,-0.015882,0.101403
2026-03-26T22:38:38.582911,7.738388,-6.125625,0.425922,0.010995,-0.025656,0.035430
2026-03-26T22:38:38.592911,7.704888,-6.269195,0.468993,0.134390,-0.045204,-0.001221
2026-03-26T22:38:38.602911,7.834101,-6.537191,0.033499,0.221133,0.001221,-0.024434
2026-03-26T22:38:38.611911,7.604390,-6.321837,0.330209,0.276111,0.171042,-0.118507
2026-03-26T22:38:38.621911,7.858029,-6.130411,0.401994,0.326201,0.271224,-0.182037
2026-03-26T22:38:38.630911,7.901100,-6.096911,0.244067,0.417831,0.324980,-0.172263
2026-03-26T22:38:38.640911,8.279166,-12.327822,-7.623532,0.659734,0.384845,-0.155159
2026-03-26T22:38:38.650911,7.671389,-6.685546,0.234496,0.894306,0.228463,0.311541
2026-03-26T22:38:38.659911,8.322237,-5.570491,0.775274,1.059240,0.465479,0.180816
2026-03-26T22:38:38.669911,7.633104,-6.393621,0.607776,1.165530,0.707381,0.158824
2026-03-26T22:38:38.679911,7.896314,-6.015556,1.062413,1.171639,0.822224,0.141720
2026-03-26T22:38:38.688911,7.259823,-5.517848,-0.181854,0.978605,0.548556,0.128281
2026-03-26T22:38:38.698911,7.695317,-6.388836,0.918843,0.912632,0.646295,0.014660
2026-03-26T22:38:38.707911,7.523034,-5.972485,1.698904,0.886976,0.706160,-0.084299
2026-03-26T22:38:38.717911,7.992027,-6.130411,1.756331,0.681725,0.497244,-0.169820
2026-03-26T22:38:38.727911,8.633303,-6.293123,2.976671,0.417831,0.197920,-0.226020
2026-03-26T22:38:38.736911,7.168896,-6.168696,2.713460,0.458148,0.445931,-0.145385
2026-03-26T22:38:38.746911,7.676174,-5.895914,2.641676,0.416610,0.405614,-0.091629
2026-03-26T22:38:38.755911,7.369893,-5.623133,2.201396,0.293215,0.193033,-0.076969
2026-03-26T22:38:38.765911,7.561319,-5.876772,2.086541,0.139277,0.018325,-0.108733
2026-03-26T22:38:38.775911,7.652246,-5.967699,2.081755,0.042760,-0.122173,-0.127059
2026-03-26T22:38:38.784911,7.255038,-6.494120,2.459821,0.009773,-0.218689,-0.100181
2026-03-26T22:38:38.794911,7.523034,-6.283552,2.115255,0.014660,-0.208915,-0.102625
2026-03-26T22:38:38.804911,7.637889,-6.025127,2.038684,0.023212,-0.169820,-0.078190
2026-03-26T22:38:38.813911,7.657032,-5.958128,2.110469,0.039095,-0.166155,-0.015882
2026-03-26T22:38:38.823911,7.575676,-5.953342,2.167897,0.021991,-0.195476,0.074525
2026-03-26T22:38:38.832911,7.647461,-5.982056,2.187039,-0.023212,-0.234572,0.133168
2026-03-26T22:38:38.842911,7.628318,-6.068198,2.005185,-0.096516,-0.255341,0.156381
2026-03-26T22:38:38.852911,7.489534,-6.178267,1.919043,-0.152716,-0.259006,0.149051
2026-03-26T22:38:38.861911,7.599604,-6.116054,1.751546,-0.194255,-0.260228,0.127059
2026-03-26T22:38:38.871911,7.590033,-6.130411,1.828116,-0.197920,-0.270002,0.106290
2026-03-26T22:38:38.880911,7.781459,-6.082555,1.564905,-0.166155,-0.366519,0.147829
2026-03-26T22:38:38.890911,7.618747,-6.197410,1.689332,-0.138055,-0.386066,0.180816
2026-03-26T22:38:38.900911,7.628318,-6.221338,1.464407,-0.128281,-0.332310,0.162490
2026-03-26T22:38:38.909911,7.575676,-6.254838,1.464407,-0.111177,-0.261450,0.125838
2026-03-26T22:38:38.919911,7.546962,-6.269195,1.526620,-0.092851,-0.204028,0.069638
2026-03-26T22:38:38.929911,7.709674,-6.178267,1.473978,-0.080634,-0.210137,0.058643
2026-03-26T22:38:38.938911,7.537391,-6.092126,1.631905,-0.070860,-0.235793,0.075747
2026-03-26T22:38:38.948911,7.604390,-6.211767,1.584048,-0.081855,-0.249232,0.081855
2026-03-26T22:38:38.957911,7.613961,-6.216553,1.493121,-0.085521,-0.249232,0.091629
2026-03-26T22:38:38.967911,7.704888,-6.154339,1.445264,-0.085521,-0.250454,0.101403
2026-03-26T22:38:38.977911,7.556533,-6.159125,1.631905,-0.094073,-0.284663,0.139277
2026-03-26T22:38:38.986911,7.599604,-6.226124,1.421336,-0.103847,-0.282219,0.138055
2026-03-26T22:38:38.996911,7.623532,-6.283552,1.488335,-0.107512,-0.265115,0.127059
2026-03-26T22:38:39.005911,7.613961,-6.326622,1.344766,-0.111177,-0.250454,0.111177
2026-03-26T22:38:39.015911,7.561319,-6.364908,1.406979,-0.102625,-0.223576,0.083077
2026-03-26T22:38:39.025911,7.532605,-6.278766,1.344766,-0.086742,-0.213802,0.061086
2026-03-26T22:38:39.034911,7.580461,-6.221338,1.359123,-0.078190,-0.216246,0.057421
2026-03-26T22:38:39.044911,7.532605,-6.340979,1.383051,-0.062308,-0.230907,0.065973
2026-03-26T22:38:39.054911,7.594818,-6.321837,1.311266,-0.037873,-0.237015,0.063529
2026-03-26T22:38:39.063911,7.566105,-6.245266,1.225125,-0.024434,-0.229685,0.061086
2026-03-26T22:38:39.073911,7.580461,-6.321837,1.249053,-0.007330,-0.217467,0.068416
2026-03-26T22:38:39.082911,7.580461,-6.355336,1.268195,0.009773,-0.184481,0.050090
2026-03-26T22:38:39.092911,7.446463,-6.364908,1.196411,0.019547,-0.145385,0.019547
2026-03-26T22:38:39.102911,7.523034,-6.336194,1.268195,0.014660,-0.123394,-0.001221
2026-03-26T22:38:39.111911,7.513462,-6.345765,1.344766,0.000000,-0.139277,-0.004886
2026-03-26T22:38:39.121911,7.542176,-6.345765,1.335195,-0.010995,-0.184481,0.006108
2026-03-26T22:38:39.130911,7.532605,-6.302694,1.344766,-0.021991,-0.218689,0.017104
2026-03-26T22:38:39.140911,7.570890,-6.288337,1.287338,-0.030543,-0.262671,0.046425
2026-03-26T22:38:39.150911,7.523034,-6.264409,1.191625,-0.029321,-0.290771,0.068416
2026-03-26T22:38:39.159911,7.647461,-6.288337,1.210768,-0.031764,-0.300545,0.094073
2026-03-26T22:38:39.169911,7.580461,-6.326622,1.196411,-0.046425,-0.280997,0.100181
2026-03-26T22:38:39.179911,7.570890,-6.407978,0.890130,-0.053756,-0.218689,0.081855
2026-03-26T22:38:39.188911,7.599604,-6.431907,0.990628,-0.031764,-0.136833,0.030543
2026-03-26T22:38:39.198911,7.484749,-6.393621,1.057627,0.003665,-0.091629,-0.003665
2026-03-26T22:38:39.207911,7.580461,-6.293123,1.143769,0.032986,-0.083077,-0.017104
2026-03-26T22:38:39.217911,7.546962,-6.317051,1.153340,0.036651,-0.078190,-0.009773
2026-03-26T22:38:39.227911,7.403393,-6.364908,1.119840,0.026878,-0.094073,0.004886
2026-03-26T22:38:39.236911,7.551748,-6.278766,1.301695,-0.003665,-0.136833,0.043982
2026-03-26T22:38:39.246911,7.499106,-6.288337,1.177268,-0.046425,-0.197920,0.108733
2026-03-26T22:38:39.255911,7.188039,-6.608976,1.153340,-0.139277,-0.300545,0.188146
2026-03-26T22:38:39.265911,7.704888,-6.350551,1.081555,-0.217467,-0.395840,0.215024
2026-03-26T22:38:39.275911,7.657032,-6.269195,1.110269,-0.157603,-0.326201,0.123394
2026-03-26T22:38:39.284911,7.599604,-6.331408,0.981057,-0.097738,-0.274889,0.097738
2026-03-26T22:38:39.294911,7.561319,-6.451049,0.957129,-0.106290,-0.317649,0.150272
2026-03-26T22:38:39.304911,7.503891,-6.455835,0.861416,-0.108733,-0.337197,0.172263
2026-03-26T22:38:39.313911,7.642675,-6.254838,0.937986,-0.096516,-0.327423,0.168598
2026-03-26T22:38:39.323911,7.508677,-6.388836,0.928415,-0.040317,-0.259006,0.130725
2026-03-26T22:38:39.332911,7.475177,-6.388836,0.957129,-0.010995,-0.228463,0.108733
2026-03-26T22:38:39.342911,7.508677,-6.465406,0.937986,-0.007330,-0.211359,0.108733
2026-03-26T22:38:39.352911,7.403393,-6.498906,0.880558,-0.035430,-0.222354,0.122173
2026-03-26T22:38:39.361911,7.494320,-6.489334,0.880558,-0.061086,-0.237015,0.125838
2026-03-26T22:38:39.371911,7.374679,-6.451049,0.789631,-0.064751,-0.218689,0.113620
2026-03-26T22:38:39.380911,7.412964,-6.479763,0.856630,-0.051312,-0.177150,0.085521
2026-03-26T22:38:39.390911,7.479963,-6.455835,0.832702,-0.042760,-0.144164,0.067195
2026-03-26T22:38:39.400911,7.408178,-6.503691,0.842273,-0.036651,-0.124616,0.058643
2026-03-26T22:38:39.409911,7.451249,-6.513263,0.856630,-0.034208,-0.125838,0.051312
2026-03-26T22:38:39.419911,7.446463,-6.546762,0.823130,-0.036651,-0.122173,0.048869
2026-03-26T22:38:39.429911,7.470392,-6.474977,0.866201,-0.039095,-0.118507,0.041538
2026-03-26T22:38:39.438911,7.484749,-6.541976,0.794417,-0.034208,-0.122173,0.042760
2026-03-26T22:38:39.448911,7.432106,-6.455835,0.789631,-0.036651,-0.131946,0.058643
2026-03-26T22:38:39.457911,7.417750,-6.541976,0.818345,-0.042760,-0.133168,0.073303
2026-03-26T22:38:39.467911,7.412964,-6.565905,0.655633,-0.041538,-0.124616,0.069638
2026-03-26T22:38:39.477911,7.475177,-6.513263,0.703489,-0.031764,-0.128281,0.076969
2026-03-26T22:38:39.486911,7.446463,-6.503691,0.770488,-0.029321,-0.122173,0.087964
2026-03-26T22:38:39.496911,7.369893,-6.637689,0.732203,-0.035430,-0.114842,0.091629
2026-03-26T22:38:39.505911,7.360322,-6.685546,0.770488,-0.032986,-0.124616,0.086742
2026-03-26T22:38:39.515911,7.441678,-6.613761,0.689132,-0.029321,-0.134390,0.075747
2026-03-26T22:38:39.525911,7.393821,-6.451049,0.741775,-0.019547,-0.134390,0.074525
2026-03-26T22:38:39.534911,7.379464,-6.575476,0.650847,-0.020769,-0.138055,0.085521
2026-03-26T22:38:39.544911,7.326822,-6.589833,0.741775,-0.031764,-0.138055,0.092851
2026-03-26T22:38:39.554911,7.427321,-6.561119,0.741775,-0.030543,-0.122173,0.081855
2026-03-26T22:38:39.563911,7.278966,-6.551548,0.751346,-0.031764,-0.113620,0.067195
2026-03-26T22:38:39.573911,7.369893,-6.613761,0.713061,-0.040317,-0.118507,0.057421
2026-03-26T22:38:39.582911,7.365107,-6.575476,0.689132,-0.039095,-0.130725,0.064751
2026-03-26T22:38:39.592911,7.355536,-6.565905,0.741775,-0.031764,-0.130725,0.072082
2026-03-26T22:38:39.602911,7.317251,-6.661618,0.732203,-0.029321,-0.128281,0.068416
2026-03-26T22:38:39.611911,7.336394,-6.632904,0.698704,-0.031764,-0.138055,0.062308
2026-03-26T22:38:39.621911,7.389036,-6.613761,0.713061,-0.030543,-0.144164,0.057421
2026-03-26T22:38:39.630911,7.350751,-6.666403,0.665204,-0.025656,-0.147829,0.054977
2026-03-26T22:38:39.640911,7.393821,-6.580262,0.612562,-0.018325,-0.134390,0.057421
2026-03-26T22:38:39.650911,7.355536,-6.599404,0.622133,-0.012217,-0.130725,0.057421
2026-03-26T22:38:39.659911,7.341179,-6.656832,0.612562,-0.009773,-0.128281,0.058643
2026-03-26T22:38:39.669911,7.432106,-6.757331,0.535992,-0.017104,-0.139277,0.052534
2026-03-26T22:38:39.679911,7.379464,-6.671189,0.593420,-0.003665,-0.108733,0.035430
2026-03-26T22:38:39.688911,7.302894,-6.642475,0.617348,0.007330,-0.086742,0.020769
2026-03-26T22:38:39.698911,7.360322,-6.589833,0.674775,0.012217,-0.081855,0.015882
2026-03-26T22:38:39.707911,7.350751,-6.580262,0.626919,0.017104,-0.076969,0.018325
2026-03-26T22:38:39.717911,7.293323,-6.656832,0.626919,0.014660,-0.075747,0.030543
2026-03-26T22:38:39.727911,7.278966,-6.570690,0.617348,0.015882,-0.073303,0.035430
2026-03-26T22:38:39.736911,7.374679,-6.628118,0.665204,0.018325,-0.074525,0.037873
2026-03-26T22:38:39.746911,7.302894,-6.661618,0.531206,0.020769,-0.074525,0.041538
2026-03-26T22:38:39.755911,7.312465,-6.628118,0.583848,0.017104,-0.069638,0.041538
2026-03-26T22:38:39.765911,7.274180,-6.738188,0.588634,0.014660,-0.067195,0.039095
2026-03-26T22:38:39.775911,7.293323,-6.642475,0.598205,0.008552,-0.065973,0.035430
2026-03-26T22:38:39.784911,7.274180,-6.699903,0.602991,0.001221,-0.054977,0.030543
2026-03-26T22:38:39.794911,7.302894,-6.642475,0.626919,-0.003665,-0.047647,0.015882
2026-03-26T22:38:39.804911,7.255038,-6.661618,0.583848,-0.004886,-0.041538,0.004886
2026-03-26T22:38:39.813911,7.341179,-6.647261,0.626919,-0.008552,-0.048869,0.003665
2026-03-26T22:38:39.823911,7.259823,-6.656832,0.598205,-0.007330,-0.054977,0.012217
2026-03-26T22:38:39.832911,7.317251,-6.661618,0.641276,-0.001221,-0.063529,0.019547
2026-03-26T22:38:39.842911,7.302894,-6.666403,0.650847,0.006108,-0.065973,0.028099
2026-03-26T22:38:39.852911,7.302894,-6.666403,0.555134,0.012217,-0.064751,0.035430
2026-03-26T22:38:39.861911,7.278966,-6.661618,0.636490,0.014660,-0.063529,0.037873
2026-03-26T22:38:39.871911,7.250252,-6.714260,0.622133,0.015882,-0.067195,0.036651
2026-03-26T22:38:39.880911,7.250252,-6.766902,0.617348,0.014660,-0.064751,0.025656
2026-03-26T22:38:39.890911,7.264609,-6.671189,0.579063,0.007330,-0.061086,0.018325
2026-03-26T22:38:39.900911,7.307680,-6.714260,0.550349,0.009773,-0.056199,0.002443
2026-03-26T22:38:39.909911,7.293323,-6.685546,0.626919,0.014660,-0.061086,-0.006108
2026-03-26T22:38:39.919911,7.331608,-6.699903,0.545563,0.017104,-0.061086,0.007330
2026-03-26T22:38:39.929911,7.298108,-6.666403,0.607776,0.017104,-0.061086,0.020769
2026-03-26T22:38:39.938911,7.245466,-6.675975,0.583848,0.013439,-0.057421,0.030543
2026-03-26T22:38:39.948911,7.216752,-6.742974,0.574277,0.008552,-0.052534,0.029321
2026-03-26T22:38:39.957911,7.216752,-6.733402,0.588634,0.004886,-0.046425,0.010995
2026-03-26T22:38:39.967911,7.245466,-6.709474,0.583848,0.006108,-0.050090,-0.002443
2026-03-26T22:38:39.977911,7.226324,-6.680760,0.626919,0.006108,-0.052534,-0.004886
2026-03-26T22:38:39.986911,7.322037,-6.690331,0.593420,0.007330,-0.058643,0.000000
2026-03-26T22:38:39.996911,7.288537,-6.690331,0.545563,0.004886,-0.063529,0.008552
2026-03-26T22:38:40.005911,7.221538,-6.709474,0.535992,0.006108,-0.063529,0.010995
2026-03-26T22:38:40.015911,7.255038,-6.680760,0.550349,0.009773,-0.057421,-0.001221
2026-03-26T22:38:40.025911,7.240681,-6.699903,0.579063,0.009773,-0.053756,-0.004886
2026-03-26T22:38:40.034911,7.269395,-6.699903,0.622133,0.013439,-0.058643,-0.004886
2026-03-26T22:38:40.044911,7.240681,-6.728617,0.612562,0.013439,-0.061086,-0.001221
2026-03-26T22:38:40.054911,7.250252,-6.719045,0.569491,0.009773,-0.063529,0.000000
2026-03-26T22:38:40.063911,7.235895,-6.733402,0.526420,0.012217,-0.063529,-0.003665
2026-03-26T22:38:40.073911,7.216752,-6.661618,0.545563,0.018325,-0.064751,-0.006108
2026-03-26T22:38:40.082911,7.226324,-6.714260,0.602991,0.021991,-0.068416,-0.002443
2026-03-26T22:38:40.092911,7.307680,-6.709474,0.564706,0.021991,-0.073303,0.006108
2026-03-26T22:38:40.102911,7.235895,-6.690331,0.669990,0.020769,-0.072082,0.009773
2026-03-26T22:38:40.111911,7.221538,-6.781259,0.521635,0.020769,-0.073303,0.006108
2026-03-26T22:38:40.121911,7.288537,-6.680760,0.593420,0.025656,-0.075747,-0.006108
2026-03-26T22:38:40.130911,7.255038,-6.757331,0.588634,0.024434,-0.073303,-0.006108
2026-03-26T22:38:40.140911,7.264609,-6.752545,0.540777,0.021991,-0.069638,-0.017104
2026-03-26T22:38:40.150911,7.245466,-6.742974,0.569491,0.020769,-0.061086,-0.032986
2026-03-26T22:38:40.159911,7.231109,-6.714260,0.555134,0.023212,-0.062308,-0.047647
2026-03-26T22:38:40.169911,7.274180,-6.675975,0.555134,0.029321,-0.065973,-0.046425
2026-03-26T22:38:40.179911,7.322037,-6.666403,0.593420,0.032986,-0.069638,-0.040317
2026-03-26T22:38:40.188911,7.259823,-6.709474,0.555134,0.036651,-0.072082,-0.036651
2026-03-26T22:38:40.198911,7.255038,-6.709474,0.588634,0.036651,-0.076969,-0.042760
2026-03-26T22:38:40.207911,7.269395,-6.709474,0.612562,0.035430,-0.076969,-0.057421
2026-03-26T22:38:40.217911,7.293323,-6.690331,0.607776,0.039095,-0.081855,-0.065973
2026-03-26T22:38:40.227911,7.269395,-6.747759,0.569491,0.046425,-0.091629,-0.061086
2026-03-26T22:38:40.236911,7.250252,-6.690331,0.569491,0.047647,-0.100181,-0.064751
2026-03-26T22:38:40.246911,7.245466,-6.738188,0.650847,0.062308,-0.112399,-0.070860
2026-03-26T22:38:40.255911,7.298108,-6.719045,0.593420,0.089186,-0.142942,-0.083077
2026-03-26T22:38:40.265911,7.360322,-6.652046,0.598205,0.109955,-0.145385,-0.076969
2026-03-26T22:38:40.275911,7.384250,-6.632904,0.579063,0.118507,-0.150272,-0.058643
2026-03-26T22:38:40.284911,7.235895,-6.675975,0.579063,0.123394,-0.174707,-0.045204
2026-03-26T22:38:40.294911,7.231109,-6.723831,0.483350,0.134390,-0.184481,-0.072082
2026-03-26T22:38:40.304911,7.331608,-6.642475,0.564706,0.173485,-0.202807,-0.094073
2026-03-26T22:38:40.313911,7.365107,-6.656832,0.526420,0.191811,-0.213802,-0.085521
2026-03-26T22:38:40.323911,7.298108,-6.714260,0.521635,0.210137,-0.232128,-0.064751
2026-03-26T22:38:40.332911,7.245466,-6.699903,0.526420,0.216246,-0.250454,-0.076969
2026-03-26T22:38:40.342911,7.259823,-6.757331,0.593420,0.250454,-0.302989,-0.092851
2026-03-26T22:38:40.352911,6.862615,-6.958328,0.631705,0.301767,-0.355523,-0.155159
2026-03-26T22:38:40.361911,7.302894,-6.604190,0.531206,0.304210,-0.313984,-0.333532
2026-03-26T22:38:40.371911,7.532605,-6.398407,0.296710,0.274889,-0.266337,-0.409279
2026-03-26T22:38:40.380911,7.168896,-6.580262,0.612562,0.282219,-0.245567,-0.442266
2026-03-26T22:38:40.390911,8.207381,-5.991627,0.650847,0.288328,-0.228463,-0.433714
2026-03-26T22:38:40.400911,7.417750,-6.503691,0.674775,0.263893,-0.221133,-0.432492
2026-03-26T22:38:40.409911,6.809973,-7.039684,0.741775,0.239459,-0.190589,-0.449596
2026-03-26T22:38:40.419911,7.791030,-6.163911,0.521635,0.182037,-0.130725,-0.469144
2026-03-26T22:38:40.429911,7.657032,-6.235695,0.904486,0.125838,-0.080634,-0.420275
2026-03-26T22:38:40.438911,7.642675,-6.293123,0.713061,0.076969,-0.067195,-0.350636
2026-03-26T22:38:40.448911,8.116454,-5.977270,0.617348,0.048869,-0.101403,-0.285884
2026-03-26T22:38:40.457911,7.972884,-6.020341,0.100498,0.030543,-0.120951,-0.244346
2026-03-26T22:38:40.467911,8.078169,-5.900700,0.588634,0.004886,-0.105068,-0.230907
2026-03-26T22:38:40.477911,7.872386,-6.072983,0.397208,-0.004886,-0.141720,-0.134390
2026-03-26T22:38:40.486911,7.810172,-6.130411,0.430708,-0.002443,-0.156381,-0.080634
2026-03-26T22:38:40.496911,7.456035,-6.302694,0.703489,-0.002443,-0.146607,-0.081855
2026-03-26T22:38:40.505911,7.657032,-6.307480,0.775274,-0.013439,-0.162490,-0.101403
2026-03-26T22:38:40.515911,8.087740,-5.369493,1.545763,0.202807,0.169820,-0.447153
2026-03-26T22:38:40.525911,7.704888,-6.139982,0.631705,0.232128,0.019547,-0.293215
2026-03-26T22:38:40.534911,7.824529,-5.843272,1.038485,0.211359,-0.094073,-0.133168
2026-03-26T22:38:40.544911,7.781459,-5.881557,0.095712,0.204028,-0.097738,-0.128281
2026-03-26T22:38:40.554911,7.326822,-6.585047,0.799202,0.173485,-0.080634,-0.184481
2026-03-26T22:38:40.563911,7.350751,-6.647261,0.550349,0.202807,-0.139277,-0.227241
2026-03-26T22:38:40.573911,7.503891,-6.484549,0.411565,0.205250,-0.185702,-0.208915
2026-03-26T22:38:40.582911,7.580461,-6.431907,0.445065,0.171042,-0.172263,-0.186924
2026-03-26T22:38:40.592911,7.652246,-6.273980,0.579063,0.160046,-0.197920,-0.150272
2026-03-26T22:38:40.602911,7.795816,-6.187839,0.492921,0.179594,-0.213802,-0.113620
2026-03-26T22:38:40.611911,7.666603,-6.139982,0.531206,0.184481,-0.196698,-0.087964
2026-03-26T22:38:40.621911,7.747959,-6.125625,0.521635,0.188146,-0.190589,-0.069638
2026-03-26T22:38:40.630911,7.776673,-6.120840,0.392422,0.172263,-0.167377,-0.053756
2026-03-26T22:38:40.640911,7.585247,-6.245266,0.507278,0.135612,-0.123394,-0.076969
2026-03-26T22:38:40.650911,7.657032,-6.202196,0.574277,0.105068,-0.080634,-0.118507
2026-03-26T22:38:40.659911,7.814958,-6.058626,0.550349,0.089186,-0.058643,-0.135612
2026-03-26T22:38:40.669911,7.805387,-6.077769,0.717846,0.078190,-0.048869,-0.128281
2026-03-26T22:38:40.679911,7.848458,-6.015556,0.650847,0.062308,-0.057421,-0.086742
2026-03-26T22:38:40.688911,7.848458,-6.187839,0.631705,0.047647,-0.046425,-0.054977
2026-03-26T22:38:40.698911,7.853243,-6.025127,0.650847,0.050090,-0.029321,-0.052534
2026-03-26T22:38:40.707911,7.647461,-6.178267,0.526420,0.054977,0.002443,-0.057421
2026-03-26T22:38:40.717911,7.795816,-6.063412,0.564706,0.068416,0.009773,-0.058643
2026-03-26T22:38:40.727911,7.824529,-6.101697,0.602991,0.065973,0.024434,-0.053756
2026-03-26T22:38:40.736911,7.695317,-6.163911,0.660419,0.072082,0.034208,-0.052534
2026-03-26T22:38:40.746911,7.776673,-6.101697,0.641276,0.075747,0.040317,-0.081855
2026-03-26T22:38:40.755911,7.853243,-6.039484,0.693918,0.083077,0.003665,-0.106290
2026-03-26T22:38:40.765911,7.834101,-6.029912,0.741775,0.085521,-0.039095,-0.076969
2026-03-26T22:38:40.775911,7.891528,-5.996413,0.732203,0.085521,-0.081855,-0.030543
2026-03-26T22:38:40.784911,7.795816,-6.082555,0.579063,0.074525,-0.092851,0.002443
2026-03-26T22:38:40.794911,7.733602,-6.120840,0.660419,0.069638,-0.080634,-0.004886
2026-03-26T22:38:40.804911,7.800601,-6.039484,0.674775,0.054977,-0.078190,-0.008552
2026-03-26T22:38:40.813911,7.791030,-6.092126,0.631705,0.041538,-0.107512,0.025656
2026-03-26T22:38:40.823911,7.824529,-6.020341,0.698704,0.029321,-0.130725,0.062308
2026-03-26T22:38:40.832911,7.791030,-6.025127,0.646062,0.013439,-0.142942,0.094073
2026-03-26T22:38:40.842911,7.814958,-6.029912,0.674775,-0.007330,-0.144164,0.134390
2026-03-26T22:38:40.852911,7.762316,-6.096911,0.622133,-0.035430,-0.174707,0.172263
2026-03-26T22:38:40.861911,7.767102,-6.211767,0.646062,-0.062308,-0.212581,0.184481
2026-03-26T22:38:40.871911,7.628318,-5.996413,0.545563,-0.051312,-0.173485,0.174707
2026-03-26T22:38:40.880911,7.743173,-6.068198,0.607776,-0.017104,-0.133168,0.164933
2026-03-26T22:38:40.890911,7.805387,-6.125625,0.684347,0.009773,-0.124616,0.169820
2026-03-26T22:38:40.900911,7.738388,-6.168696,0.593420,0.018325,-0.111177,0.161268
2026-03-26T22:38:40.909911,7.719245,-6.120840,0.550349,0.017104,-0.095294,0.155159
2026-03-26T22:38:40.919911,7.637889,-6.216553,0.646062,0.012217,-0.094073,0.142942
2026-03-26T22:38:40.929911,7.700103,-6.235695,0.588634,0.009773,-0.101403,0.142942
2026-03-26T22:38:40.938911,7.700103,-6.202196,0.579063,0.009773,-0.114842,0.161268
2026-03-26T22:38:40.948911,7.680960,-6.216553,0.617348,0.020769,-0.113620,0.149051
2026-03-26T22:38:40.957911,7.690531,-6.168696,0.655633,0.035430,-0.112399,0.136833
2026-03-26T22:38:40.967911,7.676174,-6.139982,0.569491,0.029321,-0.085521,0.147829
2026-03-26T22:38:40.977911,7.738388,-6.202196,0.464207,0.007330,-0.061086,0.157603
2026-03-26T22:38:40.986911,7.695317,-6.202196,0.602991,-0.015882,-0.050090,0.162490
2026-03-26T22:38:40.996911,7.728816,-6.173482,0.497707,-0.028099,-0.026878,0.162490
2026-03-26T22:38:41.005911,7.700103,-6.345765,0.665204,-0.028099,-0.004886,0.138055
2026-03-26T22:38:41.015911,7.604390,-6.269195,0.607776,-0.023212,-0.002443,0.114842
2026-03-26T22:38:41.025911,7.556533,-6.321837,0.559920,-0.021991,0.000000,0.086742
2026-03-26T22:38:41.034911,7.575676,-6.317051,0.488135,-0.028099,0.004886,0.079412
2026-03-26T22:38:41.044911,7.503891,-6.422335,0.617348,-0.040317,0.008552,0.059864
2026-03-26T22:38:41.054911,7.575676,-6.226124,0.598205,-0.052534,0.003665,0.023212
2026-03-26T22:38:41.063911,7.494320,-6.317051,0.669990,-0.052534,-0.007330,0.020769
2026-03-26T22:38:41.073911,7.590033,-6.336194,0.693918,-0.051312,-0.013439,0.006108
2026-03-26T22:38:41.082911,7.513462,-6.360122,0.650847,-0.050090,-0.014660,0.008552
2026-03-26T22:38:41.092911,7.604390,-6.374479,0.583848,-0.036651,-0.020769,0.015882
2026-03-26T22:38:41.102911,7.523034,-6.312266,0.574277,-0.019547,-0.029321,0.006108
2026-03-26T22:38:41.111911,7.594818,-6.336194,0.574277,-0.006108,-0.036651,-0.002443
2026-03-26T22:38:41.121911,7.623532,-6.321837,0.679561,0.002443,-0.050090,-0.001221
2026-03-26T22:38:41.130911,7.580461,-6.345765,0.593420,0.009773,-0.056199,0.003665
2026-03-26T22:38:41.140911,7.623532,-6.331408,0.550349,0.012217,-0.061086,0.010995
2026-03-26T22:38:41.150911,7.590033,-6.278766,0.579063,0.012217,-0.061086,0.020769
2026-03-26T22:38:41.159911,7.532605,-6.431907,0.617348,0.009773,-0.062308,0.036651
2026-03-26T22:38:41.169911,7.575676,-6.379265,0.579063,0.006108,-0.058643,0.018325
2026-03-26T22:38:41.179911,7.570890,-6.350551,0.631705,0.007330,-0.051312,0.008552
2026-03-26T22:38:41.188911,7.609175,-6.288337,0.598205,0.007330,-0.046425,-0.001221
2026-03-26T22:38:41.198911,7.590033,-6.336194,0.607776,0.004886,-0.047647,-0.002443
2026-03-26T22:38:41.207911,7.594818,-6.321837,0.626919,-0.001221,-0.058643,0.008552
2026-03-26T22:38:41.217911,7.542176,-6.326622,0.574277,-0.003665,-0.057421,0.004886
2026-03-26T22:38:41.227911,7.561319,-6.369693,0.579063,-0.003665,-0.050090,-0.002443
2026-03-26T22:38:41.236911,7.561319,-6.336194,0.540777,0.002443,-0.048869,-0.004886
2026-03-26T22:38:41.246911,7.551748,-6.374479,0.612562,0.009773,-0.050090,-0.006108
2026-03-26T22:38:41.255911,7.599604,-6.297909,0.574277,0.013439,-0.051312,-0.001221
2026-03-26T22:38:41.265911,7.532605,-6.254838,0.559920,0.013439,-0.057421,0.006108
2026-03-26T22:38:41.275911,7.580461,-6.350551,0.540777,0.008552,-0.052534,0.002443
2026-03-26T22:38:41.284911,7.594818,-6.326622,0.607776,0.004886,-0.048869,-0.008552
2026-03-26T22:38:41.294911,7.590033,-6.350551,0.593420,0.002443,-0.052534,-0.008552
2026-03-26T22:38:41.304911,7.566105,-6.321837,0.559920,0.003665,-0.051312,-0.007330
2026-03-26T22:38:41.313911,7.551748,-6.336194,0.641276,0.006108,-0.057421,-0.009773
2026-03-26T22:38:41.323911,7.623532,-6.350551,0.559920,0.009773,-0.065973,-0.006108
2026-03-26T22:38:41.332911,7.546962,-6.345765,0.631705,0.012217,-0.065973,0.000000
2026-03-26T22:38:41.342911,7.546962,-6.317051,0.636490,0.017104,-0.068416,0.003665
2026-03-26T22:38:41.352911,7.537391,-6.398407,0.569491,0.015882,-0.065973,-0.003665
2026-03-26T22:38:41.361911,7.580461,-6.355336,0.545563,0.015882,-0.065973,-0.010995
2026-03-26T22:38:41.371911,7.556533,-6.388836,0.550349,0.019547,-0.063529,-0.014660
2026-03-26T22:38:41.380911,7.585247,-6.350551,0.588634,0.015882,-0.054977,-0.018325
2026-03-26T22:38:41.390911,7.585247,-6.350551,0.569491,0.013439,-0.054977,-0.020769
2026-03-26T22:38:41.400911,7.594818,-6.326622,0.579063,0.013439,-0.051312,-0.020769
2026-03-26T22:38:41.409911,7.580461,-6.321837,0.622133,0.012217,-0.048869,-0.017104
2026-03-26T22:38:41.419911,7.590033,-6.283552,0.598205,0.008552,-0.047647,-0.012217
2026-03-26T22:38:41.429911,7.585247,-6.340979,0.555134,0.007330,-0.050090,-0.004886
2026-03-26T22:38:41.438911,7.566105,-6.340979,0.588634,0.007330,-0.056199,-0.004886
2026-03-26T22:38:41.448911,7.575676,-6.331408,0.531206,0.007330,-0.061086,-0.004886
2026-03-26T22:38:41.457911,7.566105,-6.340979,0.588634,0.009773,-0.059864,0.003665
2026-03-26T22:38:41.467911,7.551748,-6.379265,0.602991,0.008552,-0.059864,0.013439
2026-03-26T22:38:41.477911,7.585247,-6.388836,0.579063,0.009773,-0.057421,0.013439
2026-03-26T22:38:41.486911,7.542176,-6.364908,0.574277,0.008552,-0.052534,0.003665
2026-03-26T22:38:41.496911,7.575676,-6.360122,0.588634,0.006108,-0.046425,-0.004886
2026-03-26T22:38:41.505911,7.518248,-6.364908,0.583848,0.004886,-0.045204,-0.012217
2026-03-26T22:38:41.515911,7.599604,-6.331408,0.607776,0.003665,-0.041538,-0.015882
2026-03-26T22:38:41.525911,7.566105,-6.340979,0.583848,0.000000,-0.042760,-0.018325
2026-03-26T22:38:41.534911,7.537391,-6.345765,0.602991,0.000000,-0.039095,-0.015882
2026-03-26T22:38:41.544911,7.604390,-6.350551,0.574277,-0.003665,-0.037873,-0.017104
2026-03-26T22:38:41.554911,7.546962,-6.317051,0.598205,-0.001221,-0.037873,-0.013439
2026-03-26T22:38:41.563911,7.613961,-6.321837,0.622133,-0.002443,-0.035430,-0.008552
2026-03-26T22:38:41.573911,7.594818,-6.321837,0.617348,-0.006108,-0.032986,-0.006108
2026-03-26T22:38:41.582911,7.556533,-6.388836,0.598205,-0.007330,-0.032986,-0.003665
2026-03-26T22:38:41.592911,7.575676,-6.407978,0.617348,-0.010995,-0.035430,-0.004886
2026-03-26T22:38:41.602911,7.523034,-6.317051,0.526420,-0.012217,-0.040317,-0.003665
2026-03-26T22:38:41.611911,7.594818,-6.321837,0.564706,-0.010995,-0.043982,-0.009773
2026-03-26T22:38:41.621911,7.518248,-6.355336,0.626919,-0.009773,-0.042760,-0.012217
2026-03-26T22:38:41.630911,7.556533,-6.340979,0.569491,-0.003665,-0.042760,-0.010995
2026-03-26T22:38:41.640911,7.609175,-6.331408,0.574277,0.002443,-0.046425,-0.006108
2026-03-26T22:38:41.650911,7.585247,-6.393621,0.579063,0.004886,-0.042760,-0.008552
2026-03-26T22:38:41.659911,7.599604,-6.350551,0.602991,0.010995,-0.039095,-0.012217
2026-03-26T22:38:41.669911,7.590033,-6.364908,0.521635,0.017104,-0.036651,-0.017104
2026-03-26T22:38:41.679911,7.561319,-6.297909,0.583848,0.021991,-0.041538,-0.009773
2026-03-26T22:38:41.688911,7.566105,-6.360122,0.588634,0.032986,-0.051312,0.003665
2026-03-26T22:38:41.698911,7.527819,-6.345765,0.588634,0.039095,-0.064751,0.013439
2026-03-26T22:38:41.707911,7.594818,-6.379265,0.593420,0.034208,-0.070860,0.008552
2026-03-26T22:38:41.717911,7.599604,-6.384050,0.646062,0.029321,-0.075747,0.012217
2026-03-26T22:38:41.727911,7.590033,-6.326622,0.631705,0.026878,-0.075747,0.006108
2026-03-26T22:38:41.736911,7.546962,-6.364908,0.588634,0.029321,-0.074525,0.002443
2026-03-26T22:38:41.746911,7.542176,-6.422335,0.579063,0.029321,-0.073303,0.001221
2026-03-26T22:38:41.755911,7.561319,-6.388836,0.593420,0.024434,-0.072082,-0.009773
2026-03-26T22:38:41.765911,7.747959,-6.130411,0.421136,0.029321,-0.073303,0.020769
2026-03-26T22:38:41.775911,7.580461,-6.364908,0.612562,0.017104,-0.080634,0.046425
2026-03-26T22:38:41.784911,7.527819,-6.331408,0.598205,0.013439,-0.079412,0.042760
2026-03-26T22:38:41.794911,7.551748,-6.336194,0.583848,0.009773,-0.078190,0.032986
2026-03-26T22:38:41.804911,7.499106,-6.355336,0.579063,0.006108,-0.080634,0.026878
2026-03-26T22:38:41.813911,7.556533,-6.336194,0.550349,0.004886,-0.080634,0.020769
2026-03-26T22:38:41.823911,7.585247,-6.345765,0.555134,0.007330,-0.079412,0.028099
2026-03-26T22:38:41.832911,7.527819,-6.388836,0.607776,0.008552,-0.078190,0.032986
2026-03-26T22:38:41.842911,7.532605,-6.340979,0.564706,0.008552,-0.078190,0.039095
2026-03-26T22:38:41.852911,7.594818,-6.331408,0.545563,0.013439,-0.078190,0.046425
2026-03-26T22:38:41.861911,7.503891,-6.388836,0.559920,0.019547,-0.076969,0.058643
2026-03-26T22:38:41.871911,7.527819,-6.431907,0.583848,0.026878,-0.076969,0.042760
2026-03-26T22:38:41.880911,7.503891,-6.403193,0.593420,0.034208,-0.070860,0.035430
2026-03-26T22:38:41.890911,7.551748,-6.431907,0.574277,0.036651,-0.069638,0.031764
2026-03-26T22:38:41.900911,7.556533,-6.407978,0.588634,0.037873,-0.078190,0.036651
2026-03-26T22:38:41.909911,7.499106,-6.379265,0.602991,0.028099,-0.078190,0.039095
2026-03-26T22:38:41.919911,7.561319,-6.393621,0.579063,0.018325,-0.076969,0.037873
2026-03-26T22:38:41.929911,7.537391,-6.388836,0.559920,0.012217,-0.084299,0.048869
2026-03-26T22:38:41.938911,7.503891,-6.398407,0.545563,0.010995,-0.085521,0.061086
2026-03-26T22:38:41.948911,7.527819,-6.508477,0.598205,0.014660,-0.075747,0.047647
2026-03-26T22:38:41.957911,7.513462,-6.474977,0.612562,0.012217,-0.067195,0.030543
2026-03-26T22:38:41.967911,7.537391,-6.446264,0.579063,0.012217,-0.062308,0.026878
2026-03-26T22:38:41.977911,7.503891,-6.417550,0.574277,0.013439,-0.061086,0.020769
2026-03-26T22:38:41.986911,7.499106,-6.417550,0.555134,0.013439,-0.057421,0.013439
2026-03-26T22:38:41.996911,7.470392,-6.407978,0.569491,0.013439,-0.050090,0.001221
2026-03-26T22:38:42.005911,7.479963,-6.436692,0.559920,0.013439,-0.050090,-0.007330
2026-03-26T22:38:42.015911,7.508677,-6.465406,0.631705,0.012217,-0.050090,-0.017104
2026-03-26T22:38:42.025911,7.556533,-6.398407,0.612562,0.010995,-0.052534,-0.015882
2026-03-26T22:38:42.034911,7.537391,-6.431907,0.569491,0.008552,-0.056199,-0.004886
2026-03-26T22:38:42.044911,7.551748,-6.374479,0.535992,0.001221,-0.056199,0.012217
2026-03-26T22:38:42.054911,7.489534,-6.412764,0.593420,-0.002443,-0.059864,0.029321
2026-03-26T22:38:42.063911,7.551748,-6.446264,0.545563,-0.002443,-0.058643,0.028099
2026-03-26T22:38:42.073911,7.465606,-6.441478,0.559920,0.001221,-0.051312,0.035430
2026-03-26T22:38:42.082911,7.503891,-6.489334,0.507278,0.006108,-0.050090,0.045204
2026-03-26T22:38:42.092911,7.451249,-6.508477,0.550349,0.010995,-0.048869,0.037873
2026-03-26T22:38:42.102911,7.479963,-6.451049,0.588634,0.010995,-0.053756,0.026878
2026-03-26T22:38:42.111911,7.484749,-6.431907,0.545563,0.013439,-0.053756,0.018325
2026-03-26T22:38:42.121911,7.494320,-6.431907,0.555134,0.013439,-0.062308,0.021991
2026-03-26T22:38:42.130911,7.551748,-6.441478,0.550349,0.013439,-0.067195,0.028099
2026-03-26T22:38:42.140911,7.499106,-6.436692,0.588634,0.007330,-0.073303,0.023212
2026-03-26T22:38:42.150911,7.475177,-6.460621,0.655633,0.010995,-0.073303,0.030543
2026-03-26T22:38:42.159911,7.403393,-6.474977,0.497707,0.018325,-0.076969,0.026878
2026-03-26T22:38:42.169911,7.470392,-6.479763,0.512064,0.018325,-0.075747,0.009773
2026-03-26T22:38:42.179911,7.489534,-6.460621,0.569491,0.021991,-0.069638,0.000000
2026-03-26T22:38:42.188911,7.465606,-6.451049,0.540777,0.019547,-0.064751,0.009773
2026-03-26T22:38:42.198911,7.475177,-6.503691,0.555134,0.015882,-0.059864,0.004886
2026-03-26T22:38:42.207911,7.456035,-6.465406,0.516849,0.013439,-0.059864,0.001221
2026-03-26T22:38:42.217911,7.513462,-6.441478,0.464207,0.015882,-0.061086,-0.002443
2026-03-26T22:38:42.227911,7.499106,-6.441478,0.540777,0.020769,-0.063529,0.003665
2026-03-26T22:38:42.236911,7.503891,-6.460621,0.555134,0.021991,-0.065973,-0.002443
2026-03-26T22:38:42.246911,7.484749,-6.465406,0.559920,0.026878,-0.063529,0.007330
2026-03-26T22:38:42.255911,7.508677,-6.508477,0.564706,0.031764,-0.067195,0.002443
2026-03-26T22:38:42.265911,7.465606,-6.431907,0.555134,0.041538,-0.080634,0.008552
2026-03-26T22:38:42.275911,7.436892,-6.556333,0.535992,0.035430,-0.091629,0.007330
2026-03-26T22:38:42.284911,7.465606,-6.455835,0.559920,0.026878,-0.080634,-0.008552
2026-03-26T22:38:42.294911,7.527819,-6.422335,0.559920,0.029321,-0.091629,-0.004886
2026-03-26T22:38:42.304911,7.508677,-6.484549,0.550349,0.039095,-0.107512,0.015882
2026-03-26T22:38:42.313911,7.374679,-6.575476,0.531206,0.041538,-0.108733,0.006108
2026-03-26T22:38:42.323911,7.446463,-6.518048,0.512064,0.040317,-0.152716,0.037873
2026-03-26T22:38:42.332911,7.518248,-6.436692,0.579063,0.029321,-0.186924,0.073303
2026-03-26T22:38:42.342911,7.221538,-6.896114,0.631705,0.003665,-0.230907,0.151494
2026-03-26T22:38:42.352911,7.503891,-6.412764,0.445065,0.015882,-0.227241,0.120951
2026-03-26T22:38:42.361911,7.312465,-6.838686,0.574277,0.028099,-0.230907,0.120951
2026-03-26T22:38:42.371911,7.403393,-6.527620,0.253639,-0.001221,-0.310319,0.205250
2026-03-26T22:38:42.380911,7.494320,-6.537191,0.598205,0.012217,-0.273667,0.157603
2026-03-26T22:38:42.390911,7.331608,-6.585047,0.574277,0.001221,-0.344527,0.260228
2026-03-26T22:38:42.400911,7.412964,-6.508477,0.421136,0.017104,-0.320093,0.221133
2026-03-26T22:38:42.409911,7.302894,-6.819544,0.344566,0.024434,-0.283441,0.182037
2026-03-26T22:38:42.419911,7.460820,-6.556333,0.334995,0.023212,-0.320093,0.234572
2026-03-26T22:38:42.429911,7.345965,-6.618547,0.354137,0.023212,-0.327423,0.234572
2026-03-26T22:38:42.438911,7.427321,-6.585047,0.411565,0.030543,-0.291993,0.179594
2026-03-26T22:38:42.448911,7.365107,-6.637689,0.320638,0.031764,-0.268780,0.153938
2026-03-26T22:38:42.457911,7.403393,-6.508477,0.330209,0.030543,-0.219911,0.098960
2026-03-26T22:38:42.467911,7.446463,-6.513263,0.401994,0.034208,-0.189368,0.067195
2026-03-26T22:38:42.477911,7.369893,-6.604190,0.387637,0.030543,-0.188146,0.116064
2026-03-26T22:38:42.486911,7.369893,-6.541976,0.253639,0.025656,-0.189368,0.160046
2026-03-26T22:38:42.496911,7.360322,-6.599404,0.224925,0.025656,-0.142942,0.087964
2026-03-26T22:38:42.505911,7.393821,-6.628118,0.287138,0.031764,-0.118507,0.056199
2026-03-26T22:38:42.515911,7.173682,-6.747759,0.325423,0.036651,-0.111177,0.042760
2026-03-26T22:38:42.525911,7.360322,-6.695117,0.301495,0.046425,-0.105068,0.036651
2026-03-26T22:38:42.534911,7.384250,-6.652046,0.186640,0.051312,-0.092851,0.037873
2026-03-26T22:38:42.544911,7.274180,-6.738188,0.296710,0.046425,-0.079412,0.046425
2026-03-26T22:38:42.554911,7.288537,-6.728617,0.325423,0.042760,-0.063529,0.028099
2026-03-26T22:38:42.563911,7.322037,-6.671189,0.325423,0.043982,-0.059864,0.025656
2026-03-26T22:38:42.573911,7.216752,-6.714260,0.296710,0.045204,-0.058643,0.014660
2026-03-26T22:38:42.582911,7.369893,-6.728617,0.301495,0.045204,-0.062308,-0.003665
2026-03-26T22:38:42.592911,7.250252,-6.719045,0.291924,0.040317,-0.062308,-0.006108
2026-03-26T22:38:42.602911,7.298108,-6.637689,0.301495,0.032986,-0.058643,-0.003665
2026-03-26T22:38:42.611911,7.255038,-6.738188,0.306281,0.023212,-0.053756,0.003665
2026-03-26T22:38:42.621911,7.183253,-6.699903,0.344566,0.019547,-0.052534,0.002443
2026-03-26T22:38:42.630911,7.307680,-6.714260,0.315852,0.015882,-0.054977,-0.015882
2026-03-26T22:38:42.640911,7.274180,-6.704688,0.306281,0.013439,-0.058643,-0.021991
2026-03-26T22:38:42.650911,7.298108,-6.685546,0.339780,0.012217,-0.061086,-0.021991
2026-03-26T22:38:42.659911,7.250252,-6.704688,0.296710,0.014660,-0.063529,-0.003665
2026-03-26T22:38:42.669911,7.317251,-6.604190,0.306281,0.008552,-0.063529,0.004886
2026-03-26T22:38:42.679911,7.317251,-6.637689,0.325423,0.007330,-0.070860,0.039095
2026-03-26T22:38:42.688911,7.312465,-6.685546,0.344566,0.007330,-0.076969,0.068416
2026-03-26T22:38:42.698911,7.202396,-6.714260,0.315852,0.008552,-0.084299,0.075747
2026-03-26T22:38:42.707911,7.216752,-6.680760,0.334995,0.006108,-0.083077,0.063529
2026-03-26T22:38:42.717911,7.283751,-6.719045,0.277567,0.007330,-0.067195,0.053756
2026-03-26T22:38:42.727911,7.259823,-6.747759,0.320638,0.009773,-0.064751,0.035430
2026-03-26T22:38:42.736911,7.307680,-6.661618,0.296710,0.006108,-0.056199,0.034208
2026-03-26T22:38:42.746911,7.283751,-6.728617,0.334995,0.001221,-0.052534,0.040317
2026-03-26T22:38:42.755911,7.250252,-6.790830,0.263210,-0.003665,-0.053756,0.040317
2026-03-26T22:38:42.765911,7.245466,-6.695117,0.339780,-0.009773,-0.058643,0.043982
2026-03-26T22:38:42.775911,7.226324,-6.728617,0.253639,-0.015882,-0.056199,0.042760
2026-03-26T22:38:42.784911,7.211967,-6.719045,0.358923,-0.015882,-0.058643,0.031764
2026-03-26T22:38:42.794911,7.226324,-6.776473,0.315852,-0.012217,-0.062308,0.025656
2026-03-26T22:38:42.804911,7.274180,-6.714260,0.263210,-0.015882,-0.057421,0.017104
2026-03-26T22:38:42.813911,7.259823,-6.742974,0.301495,-0.015882,-0.058643,0.034208
2026-03-26T22:38:42.823911,7.259823,-6.704688,0.301495,-0.010995,-0.061086,0.053756
2026-03-26T22:38:42.832911,7.221538,-6.757331,0.306281,-0.002443,-0.053756,0.057421
2026-03-26T22:38:42.842911,7.135396,-6.805187,0.263210,0.007330,-0.048869,0.051312
2026-03-26T22:38:42.852911,7.178467,-6.771687,0.296710,0.014660,-0.047647,0.041538
2026-03-26T22:38:42.861911,7.250252,-6.781259,0.354137,0.014660,-0.041538,0.036651
2026-03-26T22:38:42.871911,7.207181,-6.766902,0.301495,0.007330,-0.041538,0.047647
2026-03-26T22:38:42.880911,7.188039,-6.800401,0.373280,0.002443,-0.042760,0.042760
2026-03-26T22:38:42.890911,7.240681,-6.814758,0.349352,0.000000,-0.046425,0.034208
2026-03-26T22:38:42.900911,7.149753,-6.853043,0.349352,-0.002443,-0.052534,0.026878
2026-03-26T22:38:42.909911,7.231109,-6.742974,0.349352,-0.001221,-0.061086,0.025656
2026-03-26T22:38:42.919911,7.255038,-6.742974,0.306281,-0.006108,-0.074525,0.034208
2026-03-26T22:38:42.929911,7.178467,-6.795616,0.315852,-0.004886,-0.081855,0.048869
2026-03-26T22:38:42.938911,7.188039,-6.771687,0.301495,-0.004886,-0.085521,0.052534
2026-03-26T22:38:42.948911,7.092326,-6.757331,0.306281,-0.006108,-0.081855,0.061086
2026-03-26T22:38:42.957911,7.240681,-6.723831,0.272781,-0.010995,-0.079412,0.056199
2026-03-26T22:38:42.967911,7.345965,-6.699903,0.287138,-0.010995,-0.067195,0.083077
2026-03-26T22:38:42.977911,7.197610,-6.833901,0.253639,-0.012217,-0.062308,0.106290
2026-03-26T22:38:42.986911,7.149753,-6.876972,0.272781,-0.012217,-0.045204,0.108733
2026-03-26T22:38:42.996911,7.125825,-6.824330,0.325423,-0.014660,-0.030543,0.106290
2026-03-26T22:38:43.005911,7.116254,-6.809973,0.382851,-0.021991,-0.024434,0.106290
2026-03-26T22:38:43.015911,7.101897,-6.857829,0.306281,-0.031764,-0.021991,0.090408
2026-03-26T22:38:43.025911,7.144968,-6.843472,0.267996,-0.041538,-0.026878,0.076969
2026-03-26T22:38:43.034911,7.097111,-6.829115,0.334995,-0.045204,-0.035430,0.065973
2026-03-26T22:38:43.044911,7.149753,-6.872186,0.311066,-0.050090,-0.043982,0.045204
2026-03-26T22:38:43.054911,7.154539,-6.872186,0.263210,-0.050090,-0.048869,0.034208
2026-03-26T22:38:43.063911,7.034898,-6.905686,0.325423,-0.046425,-0.062308,0.026878
2026-03-26T22:38:43.073911,7.183253,-6.838686,0.263210,-0.045204,-0.074525,0.012217
2026-03-26T22:38:43.082911,7.154539,-6.838686,0.311066,-0.040317,-0.087964,0.017104
2026-03-26T22:38:43.092911,7.106683,-6.876972,0.224925,-0.037873,-0.094073,0.015882
2026-03-26T22:38:43.102911,7.068397,-6.819544,0.210568,-0.046425,-0.091629,0.003665
2026-03-26T22:38:43.111911,7.125825,-6.867400,0.306281,-0.046425,-0.085521,0.001221
2026-03-26T22:38:43.121911,7.269395,-6.867400,0.239282,-0.054977,-0.076969,0.018325
2026-03-26T22:38:43.130911,7.144968,-6.771687,0.186640,-0.073303,-0.069638,0.052534
2026-03-26T22:38:43.140911,7.226324,-6.790830,0.239282,-0.078190,-0.074525,0.100181
2026-03-26T22:38:43.150911,7.245466,-6.776473,0.368494,-0.100181,-0.092851,0.168598
2026-03-26T22:38:43.159911,7.355536,-6.709474,0.684347,-0.175929,-0.102625,0.261450
2026-03-26T22:38:43.169911,7.030112,-6.943971,0.334995,-0.324980,-0.097738,0.317649
2026-03-26T22:38:43.179911,6.805187,-7.054041,0.124426,-0.412944,-0.081855,0.312762
2026-03-26T22:38:43.188911,6.843472,-7.135396,0.095712,-0.448374,-0.052534,0.222354
2026-03-26T22:38:43.198911,6.896114,-7.101897,0.133998,-0.478918,-0.018325,0.113620
2026-03-26T22:38:43.207911,7.001398,-7.044469,-0.023928,-0.477696,0.003665,0.054977
2026-03-26T22:38:43.217911,7.006184,-6.948756,-0.023928,-0.444709,0.015882,0.040317
2026-03-26T22:38:43.227911,6.977470,-6.963113,-0.071784,-0.401949,0.020769,0.029321
2026-03-26T22:38:43.236911,7.111468,-6.934399,-0.004785,-0.356745,0.019547,0.024434
2026-03-26T22:38:43.246911,7.087540,-6.910471,-0.014356,-0.343306,0.014660,0.051312
2026-03-26T22:38:43.255911,7.082754,-6.848258,0.019142,-0.367740,0.019547,0.080634
2026-03-26T22:38:43.265911,7.317251,-6.422335,-0.076570,-0.422718,0.057421,0.047647
2026-03-26T22:38:43.275911,6.972685,-6.934399,0.004785,-0.447153,0.127059,-0.036651
2026-03-26T22:38:43.284911,6.786044,-7.326822,0.004785,-0.448374,0.129503,-0.003665
2026-03-26T22:38:43.294911,7.025327,-6.900900,-0.052642,-0.469144,0.072082,0.073303
2026-03-26T22:38:43.304911,7.063612,-7.006184,-0.406779,-0.478918,0.164933,-0.090408
2026-03-26T22:38:43.313911,7.073183,-6.853043,-0.100498,-0.483805,0.144164,-0.041538
2026-03-26T22:38:43.323911,6.982256,-7.054041,-0.014356,-0.465479,0.123394,-0.008552
2026-03-26T22:38:43.332911,6.872186,-7.173682,-0.382851,-0.487470,0.084299,0.059864
2026-03-26T22:38:43.342911,7.082754,-6.786044,-0.320638,-0.427605,0.070860,0.032986
2026-03-26T22:38:43.352911,7.010970,-7.144968,-0.430708,-0.353080,0.219911,-0.135612
2026-03-26T22:38:43.361911,7.063612,-7.020541,-0.224925,-0.349414,0.227241,-0.107512
2026-03-26T22:38:43.371911,6.996613,-6.977470,-0.157926,-0.306654,0.153938,-0.024434
2026-03-26T22:38:43.380911,6.814758,-7.173682,-0.224925,-0.272445,0.113620,-0.014660
2026-03-26T22:38:43.390911,6.958328,-6.953542,-0.382851,-0.263893,0.070860,0.024434
2026-03-26T22:38:43.400911,7.077969,-6.896114,-0.186640,-0.260228,0.059864,0.028099
2026-03-26T22:38:43.409911,7.231109,-6.661618,-0.090927,-0.274889,0.102625,-0.007330
2026-03-26T22:38:43.419911,7.111468,-6.900900,-0.090927,-0.273667,0.156381,-0.010995
2026-03-26T22:38:43.429911,6.886543,-7.049255,-0.397208,-0.256563,0.149051,0.007330
2026-03-26T22:38:43.438911,6.991827,-6.967899,-0.248853,-0.238237,0.117286,0.034208
2026-03-26T22:38:43.448911,6.972685,-7.020541,-0.358923,-0.233350,0.092851,0.031764
2026-03-26T22:38:43.457911,7.015755,-7.010970,-0.368494,-0.224798,0.084299,0.025656
2026-03-26T22:38:43.467911,7.063612,-7.006184,-0.378065,-0.204028,0.087964,-0.003665
2026-03-26T22:38:43.477911,7.049255,-7.054041,-0.459421,-0.171042,0.097738,-0.023212
2026-03-26T22:38:43.486911,7.092326,-7.015755,-0.430708,-0.136833,0.092851,-0.017104
2026-03-26T22:38:43.496911,7.144968,-6.814758,-0.172283,-0.117286,0.095294,-0.004886
2026-03-26T22:38:43.505911,7.154539,-6.819544,-0.277567,-0.146607,0.086742,0.013439
2026-03-26T22:38:43.515911,6.891329,-6.977470,-0.258424,-0.150272,0.084299,0.012217
2026-03-26T22:38:43.525911,7.039684,-7.025327,-0.052642,-0.167377,0.067195,0.007330
2026-03-26T22:38:43.534911,7.034898,-6.953542,-0.138783,-0.223576,0.040317,0.041538
2026-03-26T22:38:43.544911,7.034898,-6.934399,-0.177068,-0.261450,0.036651,0.053756
2026-03-26T22:38:43.554911,7.188039,-6.747759,-0.224925,-0.289550,0.046425,0.067195
2026-03-26T22:38:43.563911,6.963113,-7.025327,-0.387637,-0.277332,0.067195,0.068416
2026-03-26T22:38:43.573911,6.881757,-7.068397,-0.397208,-0.255341,0.069638,0.056199
2026-03-26T22:38:43.582911,6.929614,-7.039684,-0.387637,-0.233350,0.034208,0.047647
2026-03-26T22:38:43.592911,6.953542,-6.915257,-0.330209,-0.224798,0.012217,0.046425
