Timestamp,Acceleration_X,Acceleration_Y,Acceleration_Z,Gyro_X,Gyro_Y,Gyro_Z
2026-01-04T14:05:32.731793,9.533005,-1.258624,1.339980,-0.096516,0.048869,0.072082
2026-01-04T14:05:32.741793,9.341579,-1.406979,1.344766,-0.108733,0.020769,0.075747
2026-01-04T14:05:32.750793,9.226723,-1.421336,1.430907,-0.085521,-0.029321,0.074525
2026-01-04T14:05:32.760793,9.327222,-1.531406,1.550549,-0.050090,-0.074525,0.067195
2026-01-04T14:05:32.769793,9.509077,-1.440479,1.579262,-0.009773,-0.102625,0.061086
2026-01-04T14:05:32.779793,9.628718,-1.263410,1.497906,0.012217,-0.118507,0.054977
2026-01-04T14:05:32.789793,9.801001,-1.196411,1.507478,-0.002443,-0.111177,0.054977
2026-01-04T14:05:32.798793,9.939785,-1.234696,1.473978,-0.034208,-0.078190,0.057421
2026-01-04T14:05:32.808793,9.863214,-1.287338,1.454836,-0.061086,-0.030543,0.064751
2026-01-04T14:05:32.818793,9.714859,-1.392622,1.397408,-0.080634,0.007330,0.074525
2026-01-04T14:05:32.827793,9.513862,-1.339980,1.430907,-0.083077,-0.002443,0.075747
2026-01-04T14:05:32.837793,9.619146,-1.330409,1.383051,-0.087964,-0.045204,0.070860
2026-01-04T14:05:32.846793,9.767501,-1.402194,1.483550,-0.086742,-0.086742,0.061086
2026-01-04T14:05:32.856793,10.011569,-1.430907,1.502692,-0.089186,-0.098960,0.059864
2026-01-04T14:05:32.866793,9.982855,-1.440479,1.531406,-0.096516,-0.073303,0.065973
2026-01-04T14:05:32.875793,9.978070,-1.517049,1.550549,-0.105068,-0.026878,0.074525
2026-01-04T14:05:32.885793,9.839286,-1.545763,1.540977,-0.100181,0.010995,0.084299
2026-01-04T14:05:32.894793,9.609575,-1.622333,1.450050,-0.086742,0.026878,0.092851
2026-01-04T14:05:32.904793,9.375078,-1.603191,1.450050,-0.056199,0.008552,0.094073
2026-01-04T14:05:32.914793,9.365507,-1.569691,1.406979,-0.021991,-0.028099,0.086742
2026-01-04T14:05:32.923793,9.418149,-1.502692,1.440479,0.003665,-0.058643,0.078190
2026-01-04T14:05:32.933793,9.590432,-1.469193,1.416550,0.019547,-0.081855,0.068416
2026-01-04T14:05:32.943793,9.671788,-1.363908,1.416550,0.025656,-0.091629,0.061086
2026-01-04T14:05:32.952793,9.824929,-1.325623,1.517049,0.015882,-0.081855,0.052534
2026-01-04T14:05:32.962793,9.930213,-1.339980,1.450050,-0.006108,-0.062308,0.053756
2026-01-04T14:05:32.971793,9.906285,-1.349551,1.373480,-0.039095,-0.041538,0.057421
2026-01-04T14:05:32.981793,9.815358,-1.445264,1.378265,-0.067195,-0.030543,0.062308
2026-01-04T14:05:32.991793,9.839286,-1.440479,1.383051,-0.092851,-0.023212,0.067195
2026-01-04T14:05:33.000793,9.762716,-1.497906,1.354337,-0.113620,-0.024434,0.072082
2026-01-04T14:05:33.010793,9.686145,-1.607976,1.359123,-0.118507,-0.032986,0.078190
2026-01-04T14:05:33.019793,9.724431,-1.722832,1.363908,-0.109955,-0.043982,0.080634
2026-01-04T14:05:33.029793,9.729216,-1.756331,1.325623,-0.094073,-0.050090,0.086742
2026-01-04T14:05:33.039793,9.743573,-1.794616,1.363908,-0.052534,-0.064751,0.083077
2026-01-04T14:05:33.048793,9.887142,-1.765903,1.397408,-0.009773,-0.073303,0.080634
2026-01-04T14:05:33.058793,9.949356,-1.737189,1.411765,0.024434,-0.070860,0.080634
2026-01-04T14:05:33.068793,9.939785,-1.622333,1.392622,0.056199,-0.052534,0.084299
2026-01-04T14:05:33.077793,9.877571,-1.560120,1.440479,0.070860,-0.023212,0.087964
2026-01-04T14:05:33.087793,9.815358,-1.426122,1.392622,0.064751,0.003665,0.096516
2026-01-04T14:05:33.096793,9.690931,-1.301695,1.330409,0.037873,0.010995,0.101403
2026-01-04T14:05:33.106793,9.590432,-1.229910,1.359123,-0.012217,-0.007330,0.107512
2026-01-04T14:05:33.116793,9.657432,-1.239482,1.383051,-0.075747,-0.025656,0.117286
2026-01-04T14:05:33.125793,9.667003,-1.378265,1.383051,-0.133168,-0.037873,0.120951
2026-01-04T14:05:33.135793,9.681360,-1.536192,1.359123,-0.157603,-0.043982,0.118507
2026-01-04T14:05:33.144793,9.714859,-1.679761,1.440479,-0.153938,-0.040317,0.113620
2026-01-04T14:05:33.154793,9.824929,-1.713260,1.373480,-0.124616,-0.045204,0.102625
2026-01-04T14:05:33.164793,9.839286,-1.761117,1.397408,-0.075747,-0.045204,0.090408
2026-01-04T14:05:33.173793,9.906285,-1.756331,1.402194,-0.028099,-0.037873,0.081855
2026-01-04T14:05:33.183793,9.877571,-1.603191,1.354337,0.008552,-0.023212,0.079412
2026-01-04T14:05:33.193793,9.839286,-1.550549,1.397408,0.031764,-0.004886,0.074525
2026-01-04T14:05:33.202793,9.714859,-1.392622,1.440479,0.025656,0.003665,0.073303
2026-01-04T14:05:33.212793,9.571290,-1.392622,1.349551,-0.004886,-0.002443,0.075747
2026-01-04T14:05:33.221793,9.537790,-1.421336,1.387837,-0.030543,-0.020769,0.076969
2026-01-04T14:05:33.231793,9.576076,-1.526620,1.450050,-0.042760,-0.040317,0.073303
2026-01-04T14:05:33.241793,9.714859,-1.555334,1.569691,-0.039095,-0.043982,0.069638
2026-01-04T14:05:33.250793,9.667003,-1.617548,1.497906,-0.023212,-0.045204,0.065973
2026-01-04T14:05:33.260793,9.681360,-1.521835,1.445264,-0.007330,-0.056199,0.057421
2026-01-04T14:05:33.269793,9.805787,-1.564905,1.363908,0.003665,-0.072082,0.040317
2026-01-04T14:05:33.279793,9.930213,-1.454836,1.320838,0.009773,-0.072082,0.035430
2026-01-04T14:05:33.289793,10.040283,-1.445264,1.450050,0.015882,-0.047647,0.025656
2026-01-04T14:05:33.298793,9.906285,-1.497906,1.440479,0.013439,-0.003665,0.021991
2026-01-04T14:05:33.308793,9.729216,-1.497906,1.483550,0.015882,0.023212,0.021991
2026-01-04T14:05:33.318793,9.614361,-1.469193,1.459621,0.010995,0.015882,0.019547
2026-01-04T14:05:33.327793,9.556933,-1.512263,1.507478,-0.003665,-0.010995,0.017104
2026-01-04T14:05:33.337793,9.561719,-1.483550,1.464407,-0.014660,-0.036651,0.019547
2026-01-04T14:05:33.346793,9.638289,-1.493121,1.627119,-0.017104,-0.053756,0.021991
2026-01-04T14:05:33.356793,9.748359,-1.584048,1.536192,-0.018325,-0.052534,0.024434
2026-01-04T14:05:33.366793,9.767501,-1.617548,1.526620,-0.010995,-0.036651,0.025656
2026-01-04T14:05:33.375793,9.820143,-1.584048,1.517049,0.002443,-0.013439,0.030543
2026-01-04T14:05:33.385793,9.710074,-1.512263,1.464407,0.008552,0.007330,0.032986
2026-01-04T14:05:33.394793,9.609575,-1.497906,1.426122,0.012217,0.015882,0.031764
2026-01-04T14:05:33.404793,9.576076,-1.440479,1.493121,0.007330,0.007330,0.028099
2026-01-04T14:05:33.414793,9.556933,-1.397408,1.406979,-0.010995,-0.014660,0.021991
2026-01-04T14:05:33.423793,9.686145,-1.435693,1.426122,-0.029321,-0.031764,0.018325
2026-01-04T14:05:33.433793,9.748359,-1.483550,1.416550,-0.045204,-0.034208,0.013439
2026-01-04T14:05:33.443793,9.762716,-1.502692,1.387837,-0.056199,-0.018325,0.012217
2026-01-04T14:05:33.452793,9.781858,-1.598405,1.263410,-0.058643,0.003665,0.010995
2026-01-04T14:05:33.462793,9.734002,-1.603191,1.363908,-0.050090,0.015882,0.008552
2026-01-04T14:05:33.471793,9.676574,-1.607976,1.301695,-0.037873,0.021991,0.002443
2026-01-04T14:05:33.481793,9.600004,-1.607976,1.344766,-0.023212,0.018325,-0.003665
2026-01-04T14:05:33.491793,9.556933,-1.612762,1.330409,-0.013439,0.007330,-0.007330
2026-01-04T14:05:33.500793,9.600004,-1.641476,1.249053,0.001221,-0.010995,-0.010995
2026-01-04T14:05:33.510793,9.614361,-1.741974,1.282552,0.025656,-0.031764,-0.009773
2026-01-04T14:05:33.519793,9.652646,-1.598405,1.272981,0.051312,-0.040317,-0.008552
2026-01-04T14:05:33.529793,9.738787,-1.459621,1.296909,0.065973,-0.036651,-0.010995
2026-01-04T14:05:33.539793,9.700502,-1.392622,1.220339,0.058643,-0.020769,-0.001221
2026-01-04T14:05:33.548793,9.690931,-1.387837,1.258624,0.039095,-0.014660,0.006108
2026-01-04T14:05:33.558793,9.710074,-1.306481,1.225125,0.017104,-0.023212,0.003665
2026-01-04T14:05:33.568793,9.652646,-1.397408,1.301695,0.000000,-0.031764,0.000000
2026-01-04T14:05:33.577793,9.824929,-1.406979,1.258624,-0.009773,-0.039095,-0.001221
2026-01-04T14:05:33.587793,9.839286,-1.411765,1.292124,-0.015882,-0.039095,-0.001221
2026-01-04T14:05:33.596793,9.906285,-1.517049,1.277767,-0.032986,-0.030543,-0.002443
2026-01-04T14:05:33.606793,9.882357,-1.502692,1.287338,-0.052534,-0.007330,0.004886
2026-01-04T14:05:33.616793,9.829715,-1.521835,1.220339,-0.062308,0.012217,0.012217
2026-01-04T14:05:33.625793,9.681360,-1.555334,1.268195,-0.068416,0.013439,0.017104
2026-01-04T14:05:33.635793,9.619146,-1.607976,1.249053,-0.068416,0.002443,0.020769
2026-01-04T14:05:33.644793,9.600004,-1.555334,1.167697,-0.054977,-0.015882,0.019547
2026-01-04T14:05:33.654793,9.623932,-1.631905,1.225125,-0.031764,-0.039095,0.012217
2026-01-04T14:05:33.664793,9.710074,-1.622333,1.349551,-0.017104,-0.061086,0.009773
2026-01-04T14:05:33.673793,9.858429,-1.631905,1.325623,-0.004886,-0.065973,0.009773
2026-01-04T14:05:33.683793,9.882357,-1.569691,1.268195,0.006108,-0.052534,0.010995
2026-01-04T14:05:33.693793,9.844072,-1.507478,1.306481,0.003665,-0.031764,0.015882
2026-01-04T14:05:33.702793,9.767501,-1.406979,1.239482,-0.012217,-0.015882,0.018325
2026-01-04T14:05:33.712793,9.734002,-1.397408,1.359123,-0.039095,-0.009773,0.024434
2026-01-04T14:05:33.721793,9.647860,-1.335195,1.368694,-0.067195,-0.003665,0.031764
2026-01-04T14:05:33.731793,9.528219,-1.397408,1.406979,-0.087964,0.004886,0.039095
2026-01-04T14:05:33.741793,9.480363,-1.387837,1.330409,-0.105068,-0.003665,0.041538
2026-01-04T14:05:33.750793,9.494720,-1.483550,1.316052,-0.120951,-0.035430,0.037873
2026-01-04T14:05:33.760793,9.667003,-1.588834,1.277767,-0.122173,-0.078190,0.028099
2026-01-04T14:05:33.769793,9.844072,-1.651047,1.263410,-0.102625,-0.098960,0.015882
2026-01-04T14:05:33.779793,10.064211,-1.713260,1.330409,-0.062308,-0.073303,0.003665
2026-01-04T14:05:33.789793,10.011569,-1.674975,1.325623,-0.019547,-0.025656,0.001221
2026-01-04T14:05:33.798793,9.911071,-1.564905,1.263410,0.008552,0.009773,0.002443
2026-01-04T14:05:33.808793,9.705288,-1.483550,1.354337,0.020769,0.007330,0.001221
2026-01-04T14:05:33.818793,9.614361,-1.426122,1.335195,0.012217,-0.015882,0.000000
2026-01-04T14:05:33.827793,9.604789,-1.339980,1.354337,-0.010995,-0.045204,0.001221
2026-01-04T14:05:33.837793,9.714859,-1.464407,1.459621,-0.034208,-0.065973,0.004886
2026-01-04T14:05:33.846793,9.700502,-1.526620,1.473978,-0.040317,-0.068416,0.008552
2026-01-04T14:05:33.856793,9.762716,-1.584048,1.478764,-0.026878,-0.050090,0.012217
2026-01-04T14:05:33.866793,9.662217,-1.598405,1.497906,0.003665,-0.028099,0.008552
2026-01-04T14:05:33.875793,9.604789,-1.526620,1.445264,0.035430,-0.018325,0.004886
2026-01-04T14:05:33.885793,9.533005,-1.397408,1.502692,0.058643,-0.024434,0.000000
2026-01-04T14:05:33.894793,9.528219,-1.383051,1.488335,0.068416,-0.039095,-0.007330
2026-01-04T14:05:33.904793,9.643075,-1.258624,1.507478,0.059864,-0.057421,-0.014660
2026-01-04T14:05:33.914793,9.796215,-1.110269,1.426122,0.030543,-0.061086,-0.017104
2026-01-04T14:05:33.923793,9.920642,-1.110269,1.454836,-0.018325,-0.047647,-0.017104
2026-01-04T14:05:33.933793,9.906285,-1.205982,1.344766,-0.076969,-0.023212,-0.013439
2026-01-04T14:05:33.943793,9.882357,-1.325623,1.349551,-0.113620,-0.001221,-0.013439
2026-01-04T14:05:33.952793,9.791430,-1.521835,1.311266,-0.120951,0.012217,-0.014660
2026-01-04T14:05:33.962793,9.729216,-1.593619,1.344766,-0.102625,0.003665,-0.026878
2026-01-04T14:05:33.971793,9.724431,-1.665404,1.339980,-0.067195,-0.015882,-0.035430
2026-01-04T14:05:33.981793,9.738787,-1.646261,1.378265,-0.020769,-0.034208,-0.041538
2026-01-04T14:05:33.991793,9.844072,-1.670190,1.349551,0.026878,-0.040317,-0.047647
2026-01-04T14:05:34.000793,9.844072,-1.588834,1.292124,0.063529,-0.023212,-0.050090
2026-01-04T14:05:34.010793,9.777073,-1.478764,1.306481,0.085521,-0.007330,-0.047647
2026-01-04T14:05:34.019793,9.662217,-1.344766,1.306481,0.080634,0.001221,-0.039095
2026-01-04T14:05:34.029793,9.609575,-1.287338,1.363908,0.053756,0.003665,-0.034208
2026-01-04T14:05:34.039793,9.556933,-1.301695,1.363908,0.021991,-0.008552,-0.031764
2026-01-04T14:05:34.048793,9.623932,-1.296909,1.416550,-0.006108,-0.026878,-0.035430
2026-01-04T14:05:34.058793,9.762716,-1.301695,1.430907,-0.028099,-0.043982,-0.032986
2026-01-04T14:05:34.068793,9.820143,-1.392622,1.416550,-0.047647,-0.048869,-0.032986
2026-01-04T14:05:34.077793,9.882357,-1.469193,1.411765,-0.053756,-0.032986,-0.029321
2026-01-04T14:05:34.087793,9.848857,-1.478764,1.416550,-0.047647,-0.003665,-0.021991
2026-01-04T14:05:34.096793,9.772287,-1.521835,1.426122,-0.039095,0.019547,-0.017104
2026-01-04T14:05:34.106793,9.623932,-1.512263,1.378265,-0.029321,0.025656,-0.015882
2026-01-04T14:05:34.116793,9.585647,-1.531406,1.392622,-0.013439,0.014660,-0.017104
2026-01-04T14:05:34.125793,9.499505,-1.450050,1.397408,0.003665,-0.012217,-0.020769
2026-01-04T14:05:34.135793,9.671788,-1.363908,1.392622,0.001221,-0.041538,-0.019547
2026-01-04T14:05:34.144793,9.791430,-1.416550,1.378265,-0.006108,-0.058643,-0.021991
2026-01-04T14:05:34.154793,9.930213,-1.387837,1.387837,-0.013439,-0.050090,-0.015882
2026-01-04T14:05:34.164793,9.982855,-1.402194,1.359123,-0.030543,-0.021991,-0.004886
2026-01-04T14:05:34.173793,9.906285,-1.387837,1.325623,-0.050090,0.013439,0.008552
2026-01-04T14:05:34.183793,9.767501,-1.445264,1.320838,-0.053756,0.035430,0.012217
2026-01-04T14:05:34.193793,9.638289,-1.440479,1.282552,-0.051312,0.029321,0.004886
2026-01-04T14:05:34.202793,9.580861,-1.445264,1.387837,-0.042760,0.008552,0.000000
2026-01-04T14:05:34.212793,9.566504,-1.560120,1.473978,-0.025656,-0.009773,-0.002443
2026-01-04T14:05:34.221793,9.585647,-1.540977,1.445264,-0.015882,-0.025656,-0.007330
2026-01-04T14:05:34.231793,9.676574,-1.536192,1.426122,-0.002443,-0.032986,-0.004886
2026-01-04T14:05:34.241793,9.743573,-1.483550,1.359123,0.013439,-0.042760,-0.003665
2026-01-04T14:05:34.250793,9.853643,-1.426122,1.344766,0.017104,-0.046425,-0.002443
2026-01-04T14:05:34.260793,9.863214,-1.450050,1.363908,0.015882,-0.036651,0.004886
2026-01-04T14:05:34.269793,9.877571,-1.421336,1.339980,0.019547,-0.012217,0.007330
2026-01-04T14:05:34.279793,9.786644,-1.368694,1.368694,0.020769,0.010995,0.006108
2026-01-04T14:05:34.289793,9.643075,-1.378265,1.339980,0.017104,0.013439,0.004886
2026-01-04T14:05:34.298793,9.719645,-1.292124,1.363908,0.010995,-0.001221,0.003665
2026-01-04T14:05:34.308793,9.710074,-1.234696,1.406979,-0.014660,-0.018325,0.003665
2026-01-04T14:05:34.318793,9.767501,-1.249053,1.493121,-0.047647,-0.026878,0.006108
2026-01-04T14:05:34.327793,9.772287,-1.344766,1.469193,-0.070860,-0.020769,0.014660
2026-01-04T14:05:34.337793,9.757930,-1.517049,1.435693,-0.075747,-0.007330,0.019547
2026-01-04T14:05:34.346793,9.633503,-1.631905,1.402194,-0.052534,0.001221,0.023212
2026-01-04T14:05:34.356793,9.619146,-1.598405,1.445264,-0.004886,0.002443,0.020769
2026-01-04T14:05:34.366793,9.537790,-1.588834,1.459621,0.051312,-0.014660,0.015882
2026-01-04T14:05:34.375793,9.576076,-1.440479,1.440479,0.091629,-0.040317,0.004886
2026-01-04T14:05:34.385793,9.695717,-1.244267,1.469193,0.103847,-0.061086,-0.003665
2026-01-04T14:05:34.394793,9.786644,-1.153340,1.469193,0.081855,-0.058643,-0.006108
2026-01-04T14:05:34.404793,9.896714,-1.081555,1.435693,0.037873,-0.043982,-0.002443
2026-01-04T14:05:34.414793,9.815358,-1.105484,1.478764,-0.017104,-0.015882,0.004886
2026-01-04T14:05:34.423793,9.748359,-1.191625,1.363908,-0.063529,0.009773,0.014660
2026-01-04T14:05:34.433793,9.681360,-1.383051,1.354337,-0.085521,0.013439,0.017104
2026-01-04T14:05:34.443793,9.638289,-1.435693,1.373480,-0.079412,-0.012217,0.010995
2026-01-04T14:05:34.452793,9.652646,-1.550549,1.416550,-0.048869,-0.039095,0.004886
2026-01-04T14:05:34.462793,9.786644,-1.588834,1.459621,-0.001221,-0.052534,0.000000
2026-01-04T14:05:34.471793,9.868000,-1.478764,1.349551,0.039095,-0.047647,-0.002443
2026-01-04T14:05:34.481793,9.882357,-1.368694,1.440479,0.059864,-0.030543,-0.002443
2026-01-04T14:05:34.491793,9.848857,-1.220339,1.421336,0.064751,-0.006108,0.003665
2026-01-04T14:05:34.500793,9.652646,-1.258624,1.454836,0.059864,0.012217,0.004886
2026-01-04T14:05:34.510793,9.619146,-1.249053,1.373480,0.046425,0.008552,0.006108
2026-01-04T14:05:34.519793,9.576076,-1.249053,1.416550,0.025656,-0.008552,0.008552
2026-01-04T14:05:34.529793,9.604789,-1.282552,1.426122,0.006108,-0.031764,0.009773
2026-01-04T14:05:34.539793,9.686145,-1.344766,1.411765,0.001221,-0.052534,0.009773
2026-01-04T14:05:34.548793,9.868000,-1.368694,1.469193,0.001221,-0.063529,0.007330
2026-01-04T14:05:34.558793,9.944570,-1.354337,1.430907,-0.004886,-0.048869,0.013439
2026-01-04T14:05:34.568793,9.949356,-1.387837,1.402194,-0.006108,-0.014660,0.013439
2026-01-04T14:05:34.577793,9.872786,-1.344766,1.373480,-0.001221,0.018325,0.017104
2026-01-04T14:05:34.587793,9.729216,-1.268195,1.316052,0.001221,0.028099,0.013439
2026-01-04T14:05:34.596793,9.628718,-1.339980,1.320838,-0.002443,0.018325,0.012217
2026-01-04T14:05:34.606793,9.600004,-1.296909,1.325623,-0.006108,-0.001221,0.007330
2026-01-04T14:05:34.616793,9.609575,-1.292124,1.406979,-0.009773,-0.023212,0.004886
2026-01-04T14:05:34.625793,9.681360,-1.296909,1.435693,-0.014660,-0.040317,0.003665
2026-01-04T14:05:34.635793,9.796215,-1.378265,1.473978,-0.009773,-0.042760,0.003665
2026-01-04T14:05:34.644793,9.872786,-1.373480,1.411765,0.000000,-0.025656,0.004886
2026-01-04T14:05:34.654793,9.858429,-1.339980,1.378265,0.013439,-0.004886,0.006108
2026-01-04T14:05:34.664793,9.762716,-1.301695,1.397408,0.018325,0.008552,0.009773
2026-01-04T14:05:34.673793,9.738787,-1.234696,1.335195,0.010995,0.012217,0.007330
2026-01-04T14:05:34.683793,9.710074,-1.225125,1.339980,-0.002443,0.001221,0.002443
2026-01-04T14:05:34.693793,9.738787,-1.205982,1.344766,-0.008552,-0.012217,0.004886
2026-01-04T14:05:34.702793,9.690931,-1.287338,1.411765,-0.021991,-0.012217,0.007330
2026-01-04T14:05:34.712793,9.724431,-1.239482,1.411765,-0.034208,-0.003665,0.008552
2026-01-04T14:05:34.721793,9.724431,-1.210768,1.316052,-0.037873,-0.001221,0.006108
2026-01-04T14:05:34.731793,9.686145,-1.234696,1.301695,-0.041538,-0.018325,-0.001221
2026-01-04T14:05:34.741793,9.815358,-1.306481,1.301695,-0.043982,-0.035430,-0.007330
2026-01-04T14:05:34.750793,9.930213,-1.368694,1.325623,-0.032986,-0.036651,-0.010995
2026-01-04T14:05:34.760793,9.944570,-1.402194,1.430907,-0.010995,-0.017104,-0.019547
2026-01-04T14:05:34.769793,9.777073,-1.344766,1.383051,0.013439,0.007330,-0.024434
2026-01-04T14:05:34.779793,9.714859,-1.344766,1.339980,0.026878,0.018325,-0.021991
2026-01-04T14:05:34.789793,9.556933,-1.330409,1.282552,0.031764,0.008552,-0.020769
2026-01-04T14:05:34.798793,9.552147,-1.229910,1.368694,0.035430,-0.017104,-0.019547
2026-01-04T14:05:34.808793,9.667003,-1.182054,1.406979,0.030543,-0.041538,-0.017104
2026-01-04T14:05:34.818793,9.710074,-1.138983,1.421336,0.025656,-0.043982,-0.012217
2026-01-04T14:05:34.827793,9.686145,-1.167697,1.454836,0.017104,-0.035430,-0.012217
2026-01-04T14:05:34.837793,9.705288,-1.048056,1.493121,-0.001221,-0.018325,-0.009773
2026-01-04T14:05:34.846793,9.643075,-1.167697,1.445264,-0.015882,-0.007330,-0.010995
2026-01-04T14:05:34.856793,9.614361,-1.191625,1.450050,-0.019547,-0.007330,-0.012217
2026-01-04T14:05:34.866793,9.647860,-1.158126,1.397408,-0.013439,-0.019547,-0.020769
2026-01-04T14:05:34.875793,9.657432,-1.210768,1.406979,-0.008552,-0.037873,-0.026878
2026-01-04T14:05:34.885793,9.781858,-1.191625,1.373480,-0.003665,-0.048869,-0.036651
2026-01-04T14:05:34.894793,9.872786,-1.153340,1.397408,-0.007330,-0.045204,-0.037873
2026-01-04T14:05:34.904793,9.853643,-1.191625,1.392622,-0.007330,-0.034208,-0.039095
2026-01-04T14:05:34.914793,9.868000,-1.215553,1.421336,-0.006108,-0.021991,-0.042760
2026-01-04T14:05:34.923793,9.815358,-1.201196,1.397408,0.002443,-0.014660,-0.045204
2026-01-04T14:05:34.933793,9.695717,-1.287338,1.359123,0.010995,-0.015882,-0.048869
2026-01-04T14:05:34.943793,9.714859,-1.277767,1.392622,0.020769,-0.026878,-0.052534
2026-01-04T14:05:34.952793,9.753144,-1.263410,1.430907,0.034208,-0.040317,-0.059864
2026-01-04T14:05:34.962793,9.791430,-1.177268,1.402194,0.045204,-0.046425,-0.062308
2026-01-04T14:05:34.971793,9.810572,-1.186840,1.402194,0.054977,-0.040317,-0.064751
2026-01-04T14:05:34.981793,9.786644,-1.110269,1.440479,0.062308,-0.031764,-0.064751
2026-01-04T14:05:34.991793,9.781858,-1.115055,1.454836,0.054977,-0.023212,-0.059864
2026-01-04T14:05:35.000793,9.681360,-1.000199,1.359123,0.032986,-0.021991,-0.054977
2026-01-04T14:05:35.010793,9.690931,-0.990628,1.368694,0.026878,-0.024434,-0.054977
2026-01-04T14:05:35.019793,9.686145,-1.052841,1.402194,0.007330,-0.036651,-0.048869
2026-01-04T14:05:35.029793,9.748359,-1.105484,1.402194,-0.020769,-0.053756,-0.048869
2026-01-04T14:05:35.039793,9.853643,-1.143769,1.349551,-0.019547,-0.064751,-0.051312
2026-01-04T14:05:35.048793,9.939785,-1.119840,1.402194,-0.006108,-0.062308,-0.052534
2026-01-04T14:05:35.058793,9.982855,-1.148554,1.473978,0.012217,-0.051312,-0.051312
2026-01-04T14:05:35.068793,9.906285,-1.048056,1.550549,0.031764,-0.034208,-0.052534
2026-01-04T14:05:35.077793,9.824929,-0.966700,1.483550,0.037873,-0.021991,-0.053756
2026-01-04T14:05:35.087793,9.748359,-0.894915,1.445264,0.021991,-0.012217,-0.052534
2026-01-04T14:05:35.096793,9.714859,-0.914058,1.512263,-0.001221,-0.013439,-0.056199
2026-01-04T14:05:35.106793,9.647860,-0.961914,1.435693,-0.021991,-0.024434,-0.059864
2026-01-04T14:05:35.116793,9.710074,-0.985842,1.454836,-0.036651,-0.036651,-0.065973
2026-01-04T14:05:35.125793,9.719645,-1.091127,1.421336,-0.034208,-0.041538,-0.068416
2026-01-04T14:05:35.135793,9.757930,-1.148554,1.450050,-0.010995,-0.041538,-0.072082
2026-01-04T14:05:35.144793,9.772287,-1.134197,1.536192,0.010995,-0.043982,-0.072082
2026-01-04T14:05:35.154793,9.853643,-1.119840,1.473978,0.026878,-0.045204,-0.073303
2026-01-04T14:05:35.164793,9.906285,-1.048056,1.483550,0.042760,-0.036651,-0.070860
2026-01-04T14:05:35.173793,9.944570,-1.000199,1.512263,0.050090,-0.028099,-0.070860
2026-01-04T14:05:35.183793,9.901499,-0.847059,1.622333,0.042760,-0.013439,-0.067195
2026-01-04T14:05:35.193793,9.858429,-0.803988,1.603191,0.025656,0.001221,-0.064751
2026-01-04T14:05:35.202793,9.786644,-0.813559,1.545763,0.000000,0.003665,-0.064751
2026-01-04T14:05:35.212793,9.796215,-0.847059,1.517049,-0.024434,-0.013439,-0.068416
2026-01-04T14:05:35.221793,9.863214,-0.952343,1.598405,-0.041538,-0.032986,-0.079412
2026-01-04T14:05:35.231793,10.049854,-1.076770,1.555334,-0.043982,-0.035430,-0.084299
2026-01-04T14:05:35.241793,10.140782,-1.138983,1.540977,-0.020769,-0.017104,-0.091629
2026-01-04T14:05:35.250793,10.083354,-1.115055,1.564905,0.019547,0.014660,-0.100181
2026-01-04T14:05:35.260793,10.073783,-1.019342,1.497906,0.054977,0.037873,-0.102625
2026-01-04T14:05:35.269793,9.920642,-0.928415,1.564905,0.067195,0.040317,-0.107512
2026-01-04T14:05:35.279793,9.877571,-0.866201,1.531406,0.064751,0.029321,-0.109955
2026-01-04T14:05:35.289793,9.858429,-0.909272,1.622333,0.058643,0.015882,-0.117286
2026-01-04T14:05:35.298793,9.882357,-0.904486,1.694118,0.051312,0.004886,-0.119729
2026-01-04T14:05:35.308793,9.925428,-0.966700,1.713260,0.052534,-0.001221,-0.122173
2026-01-04T14:05:35.318793,9.997212,-0.981057,1.732403,0.067195,0.010995,-0.120951
2026-01-04T14:05:35.327793,10.030712,-0.957129,1.679761,0.084299,0.025656,-0.118507
2026-01-04T14:05:35.337793,9.963713,-0.870987,1.603191,0.095294,0.045204,-0.113620
2026-01-04T14:05:35.346793,9.973284,-0.847059,1.584048,0.094073,0.050090,-0.108733
2026-01-04T14:05:35.356793,9.911071,-0.789631,1.603191,0.081855,0.051312,-0.106290
2026-01-04T14:05:35.366793,9.954142,-0.794417,1.713260,0.076969,0.052534,-0.111177
2026-01-04T14:05:35.375793,9.906285,-0.799202,1.780260,0.063529,0.057421,-0.111177
2026-01-04T14:05:35.385793,9.954142,-0.961914,1.761117,0.057421,0.063529,-0.109955
2026-01-04T14:05:35.394793,9.896714,-1.105484,1.808973,0.070860,0.063529,-0.114842
2026-01-04T14:05:35.404793,9.930213,-1.191625,1.832902,0.098960,0.061086,-0.117286
2026-01-04T14:05:35.414793,9.848857,-1.282552,1.837687,0.134390,0.068416,-0.117286
2026-01-04T14:05:35.423793,9.829715,-1.344766,2.005185,0.172263,0.084299,-0.117286
2026-01-04T14:05:35.433793,9.748359,-1.421336,2.153540,0.205250,0.108733,-0.112399
2026-01-04T14:05:35.443793,9.604789,-1.521835,2.148754,0.208915,0.138055,-0.101403
2026-01-04T14:05:35.452793,9.308079,-1.794616,2.000399,0.200363,0.167377,-0.091629
2026-01-04T14:05:35.462793,9.035298,-2.158325,1.928615,0.219911,0.194255,-0.074525
2026-01-04T14:05:35.471793,8.858229,-2.364108,1.957328,0.273667,0.183259,-0.047647
2026-01-04T14:05:35.481793,8.767302,-2.464607,1.971685,0.342084,0.128281,-0.014660
2026-01-04T14:05:35.491793,9.035298,-2.392822,2.053041,0.395840,0.059864,0.026878
2026-01-04T14:05:35.500793,9.332008,-2.277967,2.158325,0.406836,0.013439,0.076969
2026-01-04T14:05:35.510793,9.619146,-2.210968,2.249253,0.375071,0.008552,0.130725
2026-01-04T14:05:35.519793,9.686145,-2.244467,2.215753,0.315206,0.057421,0.188146
2026-01-04T14:05:35.529793,9.676574,-2.435893,2.201396,0.259006,0.142942,0.248011
2026-01-04T14:05:35.539793,9.279366,-2.675175,2.158325,0.257785,0.226020,0.295658
2026-01-04T14:05:35.548793,8.853443,-2.751745,2.091326,0.309097,0.284663,0.333532
2026-01-04T14:05:35.558793,8.336593,-2.742174,2.105683,0.384845,0.306654,0.354301
2026-01-04T14:05:35.568793,7.920242,-2.579462,1.938186,0.459370,0.295658,0.365297
2026-01-04T14:05:35.577793,7.599604,-2.330609,2.038684,0.507018,0.251676,0.382401
2026-01-04T14:05:35.587793,7.446463,-2.148754,2.014756,0.507018,0.196698,0.400727
2026-01-04T14:05:35.596793,7.484749,-2.134397,2.182254,0.478918,0.160046,0.419053
2026-01-04T14:05:35.606793,7.446463,-2.220539,2.220539,0.439822,0.149051,0.441044
2026-01-04T14:05:35.616793,7.398607,-2.330609,2.215753,0.411723,0.144164,0.464257
2026-01-04T14:05:35.625793,7.384250,-2.349751,2.526820,0.408057,0.138055,0.487470
2026-01-04T14:05:35.635793,7.369893,-2.225325,2.775674,0.430049,0.146607,0.514348
2026-01-04T14:05:35.644793,7.489534,-1.976471,2.943171,0.445931,0.182037,0.542448
2026-01-04T14:05:35.654793,7.714460,-1.761117,2.785245,0.414166,0.257785,0.593760
2026-01-04T14:05:35.664793,7.915457,-1.564905,2.330609,0.345749,0.375071,0.662177
2026-01-04T14:05:35.673793,7.843672,-1.354337,1.818545,0.229685,0.536339,0.777020
2026-01-04T14:05:35.683793,7.365107,-1.019342,1.579262,0.101403,0.717155,0.902858
2026-01-04T14:05:35.693793,6.546762,-0.559920,1.631905,-0.085521,0.857654,1.045801
2026-01-04T14:05:35.702793,5.469992,-0.430708,1.622333,-0.377514,0.879645,1.185078
2026-01-04T14:05:35.712793,4.776073,-0.631705,1.564905,-0.685390,0.759916,1.291368
2026-01-04T14:05:35.721793,4.417150,-1.186840,1.550549,-0.941954,0.532674,1.369559
2026-01-04T14:05:35.731793,4.618147,-2.072184,1.679761,-1.093448,0.244346,1.415985
2026-01-04T14:05:35.741793,5.369493,-3.048455,1.919043,-1.053131,-0.051312,1.437976
2026-01-04T14:05:35.750793,6.494120,-4.115654,1.737189,-0.873537,-0.257785,1.469741
2026-01-04T14:05:35.760793,7.561319,-5.034498,1.363908,-0.527787,-0.276111,1.503949
2026-01-04T14:05:35.769793,8.159525,-5.302494,0.957129,0.013439,-0.105068,1.541823
2026-01-04T14:05:35.779793,8.092526,-4.833501,0.703489,0.572991,0.127059,1.596801
2026-01-04T14:05:35.789793,7.484749,-3.818944,0.703489,0.955393,0.294436,1.663996
2026-01-04T14:05:35.798793,6.843472,-2.809173,0.866201,1.111774,0.339641,1.727526
2026-01-04T14:05:35.808793,6.302694,-1.995614,0.981057,1.061683,0.285884,1.773952
2026-01-04T14:05:35.818793,6.082555,-1.593619,1.186840,0.852767,0.175929,1.797165
2026-01-04T14:05:35.827793,6.135197,-1.627119,1.311266,0.572991,0.052534,1.806938
2026-01-04T14:05:35.837793,6.608976,-2.134397,1.493121,0.315206,-0.042760,1.817934
2026-01-04T14:05:35.846793,6.977470,-2.799602,1.607976,0.139277,-0.056199,1.828930
2026-01-04T14:05:35.856793,7.197610,-3.373879,1.531406,0.083077,0.037873,1.849699
2026-01-04T14:05:35.866793,6.982256,-3.670589,1.359123,0.138055,0.189368,1.863138
2026-01-04T14:05:35.875793,6.393621,-3.627519,1.081555,0.241902,0.311541,1.876577
2026-01-04T14:05:35.885793,5.723631,-3.445664,1.105484,0.310319,0.342084,1.894903
2026-01-04T14:05:35.894793,5.264209,-3.273381,1.607976,0.282219,0.267558,1.918116
2026-01-04T14:05:35.904793,5.158925,-3.316452,1.947757,0.109955,0.098960,1.957211
2026-01-04T14:05:35.914793,5.541777,-3.852444,2.009970,-0.144164,-0.114842,2.009746
2026-01-04T14:05:35.923793,6.431907,-4.823930,2.043470,-0.302989,-0.287106,2.047619
2026-01-04T14:05:35.933793,7.278966,-5.651846,2.239681,-0.257785,-0.338419,2.064724
2026-01-04T14:05:35.943793,7.867600,-6.163911,2.182254,-0.090408,-0.249232,2.079384
2026-01-04T14:05:35.952793,7.862815,-6.403193,1.775474,0.136833,-0.058643,2.089158
2026-01-04T14:05:35.962793,7.427321,-6.259623,1.421336,0.386066,0.130725,2.080606
2026-01-04T14:05:35.971793,6.628118,-5.656632,1.225125,0.549778,0.229685,2.067167
2026-01-04T14:05:35.981793,5.958128,-5.082355,1.383051,0.547335,0.178372,2.045176
2026-01-04T14:05:35.991793,5.723631,-4.804787,1.450050,0.360410,-0.013439,2.026850
2026-01-04T14:05:36.000793,6.096911,-5.058426,1.617548,0.065973,-0.293215,2.023185
2026-01-04T14:05:36.010793,6.929614,-5.881557,2.498106,-0.204028,-0.568104,2.023185
2026-01-04T14:05:36.019793,8.044669,-7.001398,3.192025,-0.393397,-0.708603,2.039067
2026-01-04T14:05:36.029793,9.131011,-8.360522,3.297309,-0.409279,-0.645073,2.074497
2026-01-04T14:05:36.039793,9.489934,-9.705288,3.555734,-0.105068,-0.379958,2.089158
2026-01-04T14:05:36.048793,9.092725,-10.375278,3.335594,0.450818,-0.009773,2.107484
2026-01-04T14:05:36.058793,8.044669,-10.073783,2.402393,1.131322,0.324980,2.113593
2026-01-04T14:05:36.068793,6.795616,-8.781658,1.813759,1.766621,0.498465,2.076941
2026-01-04T14:05:36.077793,5.929414,-6.967899,1.856830,2.177123,0.416610,1.999972
2026-01-04T14:05:36.087793,5.962913,-5.125426,2.220539,2.129475,0.133168,1.919338
2026-01-04T14:05:36.096793,6.886543,-4.034298,2.857030,1.656666,-0.196698,1.861916
2026-01-04T14:05:36.106793,8.331808,-3.718446,3.799802,1.003040,-0.395840,1.814269
2026-01-04T14:05:36.116793,9.753144,-4.077369,4.039084,0.218689,-0.348193,1.820378
2026-01-04T14:05:36.125793,10.375278,-5.154139,4.053441,-0.535117,-0.074525,1.863138
2026-01-04T14:05:36.135793,9.949356,-6.618547,3.541377,-1.050687,0.316428,1.909564
2026-01-04T14:05:36.144793,8.729016,-8.173882,3.125026,-1.255938,0.634077,1.913229
2026-01-04T14:05:36.154793,7.207181,-9.700502,3.110669,-1.147204,0.752585,1.859473
2026-01-04T14:05:36.164793,5.958128,-10.782058,3.058027,-0.812450,0.662177,1.810604
2026-01-04T14:05:36.173793,5.201996,-11.241480,2.589034,-0.371405,0.421496,1.762956
2026-01-04T14:05:36.183793,5.154139,-10.786844,2.416750,0.083077,0.095294,1.711644
2026-01-04T14:05:36.193793,5.843272,-9.446863,2.909672,0.361632,-0.234572,1.684765
2026-01-04T14:05:36.202793,6.695117,-7.920242,3.455235,0.302989,-0.415388,1.704313
2026-01-04T14:05:36.212793,7.365107,-6.963113,3.670589,-0.064751,-0.384845,1.770287
2026-01-04T14:05:36.221793,7.551748,-6.733402,3.785445,-0.608421,-0.227241,1.827708
2026-01-04T14:05:36.231793,7.178467,-7.326822,3.948157,-1.150869,-0.063529,1.832595
2026-01-04T14:05:36.241793,6.637689,-8.781658,3.948157,-1.560149,0.019547,1.782504
2026-01-04T14:05:36.250793,6.178267,-11.069197,3.675375,-1.710422,0.010995,1.696983
2026-01-04T14:05:36.260793,5.919843,-13.318450,3.153740,-1.463632,-0.053756,1.571145
2026-01-04T14:05:36.269793,5.938985,-14.720644,2.368894,-0.846659,-0.134390,1.413541
2026-01-04T14:05:36.279793,6.068198,-14.897713,1.780260,-0.046425,-0.213802,1.282816
2026-01-04T14:05:36.289793,6.307480,-13.907084,1.856830,0.707381,-0.266337,1.148426
2026-01-04T14:05:36.298793,6.441478,-11.954541,2.196611,1.147204,-0.285884,1.056796
2026-01-04T14:05:36.308793,6.508477,-10.102497,2.804388,1.119104,-0.272445,1.007927
2026-01-04T14:05:36.318793,6.604190,-8.920442,3.522234,0.700051,-0.250454,0.960279
2026-01-04T14:05:36.327793,6.656832,-8.738588,3.603590,0.059864,-0.233350,0.934623
2026-01-04T14:05:36.337793,6.848258,-9.820143,3.565305,-0.586430,-0.241902,0.893084
2026-01-04T14:05:36.346793,7.154539,-11.533404,4.010370,-1.009149,-0.268780,0.825889
2026-01-04T14:05:36.356793,7.566105,-13.433306,3.814159,-1.098335,-0.256563,0.758694
2026-01-04T14:05:36.366793,7.747959,-14.912070,3.081955,-0.824667,-0.158824,0.665842
2026-01-04T14:05:36.375793,7.623532,-15.400206,3.024527,-0.228463,-0.014660,0.542448
2026-01-04T14:05:36.385793,7.121040,-14.653645,2.852244,0.464257,0.117286,0.412944
2026-01-04T14:05:36.394793,6.537191,-13.040883,2.723032,1.011592,0.194255,0.277332
2026-01-04T14:05:36.404793,6.053841,-11.083554,2.890529,1.274264,0.195476,0.129503
2026-01-04T14:05:36.414793,5.675775,-9.298508,3.105883,1.158200,0.125838,-0.003665
2026-01-04T14:05:36.423793,5.656632,-8.116454,3.330809,0.709825,0.001221,-0.128281
2026-01-04T14:05:36.433793,5.986842,-7.657032,3.680161,0.094073,-0.136833,-0.256563
2026-01-04T14:05:36.443793,6.561119,-7.939385,3.881158,-0.546113,-0.259006,-0.376292
2026-01-04T14:05:36.452793,7.164110,-8.705088,3.799802,-1.100778,-0.324980,-0.475253
2026-01-04T14:05:36.462793,7.719245,-9.772287,3.397808,-1.452637,-0.316428,-0.577878
2026-01-04T14:05:36.471793,7.996813,-10.858628,3.091526,-1.535714,-0.222354,-0.706160
2026-01-04T14:05:36.481793,8.054240,-11.691331,3.393022,-1.304807,-0.070860,-0.866206
2026-01-04T14:05:36.491793,7.786244,-12.122039,3.493520,-0.781907,0.119729,-1.069013
2026-01-04T14:05:36.500793,7.188039,-11.863614,2.952743,-0.138055,0.277332,-1.286481
2026-01-04T14:05:36.510793,6.742974,-11.274980,2.589034,0.489913,0.327423,-1.532049
2026-01-04T14:05:36.519793,6.546762,-10.313065,2.612962,0.983492,0.240680,-1.776395
2026-01-04T14:05:36.529793,6.833901,-9.188438,2.282752,1.183856,0.079412,-1.957211
2026-01-04T14:05:36.539793,7.398607,-7.786244,1.942971,1.075122,-0.097738,-2.081828
2026-01-04T14:05:36.548793,8.102097,-6.350551,2.330609,0.692721,-0.252898,-2.179566
2026-01-04T14:05:36.558793,8.910871,-5.603990,2.818745,-0.024434,-0.356745,-2.219883
2026-01-04T14:05:36.568793,9.753144,-6.025127,3.244667,-0.916297,-0.376292,-2.232101
2026-01-04T14:05:36.577793,10.561918,-7.618747,3.139383,-1.644448,-0.287106,-2.260200
2026-01-04T14:05:36.587793,10.901699,-9.485148,2.871387,-1.935220,-0.081855,-2.334726
2026-01-04T14:05:36.596793,10.719845,-10.930413,2.177468,-1.678657,0.222354,-2.463008
2026-01-04T14:05:36.606793,9.858429,-11.203195,1.540977,-1.017701,0.530230,-2.598620
2026-01-04T14:05:36.616793,8.872586,-10.518848,1.306481,-0.233350,0.724486,-2.780657
2026-01-04T14:05:36.625793,7.987241,-9.360722,1.028913,0.399505,0.722042,-2.971247
2026-01-04T14:05:36.635793,7.824529,-8.231309,1.095912,0.669508,0.520457,-3.133738
2026-01-04T14:05:36.644793,8.484948,-7.456035,1.316052,0.571769,0.162490,-3.236363
2026-01-04T14:05:36.654793,9.973284,-6.728617,1.397408,0.177150,-0.261450,-3.260797
2026-01-04T14:05:36.664793,11.801401,-6.647261,1.761117,-0.436157,-0.594982,-3.198489
2026-01-04T14:05:36.673793,13.524233,-7.255038,1.631905,-1.126435,-0.684168,-3.055547
2026-01-04T14:05:36.683793,14.199009,-8.537591,1.464407,-1.644448,-0.499687,-2.905274
2026-01-04T14:05:36.693793,13.911870,-9.963713,1.818545,-1.837482,-0.183259,-2.800205
2026-01-04T14:05:36.702793,12.691531,-11.093125,1.071984,-1.629788,0.102625,-2.735453
2026-01-04T14:05:36.712793,10.954341,-11.011769,0.411565,-0.970053,0.262671,-2.773327
2026-01-04T14:05:36.721793,9.370293,-9.805787,0.445065,-0.171042,0.262671,-2.874731
2026-01-04T14:05:36.731793,8.451449,-8.020741,0.468993,0.469144,0.117286,-3.001791
2026-01-04T14:05:36.741793,8.092526,-6.096911,0.497707,0.907745,-0.091629,-3.152063
2026-01-04T14:05:36.750793,8.341379,-4.283152,0.368494,1.073900,-0.278554,-3.266906
2026-01-04T14:05:36.760793,8.915657,-3.053241,0.847059,0.956614,-0.399505,-3.338988
2026-01-04T14:05:36.769793,9.667003,-2.220539,1.483550,0.648738,-0.460592,-3.364645
2026-01-04T14:05:36.779793,10.241280,-1.775474,2.081755,0.221133,-0.474031,-3.368310
2026-01-04T14:05:36.789793,10.939984,-1.981257,2.885744,-0.337197,-0.461814,-3.332880
2026-01-04T14:05:36.798793,11.581261,-2.890529,3.115455,-0.935845,-0.409279,-3.247358
2026-01-04T14:05:36.808793,11.930613,-3.996013,2.354537,-1.303586,-0.278554,-3.149620
2026-01-04T14:05:36.818793,11.868400,-4.910071,1.569691,-1.357342,-0.054977,-3.081203
2026-01-04T14:05:36.827793,11.241480,-5.297709,0.478564,-1.145982,0.193033,-3.055547
2026-01-04T14:05:36.837793,10.155139,-4.924428,0.162711,-0.808785,0.338419,-3.031112
2026-01-04T14:05:36.846793,9.064012,-4.048655,0.086141,-0.548556,0.327423,-3.035999
2026-01-04T14:05:36.856793,8.561519,-3.120240,0.267996,-0.516791,0.112399,-3.023782
2026-01-04T14:05:36.866793,9.111868,-2.545963,0.985842,-0.660956,-0.271224,-2.993239
2026-01-04T14:05:36.875793,10.384850,-2.368894,1.923829,-0.922406,-0.612086,-2.913826
2026-01-04T14:05:36.885793,11.834900,-3.014956,2.402393,-1.255938,-0.717155,-2.757445
2026-01-04T14:05:36.894793,12.758530,-4.350151,3.000599,-1.466076,-0.535117,-2.558303
2026-01-04T14:05:36.904793,12.514462,-5.618347,2.919243,-1.428202,-0.152716,-2.328617
2026-01-04T14:05:36.914793,11.260623,-6.049055,2.153540,-1.128878,0.249232,-2.109928
2026-01-04T14:05:36.923793,9.365507,-5.613561,1.296909,-0.668286,0.502131,-1.954768
2026-01-04T14:05:36.933793,7.685746,-4.311866,1.086341,-0.208915,0.518013,-1.861916
2026-01-04T14:05:36.943793,6.522834,-2.900100,0.976271,0.091629,0.355523,-1.839925
2026-01-04T14:05:36.952793,6.149554,-1.641476,0.679561,0.161268,0.105068,-1.832595
2026-01-04T14:05:36.962793,6.384050,-0.861416,0.894915,0.045204,-0.163711,-1.832595
2026-01-04T14:05:36.971793,7.044469,-0.535992,0.976271,-0.188146,-0.382401,-1.803273
2026-01-04T14:05:36.981793,7.948956,-0.602991,0.780060,-0.447153,-0.500909,-1.732413
2026-01-04T14:05:36.991793,8.671589,-0.966700,1.086341,-0.624304,-0.508239,-1.649335
2026-01-04T14:05:37.000793,9.212367,-1.320838,1.842473,-0.701273,-0.406836,-1.560149
2026-01-04T14:05:37.010793,9.126225,-1.512263,1.612762,-0.770911,-0.188146,-1.431867
2026-01-04T14:05:37.019793,8.341379,-1.799402,1.306481,-0.763581,0.100181,-1.315803
2026-01-04T14:05:37.029793,7.140182,-1.919043,1.148554,-0.669508,0.333532,-1.226617
2026-01-04T14:05:37.039793,5.996413,-1.885544,0.837487,-0.582765,0.389731,-1.154535
2026-01-04T14:05:37.048793,5.245067,-1.895115,0.626919,-0.475253,0.249232,-1.125213
2026-01-04T14:05:37.058793,5.350351,-1.698904,0.421136,-0.354301,-0.048869,-1.114217
2026-01-04T14:05:37.068793,6.206981,-1.249053,0.272781,-0.280997,-0.379958,-1.080009
2026-01-04T14:05:37.077793,7.446463,-0.760917,0.258424,-0.254119,-0.593760,-1.027475
2026-01-04T14:05:37.087793,8.551947,-0.277567,0.296710,-0.285884,-0.605978,-0.951727
2026-01-04T14:05:37.096793,9.126225,0.071784,0.736989,-0.382401,-0.448374,-0.847880
2026-01-04T14:05:37.106793,8.973084,0.119641,1.550549,-0.525343,-0.219911,-0.733038
2026-01-04T14:05:37.116793,8.403592,-0.043070,1.785045,-0.679282,0.020769,-0.618195
2026-01-04T14:05:37.125793,7.436892,-0.387637,1.301695,-0.797789,0.218689,-0.520457
2026-01-04T14:05:37.135793,6.345765,-0.708275,0.904486,-0.796568,0.301767,-0.449596
2026-01-04T14:05:37.144793,5.489135,-0.837487,0.961914,-0.704938,0.259006,-0.409279
2026-01-04T14:05:37.154793,4.871786,-0.870987,0.899701,-0.621860,0.135612,-0.379958
2026-01-04T14:05:37.164793,4.527220,-0.952343,0.933200,-0.524122,-0.007330,-0.354301
2026-01-04T14:05:37.173793,4.455435,-1.009771,1.201196,-0.408057,-0.124616,-0.329867
2026-01-04T14:05:37.183793,4.412364,-1.095912,1.387837,-0.280997,-0.204028,-0.294436
2026-01-04T14:05:37.193793,4.469792,-1.000199,1.569691,-0.096516,-0.257785,-0.265115
2026-01-04T14:05:37.202793,4.522434,-0.770488,1.780260,0.085521,-0.300545,-0.241902
2026-01-04T14:05:37.212793,4.771288,-0.478564,2.163111,0.232128,-0.343306,-0.223576
2026-01-04T14:05:37.221793,5.020141,0.004785,2.364108,0.313984,-0.361632,-0.199142
2026-01-04T14:05:37.231793,5.292923,0.516849,2.167897,0.305432,-0.334754,-0.166155
2026-01-04T14:05:37.241793,5.508277,0.861416,2.086541,0.201585,-0.280997,-0.134390
2026-01-04T14:05:37.250793,5.766702,1.014556,1.832902,0.031764,-0.272445,-0.090408
2026-01-04T14:05:37.260793,6.034698,0.837487,1.497906,-0.155159,-0.346971,-0.052534
2026-01-04T14:05:37.269793,6.733402,0.349352,1.521835,-0.284663,-0.486248,-0.029321
2026-01-04T14:05:37.279793,7.728816,-0.110069,1.545763,-0.322536,-0.631634,-0.002443
2026-01-04T14:05:37.289793,8.872586,-0.411565,1.440479,-0.249232,-0.720820,0.003665
2026-01-04T14:05:37.298793,9.939785,-0.497707,1.593619,-0.092851,-0.729372,-0.002443
2026-01-04T14:05:37.308793,10.925627,-0.387637,1.746760,0.096516,-0.671951,0.007330
2026-01-04T14:05:37.318793,11.619546,-0.071784,1.641476,0.246789,-0.543669,0.037873
2026-01-04T14:05:37.327793,11.777472,0.287138,1.607976,0.331088,-0.353080,0.094073
2026-01-04T14:05:37.337793,11.595618,0.665204,1.402194,0.357966,-0.150272,0.166155
2026-01-04T14:05:37.346793,11.050054,1.038485,1.383051,0.321315,0.003665,0.232128
2026-01-04T14:05:37.356793,10.255637,1.210768,1.459621,0.238237,0.063529,0.302989
2026-01-04T14:05:37.366793,9.700502,1.244267,1.540977,0.153938,0.054977,0.362853
2026-01-04T14:05:37.375793,9.332008,1.229910,1.670190,0.085521,0.017104,0.415388
2026-01-04T14:05:37.385793,9.040083,1.182054,1.756331,0.047647,-0.037873,0.461814
2026-01-04T14:05:37.394793,9.040083,1.201196,1.751546,0.042760,-0.083077,0.493579
2026-01-04T14:05:37.404793,8.997012,1.406979,1.689332,0.054977,-0.103847,0.516791
2026-01-04T14:05:37.414793,9.016155,1.636690,1.526620,0.057421,-0.097738,0.519235
2026-01-04T14:05:37.423793,9.140582,1.737189,1.426122,0.051312,-0.100181,0.499687
2026-01-04T14:05:37.433793,9.451649,1.880758,1.258624,0.037873,-0.131946,0.467922
2026-01-04T14:05:37.443793,9.872786,2.120040,1.024128,0.014660,-0.163711,0.425162
2026-01-04T14:05:37.452793,10.356136,2.282752,0.914058,-0.020769,-0.163711,0.379958
2026-01-04T14:05:37.462793,10.652846,2.478964,0.866201,-0.092851,-0.119729,0.344527
2026-01-04T14:05:37.471793,10.576275,1.301695,1.033699,-0.211359,-0.068416,0.246789
2026-01-04T14:05:37.481793,10.758130,0.885344,1.158126,-0.306654,-0.041538,-0.323758
2026-01-04T14:05:37.491793,10.944770,2.445464,0.751346,-0.474031,0.065973,-0.698829
2026-01-04T14:05:37.500793,9.805787,2.531606,0.827916,-0.602312,0.257785,-0.442266
2026-01-04T14:05:37.510793,9.308079,0.961914,2.134397,-0.459370,0.201585,0.175929
2026-01-04T14:05:37.519793,9.102297,0.942772,0.947557,-0.191811,0.118507,0.489913
2026-01-04T14:05:37.529793,9.284151,0.224925,1.622333,0.039095,-0.026878,0.703716
2026-01-04T14:05:37.539793,9.796215,0.535992,1.129412,0.254119,-0.112399,0.911410
2026-01-04T14:05:37.548793,9.949356,-0.540777,1.210768,0.384845,-0.119729,1.006705
2026-01-04T14:05:37.558793,10.274780,-0.626919,1.220339,0.421496,-0.039095,0.845437
2026-01-04T14:05:37.568793,10.207781,-0.799202,1.234696,0.400727,0.103847,0.614530
2026-01-04T14:05:37.577793,9.978070,-0.334995,1.191625,0.388510,0.246789,0.487470
2026-01-04T14:05:37.587793,9.580861,0.732203,2.469392,0.284663,0.307876,0.503352
2026-01-04T14:05:37.596793,9.121439,-0.330209,1.411765,0.216246,0.273667,0.614530
2026-01-04T14:05:37.606793,8.858229,-0.535992,1.584048,0.152716,0.212581,0.684168
2026-01-04T14:05:37.616793,8.843872,-0.780060,1.512263,0.087964,0.144164,0.728151
2026-01-04T14:05:37.625793,9.044869,-1.134197,1.406979,0.034208,0.069638,0.773355
2026-01-04T14:05:37.635793,9.322436,-1.296909,1.478764,0.014660,-0.008552,0.829554
2026-01-04T14:05:37.644793,9.796215,-1.761117,1.186840,0.018325,-0.075747,0.952949
2026-01-04T14:05:37.654793,9.489934,-3.187239,1.095912,0.140498,-0.025656,0.933401
2026-01-04T14:05:37.664793,10.265208,-2.038684,1.172483,0.282219,0.034208,0.930958
2026-01-04T14:05:37.673793,10.054640,-2.364108,1.158126,0.400727,0.118507,0.977384
2026-01-04T14:05:37.683793,9.719645,-2.354537,1.201196,0.521678,0.211359,1.027475
2026-01-04T14:05:37.693793,9.355936,-2.067398,1.311266,0.646295,0.289550,1.056796
2026-01-04T14:05:37.702793,8.944370,-1.861615,1.287338,0.737925,0.342084,1.077566
2026-01-04T14:05:37.712793,8.499305,-1.531406,1.234696,0.805120,0.372627,1.092226
2026-01-04T14:05:37.721793,8.073383,-1.225125,1.354337,0.835663,0.373849,1.106887
2026-01-04T14:05:37.731793,7.776673,-0.937986,1.397408,0.811228,0.357966,1.126435
2026-01-04T14:05:37.741793,7.475177,-0.765703,1.349551,0.719599,0.348193,1.160643
2026-01-04T14:05:37.750793,7.178467,-0.736989,1.215553,0.599869,0.361632,1.210734
2026-01-04T14:05:37.760793,6.690331,-0.890130,1.148554,0.485026,0.378736,1.275486
2026-01-04T14:05:37.769793,6.264409,-1.129412,1.205982,0.399505,0.359188,1.345124
2026-01-04T14:05:37.779793,5.862415,-1.507478,1.095912,0.338419,0.309097,1.418428
2026-01-04T14:05:37.789793,5.718846,-1.765903,1.019342,0.346971,0.244346,1.481958
2026-01-04T14:05:37.798793,5.670989,-1.861615,1.110269,0.408057,0.182037,1.530827
2026-01-04T14:05:37.808793,5.800201,-2.033899,1.277767,0.496022,0.136833,1.566258
2026-01-04T14:05:37.818793,6.029912,-1.928615,1.253839,0.581543,0.097738,1.590692
2026-01-04T14:05:37.827793,6.250052,-1.837687,1.119840,0.616973,0.051312,1.609018
2026-01-04T14:05:37.837793,6.575476,-1.799402,0.923629,0.624304,0.024434,1.632231
2026-01-04T14:05:37.846793,6.862615,-1.722832,0.698704,0.646295,0.032986,1.649335
2026-01-04T14:05:37.856793,6.982256,-1.775474,0.540777,0.659734,0.054977,1.662774
2026-01-04T14:05:37.866793,7.025327,-1.933400,0.291924,0.662177,0.058643,1.678657
2026-01-04T14:05:37.875793,7.226324,-2.115255,0.512064,0.702494,0.034208,1.696983
2026-01-04T14:05:37.885793,7.460820,-2.182254,0.545563,0.733038,-0.008552,1.716530
2026-01-04T14:05:37.894793,7.752745,-2.277967,0.287138,0.720820,-0.028099,1.747074
2026-01-04T14:05:37.904793,7.968099,-2.364108,0.535992,0.761137,0.000000,1.750739
2026-01-04T14:05:37.914793,8.025527,-2.244467,0.684347,0.799011,0.056199,1.765400
2026-01-04T14:05:37.923793,8.011170,-2.081755,0.488135,0.759916,0.106290,1.791056
2026-01-04T14:05:37.933793,7.848458,-1.866401,0.468993,0.675616,0.138055,1.809382
2026-01-04T14:05:37.943793,7.628318,-1.765903,0.502492,0.537561,0.141720,1.830151
2026-01-04T14:05:37.952793,7.331608,-1.923829,0.334995,0.324980,0.109955,1.849699
2026-01-04T14:05:37.962793,7.211967,-2.450250,0.244067,0.145385,0.046425,1.869247
2026-01-04T14:05:37.971793,7.116254,-3.110669,0.368494,0.053756,-0.039095,1.883908
2026-01-04T14:05:37.981793,7.355536,-3.905086,0.784845,0.048869,-0.144164,1.912007
2026-01-04T14:05:37.991793,7.872386,-4.675575,1.177268,0.158824,-0.233350,1.946216
2026-01-04T14:05:38.000793,8.551947,-5.326423,1.646261,0.377514,-0.241902,1.969429
2026-01-04T14:05:38.010793,9.116654,-5.733202,1.258624,0.608421,-0.136833,2.007302
2026-01-04T14:05:38.019793,9.241080,-5.570491,0.583848,0.927293,0.059864,2.052506
2026-01-04T14:05:38.029793,8.781658,-4.532006,0.349352,1.233947,0.268780,2.102597
2026-01-04T14:05:38.039793,8.011170,-3.105883,0.244067,1.295034,0.393397,2.157575
2026-01-04T14:05:38.048793,7.211967,-1.785045,0.440279,1.056796,0.382401,2.208888
2026-01-04T14:05:38.058793,6.752545,-1.134197,0.832702,0.557108,0.208915,2.233322
2026-01-04T14:05:38.068793,6.776473,-1.335195,1.119840,-0.109955,-0.083077,2.246761
2026-01-04T14:05:38.077793,7.575676,-2.603390,1.272981,-0.753807,-0.388510,2.262644
2026-01-04T14:05:38.087793,8.542376,-4.378865,1.095912,-1.142317,-0.585208,2.265087
2026-01-04T14:05:38.096793,9.542576,-6.221338,1.134197,-1.174082,-0.585208,2.244318
2026-01-04T14:05:38.106793,10.016355,-7.767102,1.062413,-0.899193,-0.406836,2.228435
2026-01-04T14:05:38.116793,9.777073,-8.595018,0.746560,-0.397062,-0.146607,2.239431
2026-01-04T14:05:38.125793,8.934799,-8.604590,0.655633,0.201585,0.074525,2.236988
2026-01-04T14:05:38.135793,7.958527,-8.011170,0.583848,0.702494,0.157603,2.233322
2026-01-04T14:05:38.144793,7.235895,-6.910471,0.760917,0.981049,0.064751,2.219883
2026-01-04T14:05:38.154793,7.049255,-5.938985,0.866201,1.016479,-0.151494,2.194227
2026-01-04T14:05:38.164793,7.326822,-5.077569,1.148554,0.834441,-0.409279,2.179566
2026-01-04T14:05:38.173793,8.169096,-4.895715,1.713260,0.527787,-0.614530,2.157575
2026-01-04T14:05:38.183793,9.164510,-5.245067,1.808973,0.140498,-0.720820,2.140471
2026-01-04T14:05:38.193793,9.882357,-6.120840,1.703689,-0.201585,-0.667064,2.135584
2026-01-04T14:05:38.202793,10.260423,-7.422535,2.019542,-0.360410,-0.463035,2.117258
2026-01-04T14:05:38.212793,9.958927,-8.791230,2.072184,-0.331088,-0.195476,2.119701
2026-01-04T14:05:38.221793,9.207581,-9.920642,2.048256,-0.127059,0.039095,2.130697
2026-01-04T14:05:38.231793,8.346165,-10.695917,1.526620,0.226020,0.164933,2.144136
2026-01-04T14:05:38.241793,7.671389,-10.667203,1.052841,0.657290,0.155159,2.160019
2026-01-04T14:05:38.250793,7.389036,-9.753144,0.990628,1.025031,0.037873,2.147801
2026-01-04T14:05:38.260793,7.479963,-8.389236,1.158126,1.182634,-0.155159,2.103819
2026-01-04T14:05:38.269793,7.944171,-7.073183,1.569691,1.081231,-0.323758,2.052506
2026-01-04T14:05:38.279793,8.480163,-6.202196,2.163111,0.777020,-0.353080,1.992641
2026-01-04T14:05:38.289793,8.638089,-6.058626,2.675175,0.313984,-0.229685,1.968207
2026-01-04T14:05:38.298793,8.537591,-6.781259,3.196810,-0.177150,-0.030543,1.944994
2026-01-04T14:05:38.308793,8.102097,-8.288737,3.426521,-0.514348,0.166155,1.897347
2026-01-04T14:05:38.318793,7.652246,-10.284351,3.148954,-0.599869,0.280997,1.874134
2026-01-04T14:05:38.327793,7.456035,-12.050254,2.574677,-0.372627,0.302989,1.844812
2026-01-04T14:05:38.337793,7.398607,-13.112667,1.478764,0.131946,0.288328,1.813047
2026-01-04T14:05:38.346793,7.513462,-13.194023,1.009771,0.769690,0.273667,1.786169
2026-01-04T14:05:38.356793,7.613961,-12.064611,1.268195,1.342681,0.287106,1.756848
2026-01-04T14:05:38.366793,7.566105,-10.021141,2.129612,1.673770,0.343306,1.685987
2026-01-04T14:05:38.375793,7.255038,-7.795816,3.034099,1.610240,0.432492,1.572366
2026-01-04T14:05:38.385793,6.752545,-6.245266,3.254238,1.056796,0.525343,1.488067
2026-01-04T14:05:38.394793,6.072983,-5.948556,3.268595,0.241902,0.613308,1.387885
2026-01-04T14:05:38.404793,5.345565,-6.714260,3.168097,-0.605978,0.651182,1.286481
2026-01-04T14:05:38.414793,4.800002,-8.724231,2.933600,-1.310916,0.605978,1.199739
2026-01-04T14:05:38.423793,4.407579,-11.361121,2.297109,-1.627344,0.497244,1.133765
2026-01-04T14:05:38.433793,4.302295,-13.663017,1.895115,-1.408654,0.384845,1.072679
2026-01-04T14:05:38.443793,4.187439,-15.103496,1.698904,-0.781907,0.310319,1.005483
2026-01-04T14:05:38.452793,4.110869,-15.404991,1.804188,-0.025656,0.257785,0.946840
2026-01-04T14:05:38.462793,4.197010,-14.562718,2.158325,0.712268,0.185702,0.884532
2026-01-04T14:05:38.471793,4.240081,-12.610175,2.488535,1.275486,0.140498,0.807563
2026-01-04T14:05:38.481793,4.244867,-10.518848,3.153740,1.464854,0.156381,0.722042
2026-01-04T14:05:38.491793,4.077369,-8.891728,3.718446,1.282816,0.216246,0.632856
2026-01-04T14:05:38.500793,3.833301,-7.881957,3.866801,0.842993,0.255341,0.552222
2026-01-04T14:05:38.510793,3.589233,-7.570890,4.388436,0.283441,0.238237,0.444709
2026-01-04T14:05:38.519793,3.560520,-8.183453,4.986642,-0.291993,0.164933,0.342084
2026-01-04T14:05:38.529793,3.728017,-9.451649,4.924428,-0.687834,0.081855,0.237015
2026-01-04T14:05:38.539793,3.909872,-10.767701,4.235296,-0.808785,0.014660,0.112399
2026-01-04T14:05:38.548793,4.192225,-11.576475,3.608376,-0.676838,-0.051312,-0.025656
2026-01-04T14:05:38.558793,4.575076,-11.782258,3.527020,-0.371405,-0.112399,-0.208915
2026-01-04T14:05:38.568793,4.876572,-11.533404,3.531806,-0.047647,-0.167377,-0.417831
2026-01-04T14:05:38.577793,5.379065,-10.887342,4.010370,0.244346,-0.237015,-0.676838
2026-01-04T14:05:38.587793,5.977270,-10.107282,3.996013,0.398284,-0.321315,-0.970053
2026-01-04T14:05:38.596793,6.757331,-9.580861,3.646661,0.400727,-0.417831,-1.293812
2026-01-04T14:05:38.606793,7.733602,-9.485148,3.469592,0.367740,-0.510683,-1.650557
2026-01-04T14:05:38.616793,8.877371,-9.470791,3.780659,0.344527,-0.572991,-1.986533
2026-01-04T14:05:38.625793,9.896714,-9.422935,3.924229,0.376292,-0.541226,-2.290744
2026-01-04T14:05:38.635793,10.456634,-9.121439,3.527020,0.467922,-0.403170,-2.530203
2026-01-04T14:05:38.644793,10.461420,-8.528019,2.727817,0.530230,-0.186924,-2.684141
2026-01-04T14:05:38.654793,9.844072,-7.733602,1.933400,0.466700,-0.007330,-2.772105
2026-01-04T14:05:38.664793,9.245866,-7.130611,2.187039,0.219911,0.023212,-2.814866
2026-01-04T14:05:38.673793,9.284151,-6.848258,3.354737,-0.240680,-0.085521,-2.869844
2026-01-04T14:05:38.683793,9.681360,-7.412964,2.574677,-0.979827,-0.248011,-2.813644
2026-01-04T14:05:38.693793,10.638489,-8.805587,2.038684,-1.550375,-0.350636,-2.835635
2026-01-04T14:05:38.702793,11.566904,-10.317851,2.120040,-1.720196,-0.311541,-2.901609
2026-01-04T14:05:38.712793,12.016755,-11.227123,1.560120,-1.610240,-0.105068,-2.919935
2026-01-04T14:05:38.721793,11.538190,-11.341979,0.784845,-1.188743,0.207694,-2.971247
2026-01-04T14:05:38.731793,10.332207,-10.202995,0.555134,-0.635299,0.469144,-3.061655
2026-01-04T14:05:38.741793,8.925228,-8.858229,0.598205,-0.282219,0.510683,-3.170389
2026-01-04T14:05:38.750793,7.963313,-7.901100,0.033499,-0.052534,0.326201,-3.357314
2026-01-04T14:05:38.760793,7.905885,-7.743173,0.435493,0.212581,-0.030543,-3.610212
2026-01-04T14:05:38.769793,8.997012,-8.111668,1.311266,0.475253,-0.450818,-3.886323
2026-01-04T14:05:38.779793,10.738987,-8.796015,0.765703,0.777020,-0.785572,-4.083022
2026-01-04T14:05:38.789793,12.672388,-8.977870,0.832702,1.227838,-0.905302,-4.221077
2026-01-04T14:05:38.798793,13.911870,-8.164310,0.799202,1.666440,-0.757472,-4.247955
2026-01-04T14:05:38.808793,13.916656,-6.393621,0.832702,1.854586,-0.455705,-4.140443
2026-01-04T14:05:38.818793,12.787243,-4.063012,0.832702,1.642005,-0.174707,-3.941301
2026-01-04T14:05:38.827793,11.284551,-2.120040,0.440279,0.962723,-0.087964,-3.718946
2026-01-04T14:05:38.837793,10.217352,-1.368694,0.315852,-0.009773,-0.265115,-3.550348
2026-01-04T14:05:38.846793,9.963713,-1.909472,0.535992,-0.961501,-0.648738,-3.414735
2026-01-04T14:05:38.856793,11.054840,-3.297309,1.086341,-1.759291,-1.121548,-3.308445
2026-01-04T14:05:38.866793,13.083953,-4.957928,2.440679,-2.244318,-1.450193,-3.218037
2026-01-04T14:05:38.875793,15.223137,-6.896114,2.565105,-2.480112,-1.496619,-3.110525
2026-01-04T14:05:38.885793,16.481762,-8.662017,2.411965,-2.285857,-1.160643,-2.977356
2026-01-04T14:05:38.894793,16.103697,-9.336793,2.086541,-1.648114,-0.544891,-2.867400
2026-01-04T14:05:38.904793,14.079368,-8.829515,1.272981,-0.810007,0.086742,-2.791653
2026-01-04T14:05:38.914793,11.399406,-7.479963,1.478764,-0.021991,0.419053,-2.736675
2026-01-04T14:05:38.923793,9.159724,-5.623133,1.569691,0.508239,0.357966,-2.711019
2026-01-04T14:05:38.933793,7.877171,-3.895515,1.445264,0.664621,-0.001221,-2.684141
2026-01-04T14:05:38.943793,7.881957,-2.569891,1.339980,0.531452,-0.452040,-2.673145
2026-01-04T14:05:38.952793,8.714659,-1.818545,1.182054,0.288328,-0.845437,-2.658484
2026-01-04T14:05:38.962793,10.179067,-1.162911,1.464407,-0.057421,-1.105665,-2.605950
2026-01-04T14:05:38.971793,11.600403,-1.167697,1.684547,-0.543669,-1.175304,-2.476447
2026-01-04T14:05:38.981793,12.342178,-1.842473,1.344766,-1.011592,-1.004262,-2.296852
2026-01-04T14:05:38.991793,11.978469,-2.670390,1.564905,-1.285260,-0.623082,-2.130697
2026-01-04T14:05:39.000793,10.624132,-3.402593,1.497906,-1.330464,-0.238237,-1.977981
2026-01-04T14:05:39.010793,8.762516,-3.780659,1.526620,-1.185078,-0.031764,-1.882686
2026-01-04T14:05:39.019793,7.288537,-3.938585,1.387837,-0.895528,-0.030543,-1.854586
2026-01-04T14:05:39.029793,6.336194,-3.661018,1.081555,-0.518013,-0.158824,-1.870468
2026-01-04T14:05:39.039793,6.106483,-3.091526,0.698704,-0.145385,-0.356745,-1.901012
2026-01-04T14:05:39.048793,6.441478,-2.239681,0.492921,0.134390,-0.575434,-1.908342
2026-01-04T14:05:39.058793,7.331608,-1.167697,0.416351,0.273667,-0.767246,-1.868025
2026-01-04T14:05:39.068793,8.437092,0.000000,1.253839,0.244346,-0.851545,-1.799608
2026-01-04T14:05:39.077793,9.250652,0.880558,1.004985,-0.095294,-0.767246,-1.643227
2026-01-04T14:05:39.087793,9.336793,1.263410,0.784845,-0.591317,-0.533896,-1.469741
2026-01-04T14:05:39.096793,8.776873,1.225125,0.847059,-1.059240,-0.257785,-1.336572
2026-01-04T14:05:39.106793,7.666603,0.698704,0.918843,-1.490510,-0.073303,-1.233947
2026-01-04T14:05:39.116793,6.585047,-0.397208,0.717846,-1.788613,-0.061086,-1.176526
2026-01-04T14:05:39.125793,5.953342,-1.909472,1.205982,-1.775174,-0.197920,-1.178969
2026-01-04T14:05:39.135793,5.900700,-3.029313,1.105484,-1.490510,-0.405614,-1.209512
2026-01-04T14:05:39.144793,6.417550,-3.574876,0.373280,-1.022588,-0.563217,-1.208291
2026-01-04T14:05:39.154793,7.063612,-3.426521,-0.124426,-0.445931,-0.601091,-1.186300
2026-01-04T14:05:39.164793,7.570890,-2.277967,-0.473778,0.123394,-0.503352,-1.141096
2026-01-04T14:05:39.173793,7.446463,-0.708275,0.057427,0.493579,-0.288328,-1.077566
2026-01-04T14:05:39.183793,6.896114,0.617348,0.449850,0.467922,-0.084299,-0.956614
2026-01-04T14:05:39.193793,6.197410,1.555334,0.660419,0.157603,0.020769,-0.829554
2026-01-04T14:05:39.202793,5.484349,1.909472,0.780060,-0.313984,0.013439,-0.717155
2026-01-04T14:05:39.212793,4.833501,0.483350,0.612562,-0.719599,-0.076969,-0.733038
2026-01-04T14:05:39.221793,4.977071,0.756131,0.866201,-1.149648,-0.298102,-0.913854
2026-01-04T14:05:39.231793,5.398207,0.823130,1.043270,-1.337794,-0.497244,-0.860098
2026-01-04T14:05:39.241793,5.915057,-0.674775,1.000199,-1.332907,-0.612086,-0.521678
2026-01-04T14:05:39.250793,6.599404,-0.971485,0.990628,-1.142317,-0.594982,-0.392175
2026-01-04T14:05:39.260793,6.924828,-0.851844,1.000199,-0.912632,-0.458148,-0.293215
2026-01-04T14:05:39.269793,6.728617,-0.588634,0.674775,-0.734259,-0.249232,-0.177150
2026-01-04T14:05:39.279793,6.068198,-0.421136,0.593420,-0.612086,-0.030543,-0.134390
2026-01-04T14:05:39.289793,5.321637,-0.325423,0.646062,-0.538783,0.097738,-0.200363
2026-01-04T14:05:39.298793,4.876572,-0.023928,0.631705,-0.486248,0.100181,-0.337197
2026-01-04T14:05:39.308793,3.933800,1.641476,3.637090,-0.565661,-0.008552,-0.401949
2026-01-04T14:05:39.318793,4.852644,0.143569,1.684547,-0.643851,-0.283441,-0.279776
2026-01-04T14:05:39.327793,5.508277,-0.330209,1.703689,-0.632856,-0.516791,-0.215024
2026-01-04T14:05:39.337793,6.594619,-0.650847,1.761117,-0.516791,-0.684168,-0.212581
2026-01-04T14:05:39.346793,7.709674,-0.890130,1.598405,-0.349414,-0.748920,-0.199142
2026-01-04T14:05:39.356793,8.719445,-0.856630,1.368694,-0.136833,-0.681725,-0.185702
2026-01-04T14:05:39.366793,9.327222,-0.756131,1.043270,0.108733,-0.537561,-0.172263
2026-01-04T14:05:39.375793,9.667003,-0.277567,1.043270,0.315206,-0.378736,-0.160046
2026-01-04T14:05:39.385793,9.805787,-0.057427,0.947557,0.428827,-0.256563,-0.139277
2026-01-04T14:05:39.394793,9.762716,0.124426,0.837487,0.481361,-0.179594,-0.182037
2026-01-04T14:05:39.404793,9.853643,0.497707,1.024128,0.480139,-0.134390,-0.300545
2026-01-04T14:05:39.414793,10.016355,1.124626,1.225125,0.426383,-0.141720,-0.333532
2026-01-04T14:05:39.423793,10.121639,1.990828,1.526620,0.399505,-0.149051,-0.135612
2026-01-04T14:05:39.433793,10.174281,1.373480,2.024327,0.327423,-0.120951,0.063529
2026-01-04T14:05:39.443793,10.193424,1.378265,1.828116,0.200363,-0.058643,0.153938
2026-01-04T14:05:39.452793,10.121639,1.339980,1.378265,0.101403,0.035430,0.211359
2026-01-04T14:05:39.462793,9.920642,1.450050,1.191625,0.035430,0.103847,0.260228
2026-01-04T14:05:39.471793,9.719645,1.507478,1.105484,-0.048869,0.127059,0.310319
2026-01-04T14:05:39.481793,9.619146,1.598405,1.105484,-0.128281,0.131946,0.348193
2026-01-04T14:05:39.491793,9.509077,1.631905,1.129412,-0.211359,0.139277,0.395840
2026-01-04T14:05:39.500793,9.475577,1.363908,1.158126,-0.302989,0.141720,0.442266
2026-01-04T14:05:39.510793,9.470791,0.961914,1.301695,-0.338419,0.131946,0.487470
2026-01-04T14:05:39.519793,9.513862,0.684347,1.229910,-0.311541,0.111177,0.524122
2026-01-04T14:05:39.529793,9.585647,0.449850,1.311266,-0.232128,0.086742,0.549778
2026-01-04T14:05:39.539793,9.772287,0.287138,1.593619,-0.133168,0.061086,0.557108
2026-01-04T14:05:39.548793,10.045069,0.129212,1.631905,-0.050090,0.056199,0.572991
2026-01-04T14:05:39.558793,10.260423,0.019142,1.545763,0.026878,0.087964,0.592539
2026-01-04T14:05:39.568793,10.336993,-0.062213,1.430907,0.096516,0.164933,0.626747
2026-01-04T14:05:39.577793,10.236495,-0.153140,1.201196,0.153938,0.267558,0.681725
2026-01-04T14:05:39.587793,9.868000,-0.330209,1.134197,0.158824,0.372627,0.745255
2026-01-04T14:05:39.596793,9.399007,-0.617348,1.277767,0.120951,0.441044,0.827111
2026-01-04T14:05:39.606793,8.930013,-0.808774,1.287338,0.091629,0.460592,0.956614
2026-01-04T14:05:39.616793,8.662017,-1.043270,1.306481,0.085521,0.433714,1.169195
2026-01-04T14:05:39.625793,8.556733,-1.368694,1.440479,0.123394,0.377514,1.457524
2026-01-04T14:05:39.635793,5.934200,-0.813559,1.009771,0.193033,0.335975,1.045801
2026-01-04T14:05:39.644793,11.064411,0.167497,1.383051,0.340862,0.244346,1.111774
2026-01-04T14:05:39.654793,8.618947,-2.732603,1.215553,0.428827,0.219911,1.287703
2026-01-04T14:05:39.664793,9.040083,-2.273181,0.899701,0.516791,0.254119,1.359785
2026-01-04T14:05:39.673793,8.815158,-2.230110,0.904486,0.642630,0.331088,1.406211
2026-01-04T14:05:39.683793,8.628518,-1.962114,0.784845,0.728151,0.410501,1.441641
2026-01-04T14:05:39.693793,8.226524,-1.852044,0.502492,0.768468,0.485026,1.473406
2026-01-04T14:05:39.702793,7.905885,-1.641476,0.459421,0.797789,0.564439,1.505171
2026-01-04T14:05:39.712793,7.350751,-1.421336,0.516849,0.780685,0.646295,1.552819
2026-01-04T14:05:39.721793,6.738188,-1.210768,0.746560,0.718377,0.703716,1.617570
2026-01-04T14:05:39.731793,6.116054,-0.990628,1.000199,0.624304,0.708603,1.693318
2026-01-04T14:05:39.741793,5.685346,-0.832702,0.909272,0.439822,0.637743,1.799608
2026-01-04T14:05:39.750793,5.431707,-1.215553,0.880558,0.240680,0.504574,1.901012
2026-01-04T14:05:39.760793,5.599204,-1.832902,0.803988,0.145385,0.337197,1.991420
2026-01-04T14:05:39.769793,5.982056,-2.402393,0.502492,0.194255,0.184481,2.064724
2026-01-04T14:05:39.779793,6.455835,-2.813959,0.698704,0.386066,0.113620,2.097710
2026-01-04T14:05:39.789793,6.929614,-2.837887,0.550349,0.664621,0.140498,2.119701
2026-01-04T14:05:39.798793,7.087540,-2.555534,0.004785,0.967610,0.255341,2.131919
2026-01-04T14:05:39.808793,6.853043,-1.990828,0.028713,1.232725,0.410501,2.131919
2026-01-04T14:05:39.818793,6.436692,-1.162911,0.028713,1.392772,0.521678,2.147801
2026-01-04T14:05:39.827793,6.049055,-0.473778,0.090927,1.408654,0.520457,2.163684
2026-01-04T14:05:39.837793,5.948556,0.066999,0.071784,1.258382,0.392175,2.169792
2026-01-04T14:05:39.846793,6.307480,0.033499,-0.105284,0.987158,0.174707,2.180788
2026-01-04T14:05:39.856793,7.164110,-0.244067,-0.052642,0.706160,-0.031764,2.199114
2026-01-04T14:05:39.866793,8.011170,-0.751346,-0.028713,0.445931,-0.152716,2.228435
2026-01-04T14:05:39.875793,8.776873,-1.196411,-0.129212,0.230907,-0.149051,2.258979
2026-01-04T14:05:39.885793,9.092725,-1.751546,-0.282353,0.118507,-0.029321,2.283413
2026-01-04T14:05:39.894793,8.796015,-2.072184,-0.105284,0.125838,0.157603,2.291965
2026-01-04T14:05:39.904793,8.207381,-2.258824,0.301495,0.168598,0.293215,2.283413
2026-01-04T14:05:39.914793,7.628318,-2.627319,0.339780,0.223576,0.307876,2.258979
2026-01-04T14:05:39.923793,7.460820,-2.904886,0.215354,0.312762,0.208915,2.221105
2026-01-04T14:05:39.933793,7.733602,-3.302095,-0.038285,0.438601,0.081855,2.184453
2026-01-04T14:05:39.943793,8.106882,-3.594019,-0.244067,0.590095,-0.002443,2.166127
2026-01-04T14:05:39.952793,8.618947,-3.541377,-0.143569,0.747698,-0.020769,2.155132
2026-01-04T14:05:39.962793,8.858229,-3.220739,0.043070,0.822224,0.020769,2.168571
2026-01-04T14:05:39.971793,8.843872,-2.938386,0.215354,0.777020,0.108733,2.182010
2026-01-04T14:05:39.981793,8.422735,-2.823530,0.129212,0.631634,0.213802,2.182010
2026-01-04T14:05:39.991793,7.666603,-3.072384,-0.177068,0.448374,0.263893,2.160019
2026-01-04T14:05:40.000793,7.073183,-3.622733,-0.267996,0.327423,0.175929,2.098932
2026-01-04T14:05:40.010793,6.924828,-4.335794,0.220139,0.335975,-0.052534,1.995085
2026-01-04T14:05:40.019793,7.393821,-5.201996,1.048056,0.439822,-0.322536,1.879021
2026-01-04T14:05:40.029793,8.288737,-5.895914,1.229910,0.623082,-0.491135,1.772730
2026-01-04T14:05:40.039793,9.312865,-6.398407,0.990628,0.866206,-0.478918,1.721417
2026-01-04T14:05:40.048793,10.011569,-6.101697,0.794417,1.121548,-0.289550,1.718974
2026-01-04T14:05:40.058793,9.944570,-5.249852,0.593420,1.233947,-0.031764,1.772730
2026-01-04T14:05:40.068793,9.475577,-4.063012,1.067198,1.115439,0.146607,1.822821
2026-01-04T14:05:40.077793,8.901300,-3.383451,1.344766,0.712268,0.180816,1.859473
2026-01-04T14:05:40.087793,8.537591,-3.708875,1.215553,0.111177,0.054977,1.899790
2026-01-04T14:05:40.096793,8.695517,-4.953142,1.249053,-0.403170,-0.171042,1.902233
2026-01-04T14:05:40.106793,9.231509,-6.613761,1.411765,-0.625525,-0.398284,1.860695
2026-01-04T14:05:40.116793,10.140782,-8.159525,1.837687,-0.537561,-0.540004,1.808160
2026-01-04T14:05:40.125793,11.040483,-9.437292,2.254038,-0.230907,-0.547335,1.748295
2026-01-04T14:05:40.135793,11.662617,-10.150353,2.220539,0.277332,-0.408057,1.721417
2026-01-04T14:05:40.144793,11.839686,-10.011569,1.880758,0.827111,-0.173485,1.747074
2026-01-04T14:05:40.154793,11.571690,-9.068797,1.746760,1.280373,0.080634,1.798386
2026-01-04T14:05:40.164793,11.035697,-7.604390,1.890329,1.497841,0.276111,1.869247
2026-01-04T14:05:40.173793,10.327422,-6.029912,2.230110,1.364672,0.350636,1.957211
2026-01-04T14:05:40.183793,9.930213,-4.972285,2.612962,0.895528,0.312762,2.032959
2026-01-04T14:05:40.193793,9.724431,-5.024927,2.512463,0.215024,0.204028,2.112371
2026-01-04T14:05:40.202793,9.738787,-6.183053,2.392822,-0.423940,0.112399,2.167349
2026-01-04T14:05:40.212793,9.777073,-7.733602,2.325823,-0.795346,0.081855,2.195449
2026-01-04T14:05:40.221793,9.652646,-9.116654,2.344966,-0.844215,0.113620,2.193005
2026-01-04T14:05:40.231793,9.217152,-9.958927,2.411965,-0.636521,0.199142,2.167349
2026-01-04T14:05:40.241793,8.690731,-10.260423,2.541177,-0.268780,0.293215,2.139249
2026-01-04T14:05:40.250793,7.987241,-9.944570,2.421536,0.095294,0.355523,2.118480
2026-01-04T14:05:40.260793,7.393821,-9.485148,2.182254,0.335975,0.344527,2.106262
2026-01-04T14:05:40.269793,7.068397,-8.757730,2.344966,0.469144,0.252898,2.079384
2026-01-04T14:05:40.279793,7.030112,-7.958527,2.498106,0.398284,0.155159,2.070832
2026-01-04T14:05:40.289793,6.972685,-7.479963,2.440679,0.125838,0.112399,2.057393
2026-01-04T14:05:40.298793,6.829115,-7.432106,2.560320,-0.259006,0.114842,2.029293
2026-01-04T14:05:40.308793,6.652046,-8.226524,2.756531,-0.706160,0.116064,1.990198
2026-01-04T14:05:40.318793,6.427121,-9.676574,2.402393,-1.060461,0.118507,1.943772
2026-01-04T14:05:40.327793,6.173482,-11.059626,2.206182,-1.139874,0.127059,1.883908
2026-01-04T14:05:40.337793,5.905486,-12.260823,2.344966,-0.983492,0.129503,1.794721
2026-01-04T14:05:40.346793,5.570491,-12.997812,1.966900,-0.668286,0.122173,1.718974
2026-01-04T14:05:40.356793,5.302494,-13.069597,1.641476,-0.235793,0.111177,1.633453
2026-01-04T14:05:40.366793,5.144568,-12.595818,1.512263,0.178372,0.074525,1.505171
2026-01-04T14:05:40.375793,5.182853,-11.724830,1.555334,0.450818,0.000000,1.393994
2026-01-04T14:05:40.385793,5.350351,-10.753344,1.852044,0.551000,-0.065973,1.282816
2026-01-04T14:05:40.394793,5.618347,-9.915856,2.421536,0.453261,-0.081855,1.176526
2026-01-04T14:05:40.404793,5.728417,-9.566504,2.589034,0.128281,-0.051312,1.127656
2026-01-04T14:05:40.414793,5.867201,-9.686145,2.799602,-0.300545,0.009773,1.115439
2026-01-04T14:05:40.423793,5.642275,-10.442277,2.593819,-0.697607,0.091629,1.103222
2026-01-04T14:05:40.433793,5.321637,-11.499905,2.258824,-0.983492,0.158824,1.103222
2026-01-04T14:05:40.443793,4.895715,-12.418749,2.201396,-1.045801,0.216246,1.065348
2026-01-04T14:05:40.452793,4.378865,-12.835100,1.947757,-0.879645,0.265115,0.977384
2026-01-04T14:05:40.462793,3.838087,-12.672388,1.641476,-0.599869,0.280997,0.830776
2026-01-04T14:05:40.471793,3.469592,-12.145967,1.866401,-0.331088,0.228463,0.641408
2026-01-04T14:05:40.481793,3.579662,-11.586047,2.431107,-0.146607,0.095294,0.409279
2026-01-04T14:05:40.491793,4.197010,-11.279765,2.833101,-0.040317,-0.064751,0.124616
2026-01-04T14:05:40.500793,5.288137,-11.294122,3.115455,0.058643,-0.151494,-0.173485
2026-01-04T14:05:40.510793,6.398407,-11.351550,3.474378,0.235793,-0.094073,-0.488692
2026-01-04T14:05:40.519793,7.044469,-11.093125,2.971885,0.432492,0.089186,-0.785572
2026-01-04T14:05:40.529793,7.307680,-10.676774,2.737389,0.579100,0.310319,-1.050687
2026-01-04T14:05:40.539793,7.058826,-9.944570,2.737389,0.690277,0.481361,-1.313359
2026-01-04T14:05:40.548793,6.685546,-8.882157,2.708675,0.684168,0.537561,-1.572366
2026-01-04T14:05:40.558793,6.297909,-8.102097,2.340180,0.548556,0.480139,-1.848477
2026-01-04T14:05:40.568793,6.206981,-7.403393,2.522035,0.373849,0.328645,-2.125810
2026-01-04T14:05:40.577793,6.647261,-6.991827,3.129811,0.150272,0.133168,-2.417804
2026-01-04T14:05:40.587793,7.489534,-6.843472,3.163311,-0.138055,-0.042760,-2.684141
2026-01-04T14:05:40.596793,8.484948,-6.757331,3.038884,-0.387288,-0.118507,-2.955365
2026-01-04T14:05:40.606793,9.437292,-6.934399,2.545963,-0.647517,-0.074525,-3.192381
2026-01-04T14:05:40.616793,10.317851,-7.479963,1.942971,-0.984714,0.025656,-3.348762
2026-01-04T14:05:40.625793,10.944770,-8.585447,1.339980,-1.291368,0.119729,-3.459939
2026-01-04T14:05:40.635793,11.365907,-9.925428,0.856630,-1.455080,0.179594,-3.538130
2026-01-04T14:05:40.644793,11.676974,-11.509476,0.502492,-1.478293,0.224798,-3.571117
2026-01-04T14:05:40.654793,11.710473,-12.811172,0.129212,-1.291368,0.252898,-3.571117
2026-01-04T14:05:40.664793,11.471191,-13.361521,-0.066999,-0.797789,0.261450,-3.585778
2026-01-04T14:05:40.673793,10.973484,-12.792029,0.736989,-0.163711,0.232128,-3.633425
2026-01-04T14:05:40.683793,10.552347,-11.356336,1.445264,0.361632,0.166155,-3.667634
2026-01-04T14:05:40.693793,10.289137,-9.279366,2.019542,0.685390,0.047647,-3.714059
2026-01-04T14:05:40.702793,10.394421,-7.116254,2.086541,0.742811,-0.081855,-3.783698
2026-01-04T14:05:40.712793,10.499705,-5.134997,0.703489,0.627969,-0.140498,-3.876549
2026-01-04T14:05:40.721793,10.715059,-3.661018,0.296710,0.421496,-0.123394,-3.997501
2026-01-04T14:05:40.731793,10.767701,-2.785245,-0.076570,-0.024434,-0.078190,-4.100126
2026-01-04T14:05:40.741793,10.911271,-3.249453,-0.937986,-0.681725,-0.129503,-4.106235
2026-01-04T14:05:40.750793,11.653046,-4.857429,0.339780,-1.215621,-0.237015,-4.021935
2026-01-04T14:05:40.760793,12.839886,-6.905686,0.971485,-1.722639,-0.426383,-3.837454
2026-01-04T14:05:40.769793,13.950155,-9.174081,1.249053,-1.969429,-0.509461,-3.615099
2026-01-04T14:05:40.779793,14.438291,-11.179267,1.746760,-1.717752,-0.343306,-3.419622
2026-01-04T14:05:40.789793,13.959727,-11.777472,1.971685,-1.058018,-0.037873,-3.219259
2026-01-04T14:05:40.798793,12.729816,-10.963913,1.890329,-0.305432,0.185702,-3.056769
2026-01-04T14:05:40.808793,11.361121,-9.198010,1.737189,0.421496,0.298102,-2.984686
2026-01-04T14:05:40.818793,9.958927,-6.824330,0.803988,0.976162,0.315206,-2.937039
2026-01-04T14:05:40.827793,8.609375,-4.512863,0.110069,1.271821,0.261450,-2.938261
2026-01-04T14:05:40.837793,7.843672,-2.727817,-0.047856,1.288925,0.127059,-2.949256
2026-01-04T14:05:40.846793,7.566105,-1.306481,0.602991,1.059240,-0.070860,-2.973691
2026-01-04T14:05:40.856793,7.685746,-0.550349,0.488135,0.629191,-0.307876,-2.974913
2026-01-04T14:05:40.866793,8.188238,-0.425922,0.220139,0.087964,-0.577878,-2.929709
2026-01-04T14:05:40.875793,9.064012,-0.775274,0.110069,-0.411723,-0.802676,-2.873509
2026-01-04T14:05:40.885793,9.944570,-1.421336,0.416351,-0.817337,-0.910189,-2.805092
2026-01-04T14:05:40.894793,10.762916,-2.100898,1.014556,-1.059240,-0.907745,-2.740340
2026-01-04T14:05:40.904793,11.351550,-2.670390,1.526620,-1.115439,-0.805120,-2.682919
2026-01-04T14:05:40.914793,11.523833,-3.263810,1.942971,-1.040914,-0.613308,-2.619389
2026-01-04T14:05:40.923793,11.447263,-3.823730,2.407179,-0.788015,-0.368962,-2.555859
2026-01-04T14:05:40.933793,11.054840,-4.072584,2.143969,-0.516791,-0.179594,-2.491107
2026-01-04T14:05:40.943793,10.293922,-3.455235,1.584048,-0.169820,0.013439,-2.431243
2026-01-04T14:05:40.952793,9.542576,-2.574677,0.928415,0.111177,0.133168,-2.373821
2026-01-04T14:05:40.962793,8.882157,-1.603191,0.459421,0.219911,0.130725,-2.298074
2026-01-04T14:05:40.971793,8.551947,-0.832702,0.167497,0.177150,0.058643,-2.202779
2026-01-04T14:05:40.981793,8.341379,-0.167497,0.205782,-0.003665,-0.028099,-2.080606
2026-01-04T14:05:40.991793,8.437092,0.153140,0.703489,-0.280997,-0.111177,-1.948659
2026-01-04T14:05:41.000793,8.566304,0.311066,0.971485,-0.642630,-0.184481,-1.805717
2026-01-04T14:05:41.010793,8.681160,0.138783,0.827916,-1.005483,-0.237015,-1.667661
2026-01-04T14:05:41.019793,8.776873,-0.277567,0.684347,-1.255938,-0.267558,-1.555262
2026-01-04T14:05:41.029793,8.796015,-0.966700,0.990628,-1.376889,-0.267558,-1.472184
2026-01-04T14:05:41.039793,8.614161,-1.703689,1.258624,-1.332907,-0.235793,-1.403768
2026-01-04T14:05:41.048793,8.475377,-2.373680,1.560120,-1.132543,-0.173485,-1.357342
2026-01-04T14:05:41.058793,8.097311,-2.799602,1.703689,-0.863763,-0.114842,-1.308473
2026-01-04T14:05:41.068793,7.795816,-3.019742,1.081555,-0.526565,-0.050090,-1.248608
2026-01-04T14:05:41.077793,7.427321,-2.790031,0.492921,-0.138055,-0.002443,-1.185078
2026-01-04T14:05:41.087793,7.044469,-2.478964,0.244067,0.246789,-0.002443,-1.136209
2026-01-04T14:05:41.096793,6.786044,-1.794616,0.143569,0.571769,-0.058643,-1.080009
2026-01-04T14:05:41.106793,6.642475,-0.937986,0.287138,0.758694,-0.128281,-1.016479
2026-01-04T14:05:41.116793,6.594619,-0.028713,0.454636,0.777020,-0.190589,-0.943175
2026-01-04T14:05:41.125793,6.608976,0.727418,0.832702,0.637743,-0.238237,-0.850324
2026-01-04T14:05:41.135793,6.652046,1.110269,1.129412,0.383623,-0.272445,-0.752585
2026-01-04T14:05:41.144793,6.685546,1.201196,1.512263,0.116064,-0.255341,-0.659734
2026-01-04T14:05:41.154793,6.599404,1.134197,1.258624,-0.112399,-0.166155,-0.560774
2026-01-04T14:05:41.164793,6.163911,1.100698,0.746560,-0.299323,0.014660,-0.465479
2026-01-04T14:05:41.173793,5.273781,1.004985,0.679561,-0.445931,0.218689,-0.392175
2026-01-04T14:05:41.183793,4.225724,0.899701,0.780060,-0.587652,0.343306,-0.335975
2026-01-04T14:05:41.193793,3.278166,0.483350,0.689132,-0.728151,0.346971,-0.290771
2026-01-04T14:05:41.202793,2.579462,-0.019142,0.588634,-0.795346,0.234572,-0.266337
2026-01-04T14:05:41.212793,2.297109,-0.559920,0.765703,-0.756251,0.029321,-0.267558
2026-01-04T14:05:41.221793,2.522035,-0.832702,0.717846,-0.625525,-0.228463,-0.273667
2026-01-04T14:05:41.231793,3.297309,-0.847059,0.832702,-0.433714,-0.488692,-0.280997
2026-01-04T14:05:41.241793,4.484149,-0.847059,1.186840,-0.263893,-0.690277,-0.287106
2026-01-04T14:05:41.250793,5.737988,-0.717846,1.244267,-0.145385,-0.778242,-0.280997
2026-01-04T14:05:41.260793,6.886543,-0.440279,0.890130,-0.025656,-0.724486,-0.276111
2026-01-04T14:05:41.269793,7.609175,-0.315852,0.875773,0.063529,-0.580321,-0.290771
2026-01-04T14:05:41.279793,8.035098,-0.354137,0.832702,0.102625,-0.438601,-0.289550
2026-01-04T14:05:41.289793,8.255237,-0.368494,0.650847,0.135612,-0.350636,-0.273667
2026-01-04T14:05:41.298793,8.556733,-0.378065,0.521635,0.201585,-0.334754,-0.265115
2026-01-04T14:05:41.308793,8.963513,-0.378065,0.631705,0.282219,-0.390953,-0.259006
2026-01-04T14:05:41.318793,9.590432,-0.296710,0.646062,0.360410,-0.477696,-0.237015
2026-01-04T14:05:41.327793,10.475777,-0.143569,0.684347,0.431270,-0.544891,-0.204028
2026-01-04T14:05:41.337793,11.227123,0.162711,0.856630,0.477696,-0.537561,-0.140498
2026-01-04T14:05:41.346793,11.715259,0.473778,1.138983,0.487470,-0.412944,-0.065973
2026-01-04T14:05:41.356793,11.686545,0.746560,1.306481,0.430049,-0.188146,0.036651
2026-01-04T14:05:41.366793,11.097911,0.923629,1.521835,0.338419,0.062308,0.151494
2026-01-04T14:05:41.375793,10.088140,1.000199,1.631905,0.255341,0.238237,0.251676
2026-01-04T14:05:41.385793,9.059226,0.780060,1.761117,0.182037,0.277332,0.270002
2026-01-04T14:05:41.394793,8.551947,0.808774,1.593619,0.141720,0.174707,0.180816
2026-01-04T14:05:41.404793,8.580661,1.110269,1.564905,0.127059,0.007330,0.056199
2026-01-04T14:05:41.414793,8.987441,2.067398,1.497906,0.100181,-0.145385,0.041538
2026-01-04T14:05:41.423793,9.446863,2.531606,1.521835,0.087964,-0.204028,0.351858
2026-01-04T14:05:41.433793,9.939785,1.938186,1.569691,0.019547,-0.162490,0.587652
2026-01-04T14:05:41.443793,10.222138,2.029113,1.694118,-0.068416,-0.073303,0.684168
2026-01-04T14:05:41.452793,10.260423,2.153540,1.718046,-0.173485,0.045204,0.748920
2026-01-04T14:05:41.462793,9.963713,1.914258,1.866401,-0.320093,0.182037,0.811228
2026-01-04T14:05:41.471793,9.494720,1.526620,2.033899,-0.417831,0.296880,0.856432
2026-01-04T14:05:41.481793,9.011369,1.196411,2.043470,-0.455705,0.340862,0.874758
2026-01-04T14:05:41.491793,8.733802,0.727418,1.885544,-0.461814,0.283441,0.878424
2026-01-04T14:05:41.500793,8.934799,0.229710,1.722832,-0.394618,0.162490,0.868650
2026-01-04T14:05:41.510793,9.379864,-0.038285,1.679761,-0.260228,0.061086,0.880867
2026-01-04T14:05:41.519793,9.963713,-0.081355,1.517049,-0.090408,0.019547,0.956614
2026-01-04T14:05:41.529793,10.351350,-0.272781,1.421336,0.095294,0.043982,1.060461
2026-01-04T14:05:41.539793,10.552347,-0.516849,1.517049,0.223576,0.142942,1.059240
2026-01-04T14:05:41.548793,10.581061,-0.062213,1.277767,0.313984,0.272445,0.978605
2026-01-04T14:05:41.558793,10.025926,0.138783,1.402194,0.371405,0.420275,0.974940
2026-01-04T14:05:41.568793,9.327222,0.215354,1.359123,0.372627,0.527787,1.000597
2026-01-04T14:05:41.577793,8.590233,0.229710,1.320838,0.362853,0.540004,1.018923
2026-01-04T14:05:41.587793,8.231309,0.162711,1.373480,0.342084,0.489913,1.043357
2026-01-04T14:05:41.596793,7.948956,-0.023928,1.215553,0.276111,0.420275,1.072679
2026-01-04T14:05:41.606793,7.901100,-0.349352,1.205982,0.201585,0.349414,1.112996
2026-01-04T14:05:41.616793,8.006384,-0.760917,1.134197,0.155159,0.265115,1.174082
2026-01-04T14:05:41.625793,8.288737,-0.880558,0.971485,0.114842,0.125838,1.274264
2026-01-04T14:05:41.635793,8.934799,-0.665204,0.708275,0.097738,-0.032986,1.480737
2026-01-04T14:05:41.644793,9.461220,-0.717846,0.626919,0.118507,-0.122173,1.767843
2026-01-04T14:05:41.654793,8.039883,-0.914058,0.000000,0.183259,0.042760,1.517388
2026-01-04T14:05:41.664793,9.872786,-0.177068,0.713061,0.324980,0.271224,1.467297
2026-01-04T14:05:41.673793,8.700302,-0.095712,0.507278,0.371405,0.461814,1.706757
2026-01-04T14:05:41.683793,6.632904,-1.526620,-0.502492,0.123394,0.570548,1.700648
2026-01-04T14:05:41.693793,7.446463,-0.397208,0.387637,0.232128,0.575434,1.756848
2026-01-04T14:05:41.702793,6.412764,-0.272781,0.421136,0.348193,0.635299,1.742187
2026-01-04T14:05:41.712793,5.618347,-0.784845,0.526420,0.489913,0.662177,1.764178
2026-01-04T14:05:41.721793,5.235495,-0.808774,0.531206,0.596204,0.580321,1.810604
2026-01-04T14:05:41.731793,5.211567,-0.823130,0.574277,0.608421,0.422718,1.857029
2026-01-04T14:05:41.741793,5.359922,-0.914058,0.464207,0.502131,0.246789,1.903455
2026-01-04T14:05:41.750793,5.651846,-1.009771,0.071784,0.422718,0.145385,1.959655
2026-01-04T14:05:41.760793,5.685346,-0.966700,0.138783,0.472809,0.171042,2.032959
2026-01-04T14:05:41.769793,5.632704,-0.894915,0.473778,0.510683,0.233350,2.120923
2026-01-04T14:05:41.779793,5.613561,-1.081555,0.507278,0.445931,0.219911,2.178344
2026-01-04T14:05:41.789793,5.637490,-1.478764,0.473778,0.411723,0.155159,2.193005
2026-01-04T14:05:41.798793,5.828915,-1.818545,0.473778,0.500909,0.021991,2.190562
2026-01-04T14:05:41.808793,6.498906,-2.115255,0.775274,0.697607,-0.138055,2.163684
2026-01-04T14:05:41.818793,7.369893,-2.273181,0.698704,0.774576,-0.305432,2.109928
2026-01-04T14:05:41.827793,8.293523,-2.206182,-0.177068,0.814894,-0.365297,2.051285
2026-01-04T14:05:41.837793,8.719445,-1.880758,-0.220139,0.806341,-0.338419,1.991420
2026-01-04T14:05:41.846793,8.886943,-1.392622,-0.177068,0.630412,-0.315206,1.946216
2026-01-04T14:05:41.856793,8.413164,-1.153340,0.157926,0.853989,0.075747,2.003637
2026-01-04T14:05:41.866793,8.015955,-0.808774,0.512064,0.867428,0.335975,2.032959
2026-01-04T14:05:41.875793,7.293323,-0.813559,0.636490,0.635299,0.421496,2.085493
2026-01-04T14:05:41.885793,6.709474,-1.493121,0.550349,0.366519,0.395840,2.135584
2026-01-04T14:05:41.894793,6.532405,-2.943171,0.497707,0.295658,0.287106,2.136806
2026-01-04T14:05:41.904793,6.527620,-4.364508,0.894915,0.459370,0.090408,2.073276
2026-01-04T14:05:41.914793,7.326822,-7.030112,0.823130,0.332310,-0.142942,2.001194
2026-01-04T14:05:41.923793,7.853243,-5.345565,0.669990,0.693942,-0.260228,1.926668
2026-01-04T14:05:41.933793,8.437092,-5.379065,0.339780,1.121548,-0.218689,1.879021
2026-01-04T14:05:41.943793,8.566304,-4.656432,0.143569,1.351233,-0.129503,1.852143
2026-01-04T14:05:41.952793,8.494520,-3.603590,-0.138783,1.368337,-0.020769,1.874134
2026-01-04T14:05:41.962793,8.212167,-2.531606,-0.023928,1.352455,0.151494,1.918116
2026-01-04T14:05:41.971793,7.642675,-1.698904,1.124626,1.161865,0.317649,1.966985
2026-01-04T14:05:41.981793,7.374679,-1.464407,1.129412,0.616973,0.311541,2.032959
2026-01-04T14:05:41.991793,6.795616,-1.253839,4.130011,-0.059864,0.153938,2.095267
2026-01-04T14:05:42.000793,7.312465,-4.800002,0.617348,-0.682947,-0.167377,2.067167
2026-01-04T14:05:42.010793,7.795816,-6.518048,0.354137,-0.872315,-0.427605,2.026850
2026-01-04T14:05:42.019793,8.609375,-8.260023,0.239282,-0.656069,-0.571769,1.965763
2026-01-04T14:05:42.029793,9.140582,-9.810572,0.583848,-0.001221,-0.570548,1.908342
2026-01-04T14:05:42.039793,9.552147,-10.179067,0.808774,0.709825,-0.520457,1.881464
2026-01-04T14:05:42.048793,9.820143,-9.949356,0.200997,1.235169,-0.444709,1.925446
2026-01-04T14:05:42.058793,9.762716,-8.867800,-0.028713,1.596801,-0.361632,2.031737
2026-01-04T14:05:42.068793,9.662217,-7.159325,-0.043070,1.747074,-0.284663,2.155132
2026-01-04T14:05:42.077793,9.384650,-5.632704,0.646062,1.469741,-0.261450,2.279748
2026-01-04T14:05:42.087793,9.533005,-5.307280,0.435493,0.797789,-0.383623,2.370156
2026-01-04T14:05:42.096793,9.796215,-5.623133,0.818345,0.161268,-0.510683,2.432464
2026-01-04T14:05:42.106793,10.226923,-6.628118,1.057627,-0.476474,-0.612086,2.515542
2026-01-04T14:05:42.116793,10.681560,-7.992027,1.239482,-0.949284,-0.651182,2.587624
2026-01-04T14:05:42.125793,10.834700,-9.418149,1.296909,-1.219286,-0.642630,2.654819
2026-01-04T14:05:42.135793,10.906485,-10.767701,1.354337,-1.220508,-0.569326,2.722014
2026-01-04T14:05:42.144793,10.423135,-12.246466,2.531606,-1.160643,-0.511904,2.774549
2026-01-04T14:05:42.154793,10.150353,-12.524033,2.311466,-0.938288,-0.427605,2.825862
2026-01-04T14:05:42.164793,9.561719,-12.595818,1.473978,-0.631634,-0.337197,2.932152
2026-01-04T14:05:42.173793,8.925228,-12.375678,0.650847,-0.340862,-0.327423,3.054325
2026-01-04T14:05:42.183793,8.432306,-11.413763,0.344566,-0.061086,-0.436157,3.130072
2026-01-04T14:05:42.193793,8.121239,-10.188638,1.765903,0.199142,-0.561995,3.114190
2026-01-04T14:05:42.202793,8.250452,-9.169296,2.110469,0.266337,-0.654847,3.026225
2026-01-04T14:05:42.212793,8.346165,-8.724231,2.536391,0.200363,-0.658512,2.921156
2026-01-04T14:05:42.221793,8.350950,-8.829515,2.847458,0.112399,-0.572991,2.758666
2026-01-04T14:05:42.231793,8.303094,-9.403792,2.775674,-0.014660,-0.459370,2.581515
2026-01-04T14:05:42.241793,8.073383,-10.126425,2.608176,-0.068416,-0.354301,2.416582
2026-01-04T14:05:42.250793,7.752745,-10.351350,2.277967,-0.030543,-0.265115,2.302961
2026-01-04T14:05:42.260793,7.135396,-10.126425,2.033899,0.002443,-0.185702,2.191784
2026-01-04T14:05:42.269793,6.412764,-9.643075,1.746760,0.007330,-0.129503,2.058615
2026-01-04T14:05:42.279793,5.503491,-9.102297,1.483550,-0.026878,-0.118507,1.904677
2026-01-04T14:05:42.289793,4.713860,-9.121439,1.344766,-0.168598,-0.182037,1.760513
2026-01-04T14:05:42.298793,4.340580,-9.729216,1.584048,-0.309097,-0.304210,1.599244
2026-01-04T14:05:42.308793,4.340580,-10.935199,1.938186,-0.346971,-0.441044,1.429424
2026-01-04T14:05:42.318793,4.704289,-12.169895,2.201396,-0.271224,-0.557108,1.274264
2026-01-04T14:05:42.327793,5.345565,-13.332807,2.043470,-0.037873,-0.588873,1.156978
2026-01-04T14:05:42.337793,5.804987,-13.782658,1.536192,0.324980,-0.472809,1.084896
2026-01-04T14:05:42.346793,5.900700,-13.294522,1.339980,0.707381,-0.235793,1.056796
2026-01-04T14:05:42.356793,5.393422,-12.031112,1.277767,0.976162,0.024434,1.037248
2026-01-04T14:05:42.366793,4.704289,-10.461420,1.076770,0.979827,0.217467,1.018923
2026-01-04T14:05:42.375793,3.967299,-9.422935,0.899701,0.653625,0.320093,0.981049
2026-01-04T14:05:42.385793,3.316452,-9.169296,0.612562,0.097738,0.309097,0.929736
2026-01-04T14:05:42.394793,3.134597,-9.571290,0.741775,-0.493579,0.183259,0.827111
2026-01-04T14:05:42.404793,3.340380,-10.633703,1.186840,-0.988379,0.010995,0.679282
2026-01-04T14:05:42.414793,3.976871,-12.059825,1.674975,-1.288925,-0.113620,0.531452
2026-01-04T14:05:42.423793,4.847858,-13.505090,1.952543,-1.286481,-0.100181,0.382401
2026-01-04T14:05:42.433793,5.618347,-14.720644,2.019542,-0.974940,0.058643,0.251676
2026-01-04T14:05:42.443793,6.077769,-15.668202,2.029113,-0.372627,0.365297,0.092851
2026-01-04T14:05:42.452793,5.848058,-15.940984,1.296909,0.387288,0.695164,-0.050090
2026-01-04T14:05:42.462793,5.173282,-15.553346,0.952343,1.177747,0.924849,-0.202807
2026-01-04T14:05:42.471793,4.326223,-14.275579,0.842273,1.882686,0.999375,-0.414166
2026-01-04T14:05:42.481793,3.785445,-12.366107,1.445264,2.349387,0.907745,-0.678060
2026-01-04T14:05:42.491793,3.627519,-10.198209,1.990828,2.452012,0.689055,-0.973718
2026-01-04T14:05:42.500793,3.895515,-8.169096,2.493321,2.227214,0.383623,-1.282816
2026-01-04T14:05:42.510793,4.723431,-6.585047,3.010170,1.811825,0.106290,-1.612683
2026-01-04T14:05:42.519793,5.618347,-5.814558,3.311666,1.264490,-0.037873,-1.924225
2026-01-04T14:05:42.529793,6.498906,-5.986842,3.641875,0.679282,-0.004886,-2.174679
2026-01-04T14:05:42.539793,7.164110,-6.953542,3.732803,0.246789,0.174707,-2.389704
2026-01-04T14:05:42.548793,7.197610,-7.958527,3.115455,0.001221,0.408057,-2.560746
2026-01-04T14:05:42.558793,7.116254,-9.049655,2.416750,-0.229685,0.566882,-2.648711
2026-01-04T14:05:42.568793,6.881757,-9.944570,1.603191,-0.403170,0.583987,-2.746449
2026-01-04T14:05:42.577793,6.771687,-10.030712,1.048056,-0.386066,0.452040,-2.926043
2026-01-04T14:05:42.587793,6.829115,-9.571290,0.713061,-0.293215,0.239459,-3.148398
2026-01-04T14:05:42.596793,7.188039,-9.145367,0.851844,-0.280997,-0.015882,-3.279123
2026-01-04T14:05:42.606793,7.977670,-8.609375,1.895115,-0.213802,-0.249232,-3.422066
2026-01-04T14:05:42.616793,9.111868,-8.082954,3.574876,-0.193033,-0.392175,-3.579669
2026-01-04T14:05:42.625793,10.317851,-8.164310,3.852444,-0.366519,-0.349414,-3.626095
2026-01-04T14:05:42.635793,11.083554,-8.953942,3.196810,-0.470366,-0.063529,-3.659082
2026-01-04T14:05:42.644793,11.073982,-9.896714,2.220539,-0.350636,0.359188,-3.706729
2026-01-04T14:05:42.654793,10.246066,-10.557133,0.851844,-0.141720,0.728151,-3.688403
2026-01-04T14:05:42.664793,9.020941,-10.399207,0.263210,0.116064,0.869871,-3.681073
2026-01-04T14:05:42.673793,7.944171,-9.212367,-0.440279,0.306654,0.713490,-3.775146
2026-01-04T14:05:42.683793,7.513462,-7.829315,-1.196411,0.293215,0.301767,-3.882658
2026-01-04T14:05:42.693793,8.082954,-6.556333,-0.684347,0.504574,-0.133168,-3.965736
2026-01-04T14:05:42.702793,9.480363,-5.326423,1.311266,0.526565,-0.551000,-3.985283
2026-01-04T14:05:42.712793,11.509476,-4.929214,1.545763,0.083077,-0.835663,-3.857002
2026-01-04T14:05:42.721793,13.371092,-5.292923,1.923829,-0.812450,-0.888197,-3.709172
2026-01-04T14:05:42.731793,14.088939,-6.829115,1.861615,-1.395215,-0.570548,-3.501478
2026-01-04T14:05:42.741793,13.619946,-8.441878,1.765903,-1.600466,-0.109955,-3.312110
2026-01-04T14:05:42.750793,12.160324,-9.355936,1.406979,-1.348790,0.282219,-3.185050
2026-01-04T14:05:42.760793,10.198209,-8.853443,1.024128,-0.722042,0.483805,-3.172833
2026-01-04T14:05:42.769793,8.394021,-7.398607,0.445065,-0.052534,0.428827,-3.266906
2026-01-04T14:05:42.779793,7.226324,-5.517848,-0.090927,0.417831,0.130725,-3.414735
2026-01-04T14:05:42.789793,6.848258,-3.661018,-0.521635,0.615752,-0.302989,-3.593108
2026-01-04T14:05:42.798793,7.393821,-2.340180,-0.741775,0.612086,-0.741590,-3.725055
2026-01-04T14:05:42.808793,8.633303,-1.493121,-0.133998,0.357966,-1.132543,-3.745824
2026-01-04T14:05:42.818793,10.595418,-0.569491,0.435493,-0.020769,-1.358564,-3.701842
2026-01-04T14:05:42.827793,12.643674,-0.330209,1.378265,-0.419053,-1.229060,-3.544239
2026-01-04T14:05:42.837793,14.179866,-1.852044,1.646261,-1.060461,-0.885754,-3.218037
2026-01-04T14:05:42.846793,14.868999,-1.823330,4.742574,-1.726304,-0.492357,-2.998125
2026-01-04T14:05:42.856793,13.974083,-6.116054,1.009771,-2.127032,-0.081855,-2.851518
2026-01-04T14:05:42.866793,11.973684,-7.245466,1.445264,-1.777617,0.335975,-2.696358
2026-01-04T14:05:42.875793,9.925428,-7.757530,1.119840,-1.154535,0.488692,-2.610837
2026-01-04T14:05:42.885793,8.279166,-7.063612,0.617348,-0.367740,0.379958,-2.654819
2026-01-04T14:05:42.894793,7.054041,-5.417350,-0.205782,0.301767,0.029321,-2.723236
2026-01-04T14:05:42.904793,7.216752,-3.364308,-0.540777,0.649960,-0.477696,-2.778214
2026-01-04T14:05:42.914793,8.006384,-1.564905,-0.492921,0.731816,-0.950506,-2.786766
2026-01-04T14:05:42.923793,9.293722,0.114855,0.086141,0.408057,-1.287703,-2.739119
2026-01-04T14:05:42.933793,10.059426,0.885344,0.861416,0.394618,-0.954171,-2.533868
2026-01-04T14:05:42.943793,10.700702,0.416351,0.842273,-0.074525,-0.673173,-2.360382
2026-01-04T14:05:42.952793,10.260423,0.981057,0.760917,-0.679282,-0.328645,-2.074497
2026-01-04T14:05:42.962793,9.087940,-0.172283,0.641276,-1.163087,-0.083077,-1.797165
2026-01-04T14:05:42.971793,8.212167,-0.157926,0.847059,-1.574810,0.035430,-1.546710
2026-01-04T14:05:42.981793,10.030712,-0.598205,1.421336,-1.420872,0.139277,-1.483180
2026-01-04T14:05:42.991793,9.724431,-3.728017,-0.114855,-2.322509,-0.102625,-1.506393
2026-01-04T14:05:43.000793,8.566304,-2.469392,0.918843,-1.767843,-0.524122,-1.497841
2026-01-04T14:05:43.010793,8.642875,-2.531606,0.459421,-1.215621,-0.630412,-1.437976
2026-01-04T14:05:43.019793,8.920442,-2.067398,0.272781,-1.001818,-0.590095,-1.367116
2026-01-04T14:05:43.029793,8.719445,-1.775474,0.196211,-0.783129,-0.465479,-1.292590
2026-01-04T14:05:43.039793,8.154739,-1.282552,0.545563,-0.515570,-0.271224,-1.182634
2026-01-04T14:05:43.048793,7.245466,-0.981057,0.928415,-0.393397,-0.164933,-1.076344
2026-01-04T14:05:43.058793,6.498906,-0.947557,1.086341,-0.318871,-0.155159,-1.005483
2026-01-04T14:05:43.068793,5.714060,-1.244267,1.737189,-0.392175,-0.276111,-0.957836
2026-01-04T14:05:43.077793,5.623133,-1.210768,1.861615,-0.381179,-0.444709,-0.919962
2026-01-04T14:05:43.087793,5.857629,-1.349551,1.861615,-0.271224,-0.630412,-0.894306
2026-01-04T14:05:43.096793,6.585047,-1.205982,1.406979,-0.120951,-0.764803,-0.862541
2026-01-04T14:05:43.106793,7.288537,-0.813559,1.091127,0.043982,-0.751364,-0.818559
2026-01-04T14:05:43.116793,7.470392,-0.220139,0.957129,0.120951,-0.561995,-0.745255
2026-01-04T14:05:43.125793,7.054041,0.172283,0.794417,0.058643,-0.261450,-0.645073
2026-01-04T14:05:43.135793,6.010770,0.291924,0.842273,-0.073303,0.013439,-0.543669
2026-01-04T14:05:43.144793,4.761716,0.167497,0.904486,-0.223576,0.153938,-0.474031
2026-01-04T14:05:43.154793,3.617947,-0.181854,0.966700,-0.318871,0.144164,-0.428827
2026-01-04T14:05:43.164793,2.880958,-0.535992,1.134197,-0.310319,-0.021991,-0.400727
2026-01-04T14:05:43.173793,2.746960,-0.717846,1.402194,-0.218689,-0.305432,-0.384845
2026-01-04T14:05:43.183793,3.120240,-0.689132,1.588834,-0.072082,-0.618195,-0.378736
2026-01-04T14:05:43.193793,4.201796,-0.655633,1.856830,0.074525,-0.888197,-0.372627
2026-01-04T14:05:43.202793,5.426921,-0.617348,1.727617,0.188146,-1.047022,-0.349414
2026-01-04T14:05:43.212793,6.781259,-0.626919,1.593619,0.306654,-1.049466,-0.321315
2026-01-04T14:05:43.221793,7.743173,-0.607776,1.330409,0.459370,-0.897971,-0.283441
2026-01-04T14:05:43.231793,8.207381,-0.416351,0.851844,0.635299,-0.668286,-0.245567
2026-01-04T14:05:43.241793,8.312665,-0.038285,0.497707,0.775798,-0.478918,-0.212581
2026-01-04T14:05:43.250793,8.283951,0.425922,0.244067,0.852767,-0.401949,-0.173485
2026-01-04T14:05:43.260793,8.212167,0.296710,0.555134,1.056796,-0.485026,-0.273667
2026-01-04T14:05:43.269793,8.499305,0.622133,0.282353,0.965166,-0.646295,-0.566882
2026-01-04T14:05:43.279793,9.111868,2.321037,0.023928,0.768468,-0.819780,-0.895528
2026-01-04T14:05:43.289793,9.150153,2.947957,0.531206,1.379333,-0.390953,-0.797789
2026-01-04T14:05:43.298793,12.466605,17.620745,-0.483350,0.448374,-0.268780,-0.615752
2026-01-04T14:05:43.308793,10.437492,3.383451,1.091127,-0.472809,-0.186924,0.029321
2026-01-04T14:05:43.318793,11.054840,3.053241,0.684347,-0.982271,-0.135612,0.298102
2026-01-04T14:05:43.327793,11.150553,2.766102,0.521635,-1.226617,-0.028099,0.464257
2026-01-04T14:05:43.337793,10.719845,2.306680,0.358923,-1.321912,0.140498,0.777020
2026-01-04T14:05:43.346793,8.331808,1.292124,2.263610,-0.956614,0.116064,1.050687
2026-01-04T14:05:43.356793,9.609575,-0.334995,0.780060,-0.724486,0.039095,1.087339
2026-01-04T14:05:43.366793,9.824929,-0.320638,0.626919,-0.509461,-0.012217,0.839328
2026-01-04T14:05:43.375793,9.542576,0.000000,0.311066,-0.169820,0.013439,0.266337
2026-01-04T14:05:43.385793,9.681360,0.583848,0.708275,0.091629,0.043982,-0.147829
2026-01-04T14:05:43.394793,10.480562,2.440679,0.674775,0.127059,0.117286,-0.509461
2026-01-04T14:05:43.404793,9.245866,2.656033,0.794417,0.050090,0.329867,-0.542448
2026-01-04T14:05:43.414793,8.097311,7.685746,7.322037,0.280997,0.703716,-0.423940
2026-01-04T14:05:43.423793,8.365307,3.163311,1.641476,-0.041538,0.386066,0.072082
2026-01-04T14:05:43.433793,8.250452,2.091326,2.263610,-0.226020,0.144164,0.329867
2026-01-04T14:05:43.443793,8.733802,1.555334,1.899901,-0.244346,0.035430,0.368962
2026-01-04T14:05:43.452793,9.198010,1.215553,1.536192,-0.204028,0.007330,0.392175
2026-01-04T14:05:43.462793,9.700502,1.272981,1.277767,-0.131946,0.053756,0.460592
2026-01-04T14:05:43.471793,10.021141,1.282552,1.182054,-0.050090,0.160046,0.620638
2026-01-04T14:05:43.481793,10.159924,1.339980,1.100698,-0.020769,0.272445,0.869871
2026-01-04T14:05:43.491793,10.231709,1.105484,1.378265,-0.012217,0.408057,1.147204
2026-01-04T14:05:43.500793,10.470991,-0.401994,1.473978,-0.053756,0.502131,1.320690
2026-01-04T14:05:43.510793,9.533005,-0.660419,1.885544,-0.138055,0.602312,1.089783
2026-01-04T14:05:43.519793,9.092725,-0.866201,1.885544,-0.238237,0.670729,0.752585
2026-01-04T14:05:43.529793,8.781658,-0.574277,1.808973,-0.263893,0.673173,0.626747
2026-01-04T14:05:43.539793,8.700302,-0.803988,1.330409,-0.221133,0.571769,0.638964
2026-01-04T14:05:43.548793,8.973084,-1.134197,1.325623,-0.136833,0.378736,0.684168
2026-01-04T14:05:43.558793,9.724431,-0.923629,1.009771,-0.063529,0.190589,0.790459
2026-01-04T14:05:43.568793,10.518848,-0.851844,0.588634,-0.057421,0.128281,0.974940
2026-01-04T14:05:43.577793,10.743773,-0.770488,0.267996,-0.068416,0.300545,1.043357
2026-01-04T14:05:43.587793,10.059426,-0.818345,0.296710,-0.075747,0.605978,1.193630
2026-01-04T14:05:43.596793,8.772087,-0.583848,0.397208,-0.063529,0.877202,1.335351
2026-01-04T14:05:43.606793,7.436892,-0.669990,0.459421,-0.006108,1.025031,1.445306
2026-01-04T14:05:43.616793,6.082555,-0.914058,0.646062,0.052534,0.992044,1.503949
2026-01-04T14:05:43.625793,5.426921,-1.186840,0.808774,0.140498,0.847880,1.510058
2026-01-04T14:05:43.635793,5.005784,-1.746760,0.784845,0.378736,0.678060,1.492954
2026-01-04T14:05:43.644793,5.201996,-1.713260,2.024327,0.459370,0.428827,1.455080
2026-01-04T14:05:43.654793,5.469992,-2.268395,1.641476,0.647517,0.237015,1.452637
2026-01-04T14:05:43.664793,6.135197,-2.120040,1.105484,0.894306,0.160046,1.479515
2026-01-04T14:05:43.673793,6.661618,-1.780260,0.593420,1.098335,0.196698,1.521054
2026-01-04T14:05:43.683793,6.896114,-1.220339,0.349352,1.188743,0.300545,1.588249
2026-01-04T14:05:43.693793,6.781259,-0.478564,0.205782,1.158200,0.425162,1.662774
2026-01-04T14:05:43.702793,6.374479,0.023928,0.133998,1.005483,0.526565,1.742187
2026-01-04T14:05:43.712793,5.905486,0.224925,0.157926,0.777020,0.563217,1.800830
2026-01-04T14:05:43.721793,5.484349,0.095712,0.387637,0.654847,0.513126,1.810604
2026-01-04T14:05:43.731793,5.493920,0.019142,0.349352,0.304210,0.361632,1.791056
2026-01-04T14:05:43.741793,5.790630,-0.282353,0.311066,0.135612,0.205250,1.910786
2026-01-04T14:05:43.750793,6.230910,-0.526420,0.636490,0.130725,0.164933,1.835038
2026-01-04T14:05:43.760793,7.058826,-1.158126,0.875773,0.398284,0.076969,1.780060
2026-01-04T14:05:43.769793,7.173682,-2.766102,0.210568,0.491135,-0.080634,1.756848
2026-01-04T14:05:43.779793,7.867600,-2.426322,-0.248853,0.555887,-0.182037,1.755626
2026-01-04T14:05:43.789793,8.350950,-1.919043,-0.215354,0.592539,-0.196698,1.777617
2026-01-04T14:05:43.798793,8.542376,-1.311266,-0.009571,0.427605,-0.172263,1.820378
2026-01-04T14:05:43.808793,7.757530,-0.808774,0.569491,0.536339,0.147829,1.921781
2026-01-04T14:05:43.818793,7.642675,-1.172483,0.354137,0.328645,0.282219,1.988976
2026-01-04T14:05:43.827793,6.857829,-1.808973,0.401994,0.200363,0.345749,2.041511
2026-01-04T14:05:43.837793,6.360122,-2.914457,0.617348,0.414166,0.449596,2.081828
2026-01-04T14:05:43.846793,6.072983,-4.278366,1.244267,0.950506,0.475253,2.069610
2026-01-04T14:05:43.856793,6.661618,-4.857429,0.775274,0.698829,0.028099,1.990198
2026-01-04T14:05:43.866793,7.336394,-5.307280,0.890130,0.921184,-0.186924,1.991420
2026-01-04T14:05:43.875793,8.322237,-4.934000,0.397208,1.318246,-0.215024,2.026850
2026-01-04T14:05:43.885793,9.183653,-3.589233,0.306281,1.518610,-0.151494,2.095267
2026-01-04T14:05:43.894793,9.657432,-2.081755,0.334995,1.387885,-0.008552,2.213775
2026-01-04T14:05:43.904793,9.686145,-0.885344,0.756131,1.014036,0.221133,2.348165
2026-01-04T14:05:43.914793,9.265009,-0.555134,1.052841,0.349414,0.389731,2.495994
2026-01-04T14:05:43.923793,8.705088,-1.201196,1.177268,-0.426383,0.432492,2.598620
2026-01-04T14:05:43.933793,8.317451,-2.636890,0.837487,-1.029918,0.353080,2.648711
2026-01-04T14:05:43.943793,8.188238,-4.474578,0.803988,-1.298699,0.177150,2.627941
2026-01-04T14:05:43.952793,8.532805,-6.269195,0.622133,-1.238834,-0.040317,2.542420
2026-01-04T14:05:43.962793,9.379864,-7.685746,0.411565,-0.886976,-0.224798,2.436130
2026-01-04T14:05:43.971793,10.274780,-8.513662,0.248853,-0.302989,-0.295658,2.332282
2026-01-04T14:05:43.981793,10.973484,-8.614161,0.851844,0.403170,-0.189368,2.298074
2026-01-04T14:05:43.991793,11.217552,-8.020741,0.803988,0.862541,-0.003665,2.332282
2026-01-04T14:05:44.000793,10.901699,-6.862615,0.421136,1.144761,0.241902,2.406808
2026-01-04T14:05:44.010793,10.298708,-5.599204,0.870987,1.210734,0.439822,2.478890
2026-01-04T14:05:44.019793,9.595218,-4.733003,1.789831,0.954171,0.459370,2.526538
2026-01-04T14:05:44.029793,9.442077,-4.618147,1.584048,0.542448,0.318871,2.570520
2026-01-04T14:05:44.039793,9.566504,-5.087140,1.426122,0.123394,0.083077,2.596176
2026-01-04T14:05:44.048793,10.078568,-6.096911,1.071984,-0.193033,-0.119729,2.602285
2026-01-04T14:05:44.058793,10.595418,-7.341179,1.354337,-0.309097,-0.184481,2.582737
2026-01-04T14:05:44.068793,10.987841,-8.499305,1.832902,-0.227241,-0.123394,2.575407
2026-01-04T14:05:44.077793,10.916056,-9.446863,1.799402,0.010995,0.019547,2.575407
2026-01-04T14:05:44.087793,10.557133,-9.882357,1.320838,0.321315,0.179594,2.615724
2026-01-04T14:05:44.096793,9.944570,-9.446863,1.378265,0.632856,0.268780,2.656041
2026-01-04T14:05:44.106793,9.437292,-8.609375,1.904686,0.768468,0.252898,2.684141
2026-01-04T14:05:44.116793,9.154939,-7.733602,2.536391,0.652403,0.155159,2.680476
2026-01-04T14:05:44.125793,9.193224,-7.398607,2.555534,0.408057,0.048869,2.624276
2026-01-04T14:05:44.135793,9.288937,-7.384250,2.431107,0.191811,0.009773,2.538755
2026-01-04T14:05:44.144793,9.231509,-7.743173,2.081755,-0.052534,0.039095,2.517985
2026-01-04T14:05:44.154793,9.044869,-8.518448,1.411765,-0.252898,0.109955,2.487442
2026-01-04T14:05:44.164793,8.504091,-9.217152,0.995414,-0.274889,0.194255,2.410473
2026-01-04T14:05:44.173793,7.838886,-9.633503,1.306481,-0.147829,0.234572,2.318843
2026-01-04T14:05:44.183793,7.226324,-9.848857,1.464407,0.012217,0.221133,2.224770
2026-01-04T14:05:44.193793,6.637689,-9.824929,1.258624,0.149051,0.178372,2.172236
2026-01-04T14:05:44.202793,6.202196,-9.489934,1.354337,0.259006,0.116064,2.133140
2026-01-04T14:05:44.212793,5.962913,-8.987441,1.014556,0.266337,0.032986,2.085493
2026-01-04T14:05:44.221793,5.977270,-8.499305,0.354137,0.162490,-0.013439,2.032959
2026-01-04T14:05:44.231793,6.015556,-8.384450,-0.004785,0.025656,0.026878,1.920559
2026-01-04T14:05:44.241793,5.460421,-8.475377,-0.358923,0.068416,0.021991,1.717752
2026-01-04T14:05:44.250793,5.130211,-8.312665,-0.660419,0.119729,-0.164933,1.499062
2026-01-04T14:05:44.260793,5.134997,-8.360522,-0.521635,0.410501,-0.321315,1.205847
2026-01-04T14:05:44.269793,5.455635,-8.422735,0.957129,0.840550,-0.430049,0.907745
2026-01-04T14:05:44.279793,5.915057,-9.164510,4.618147,0.764803,-0.623082,0.663399
2026-01-04T14:05:44.289793,7.173682,-8.992227,5.211567,0.516791,-0.673173,0.500909
2026-01-04T14:05:44.298793,8.015955,-9.987641,6.714260,0.235793,-0.474031,0.449596
2026-01-04T14:05:44.308793,8.590233,-10.662417,6.833901,-0.103847,-0.101403,0.502131
2026-01-04T14:05:44.318793,8.556733,-11.231909,5.551348,-0.480139,0.342084,0.649960
2026-01-04T14:05:44.327793,7.891528,-11.763115,4.187439,-0.808785,0.736703,0.812450
2026-01-04T14:05:44.337793,6.838686,-12.437891,3.316452,-1.081231,1.018923,0.962723
2026-01-04T14:05:44.346793,5.589633,-13.007383,2.775674,-1.299920,1.164308,1.100778
2026-01-04T14:05:44.356793,4.374079,-13.194023,2.833101,-1.433089,1.166752,1.186300
2026-01-04T14:05:44.366793,3.402593,-13.021740,3.182454,-1.582140,0.999375,1.204625
2026-01-04T14:05:44.375793,2.976671,-13.088739,3.259024,-1.797165,0.714712,1.147204
2026-01-04T14:05:44.385793,3.072384,-13.854442,2.574677,-2.007302,0.419053,1.048244
2026-01-04T14:05:44.394793,3.632304,-15.247065,1.919043,-2.034180,0.202807,0.906523
2026-01-04T14:05:44.404793,4.163511,-16.706688,1.512263,-1.744630,0.113620,0.697607
2026-01-04T14:05:44.414793,4.465006,-17.620745,1.473978,-1.112996,0.100181,0.428827
2026-01-04T14:05:44.423793,4.627718,-17.510675,1.875972,-0.178372,0.106290,0.075747
2026-01-04T14:05:44.433793,4.350151,-16.079767,2.541177,0.878424,0.118507,-0.311541
2026-01-04T14:05:44.443793,3.933800,-13.552947,2.766102,1.754404,0.129503,-0.649960
2026-01-04T14:05:44.452793,3.483949,-10.920842,3.235096,2.225992,0.113620,-0.941954
2026-01-04T14:05:44.462793,3.129811,-8.714659,3.579662,2.285857,0.053756,-1.165530
2026-01-04T14:05:44.471793,2.914457,-7.164110,3.962514,2.034180,-0.036651,-1.341459
2026-01-04T14:05:44.481793,2.914457,-6.211767,3.474378,1.433089,-0.149051,-1.441641
2026-01-04T14:05:44.491793,3.268595,-6.307480,3.244667,0.616973,-0.309097,-1.490510
2026-01-04T14:05:44.500793,4.249652,-7.135396,4.134797,-0.106290,-0.514348,-1.618792
2026-01-04T14:05:44.510793,5.594419,-8.245666,4.426721,-0.673173,-0.667064,-1.761734
2026-01-04T14:05:44.519793,7.240681,-9.863214,4.024727,-0.939510,-0.631634,-1.933998
2026-01-04T14:05:44.529793,8.484948,-10.997412,3.986442,-0.697607,-0.346971,-2.188118
2026-01-04T14:05:44.539793,9.011369,-11.059626,3.527020,-0.186924,0.090408,-2.398256
2026-01-04T14:05:44.548793,8.456235,-10.131210,2.526820,0.185702,0.483805,-2.500881
2026-01-04T14:05:44.558793,7.475177,-8.863014,0.703489,0.344527,0.717155,-2.627941
2026-01-04T14:05:44.568793,6.254838,-7.838886,-0.875773,-0.037873,0.575434,-2.691471
2026-01-04T14:05:44.577793,5.790630,-7.499106,-1.651047,-0.613308,0.084299,-2.742784
2026-01-04T14:05:44.587793,6.446264,-8.063812,-1.421336,-0.977384,-0.438601,-2.791653
2026-01-04T14:05:44.596793,8.274380,-8.542376,-0.301495,-0.593760,-0.487470,-2.776992
2026-01-04T14:05:44.606793,9.619146,-9.470791,1.512263,-0.062308,-0.324980,-2.763553
2026-01-04T14:05:44.616793,11.528619,-8.762516,3.129811,-0.805120,-0.630412,-2.869844
2026-01-04T14:05:44.625793,12.337393,-9.738787,1.316052,-0.966388,-0.471587,-2.941926
2026-01-04T14:05:44.635793,12.007183,-9.116654,1.612762,-0.638964,-0.032986,-3.010343
2026-01-04T14:05:44.644793,10.844272,-8.327022,1.450050,-0.405614,0.337197,-3.077538
2026-01-04T14:05:44.654793,9.245866,-7.704888,-0.105284,-0.316428,0.513126,-3.131294
2026-01-04T14:05:44.664793,7.896314,-7.465606,-1.473978,-0.339641,0.368962,-3.209485
2026-01-04T14:05:44.673793,7.499106,-7.460820,-0.555134,-0.280997,-0.003665,-3.249802
2026-01-04T14:05:44.683793,8.355736,-7.590033,1.167697,-0.267558,-0.492357,-3.291341
2026-01-04T14:05:44.693793,9.920642,-7.537391,2.435893,-0.338419,-0.862541,-3.275458
2026-01-04T14:05:44.702793,11.949756,-7.264609,1.349551,-0.564439,-0.959058,-3.183828
2026-01-04T14:05:44.712793,13.170095,-7.006184,1.215553,-0.756251,-0.759916,-3.082425
2026-01-04T14:05:44.721793,13.318450,-6.254838,1.225125,-0.858876,-0.346971,-2.972469
2026-01-04T14:05:44.731793,12.390035,-5.355136,1.067198,-0.985936,0.107512,-2.896722
2026-01-04T14:05:44.741793,10.724630,-4.843072,0.827916,-1.078787,0.461814,-2.949256
2026-01-04T14:05:44.750793,9.078368,-4.570291,0.468993,-1.106887,0.554665,-3.037221
2026-01-04T14:05:44.760793,7.992027,-4.689932,0.162711,-1.018923,0.406836,-3.197267
2026-01-04T14:05:44.769793,7.657032,-4.761716,0.148355,-0.786794,0.096516,-3.396410
2026-01-04T14:05:44.779793,8.207381,-4.771288,-0.119641,-0.502131,-0.288328,-3.565008
2026-01-04T14:05:44.789793,9.556933,-4.656432,-0.148355,-0.207694,-0.616973,-3.684738
2026-01-04T14:05:44.798793,11.112268,-4.220939,0.153140,0.018325,-0.757472,-3.718946
2026-01-04T14:05:44.808793,12.409178,-3.637090,0.478564,0.072082,-0.687834,-3.652973
2026-01-04T14:05:44.818793,13.045668,-2.799602,1.421336,-0.059864,-0.469144,-3.529578
2026-01-04T14:05:44.827793,12.873385,-2.172682,1.842473,-0.423940,-0.168598,-3.341432
2026-01-04T14:05:44.837793,11.911470,-2.230110,1.507478,-0.915075,0.144164,-3.126407
2026-01-04T14:05:44.846793,10.499705,-2.986242,0.990628,-1.263269,0.346971,-2.954143
2026-01-04T14:05:44.856793,9.279366,-3.828516,1.071984,-1.309694,0.316428,-2.894278
2026-01-04T14:05:44.866793,8.638089,-4.618147,1.172483,-1.131322,0.069638,-2.894278
2026-01-04T14:05:44.875793,8.805587,-5.249852,0.856630,-0.777020,-0.210137,-2.922378
2026-01-04T14:05:44.885793,9.336793,-5.206781,0.267996,-0.238237,-0.377514,-2.944369
2026-01-04T14:05:44.894793,9.911071,-4.407579,-0.143569,0.279776,-0.406836,-2.900387
2026-01-04T14:05:44.904793,10.313065,-3.407379,-0.153140,0.541226,-0.326201,-2.786766
2026-01-04T14:05:44.914793,10.250852,-2.354537,-0.220139,0.566882,-0.171042,-2.607172
2026-01-04T14:05:44.923793,9.753144,-1.560120,0.009571,0.447153,0.018325,-2.398256
2026-01-04T14:05:44.933793,9.006584,-1.105484,0.660419,0.175929,0.166155,-2.196670
2026-01-04T14:05:44.943793,8.059026,-0.813559,0.866201,-0.164933,0.218689,-1.992641
2026-01-04T14:05:44.952793,7.250252,-0.741775,0.971485,-0.503352,0.168598,-1.822821
2026-01-04T14:05:44.962793,6.685546,-0.952343,1.205982,-0.818559,0.012217,-1.700648
2026-01-04T14:05:44.971793,6.580262,-1.402194,1.095912,-1.050687,-0.233350,-1.598023
2026-01-04T14:05:44.981793,7.073183,-2.076970,1.014556,-1.106887,-0.471587,-1.556484
2026-01-04T14:05:44.991793,7.743173,-2.880958,0.531206,-1.007927,-0.615752,-1.518610
2026-01-04T14:05:45.000793,8.303094,-3.460021,0.186640,-0.735481,-0.652403,-1.472184
2026-01-04T14:05:45.010793,8.666803,-3.747160,0.181854,-0.345749,-0.603534,-1.415985
2026-01-04T14:05:45.019793,8.681160,-3.402593,0.028713,0.040317,-0.494800,-1.334129
2026-01-04T14:05:45.029793,8.355736,-2.847458,-0.028713,0.361632,-0.381179,-1.232725
2026-01-04T14:05:45.039793,7.795816,-2.158325,0.071784,0.640186,-0.313984,-1.132543
2026-01-04T14:05:45.048793,7.188039,-1.292124,0.512064,0.823446,-0.293215,-1.058018
2026-01-04T14:05:45.058793,6.685546,-0.641276,0.717846,0.871093,-0.277332,-0.988379
2026-01-04T14:05:45.068793,6.039484,-0.153140,0.847059,0.867428,-0.239459,-0.937067
2026-01-04T14:05:45.077793,5.422136,0.344566,1.287338,0.808785,-0.190589,-0.912632
2026-01-04T14:05:45.087793,4.876572,0.650847,1.406979,0.648738,-0.146607,-0.884532
2026-01-04T14:05:45.096793,4.278366,0.909272,1.091127,0.433714,-0.102625,-0.857654
2026-01-04T14:05:45.106793,3.771088,1.076770,0.818345,0.194255,-0.074525,-0.838106
2026-01-04T14:05:45.116793,3.402593,1.134197,0.708275,-0.101403,-0.116064,-0.812450
2026-01-04T14:05:45.125793,3.383451,1.048056,0.851844,-0.423940,-0.252898,-0.774576
2026-01-04T14:05:45.135793,3.728017,0.650847,1.383051,-0.737925,-0.431270,-0.751364
2026-01-04T14:05:45.144793,4.469792,-0.124426,1.579262,-1.017701,-0.559552,-0.715933
2026-01-04T14:05:45.154793,5.201996,-0.918843,1.593619,-1.121548,-0.586430,-0.669508
2026-01-04T14:05:45.164793,5.938985,-1.660618,1.741974,-1.040914,-0.504574,-0.643851
2026-01-04T14:05:45.173793,6.283552,-2.201396,1.497906,-0.829554,-0.368962,-0.596204
2026-01-04T14:05:45.183793,6.474977,-2.349751,1.335195,-0.491135,-0.229685,-0.547335
2026-01-04T14:05:45.193793,6.565905,-1.986042,1.143769,-0.111177,-0.145385,-0.503352
2026-01-04T14:05:45.202793,6.671189,-1.512263,0.823130,0.212581,-0.150272,-0.453261
2026-01-04T14:05:45.212793,7.058826,-0.760917,0.550349,0.443488,-0.244346,-0.412944
2026-01-04T14:05:45.221793,7.733602,0.019142,0.473778,0.542448,-0.389731,-0.368962
2026-01-04T14:05:45.231793,8.618947,0.555134,0.459421,0.515570,-0.508239,-0.324980
2026-01-04T14:05:45.241793,9.647860,0.870987,0.334995,0.420275,-0.549778,-0.276111
2026-01-04T14:05:45.250793,10.188638,0.210568,0.669990,0.333532,-0.516791,-0.290771
2026-01-04T14:05:45.260793,11.006983,0.378065,0.569491,0.204028,-0.509461,-0.497244
2026-01-04T14:05:45.269793,11.495119,0.650847,0.588634,0.195476,-0.513126,-0.690277
2026-01-04T14:05:45.279793,11.514262,2.354537,-0.047856,0.156381,-0.504574,-0.521678
2026-01-04T14:05:45.289793,12.055040,2.866601,0.550349,0.629191,-0.047647,0.128281
2026-01-04T14:05:45.298793,11.045269,1.095912,0.449850,0.338419,0.111177,0.271224
2026-01-04T14:05:45.308793,10.743773,2.277967,-0.124426,-0.114842,0.152716,0.217467
2026-01-04T14:05:45.318793,10.289137,2.206182,0.449850,-0.310319,0.215024,0.255341
2026-01-04T14:05:45.327793,9.690931,2.005185,0.531206,-0.454483,0.262671,0.280997
2026-01-04T14:05:45.337793,9.260223,1.866401,0.512064,-0.489913,0.353080,0.343306
2026-01-04T14:05:45.346793,9.087940,1.450050,0.914058,-0.386066,0.480139,0.438601
2026-01-04T14:05:45.356793,8.863014,1.277767,1.344766,-0.701273,0.394618,0.535117
2026-01-04T14:05:45.366793,10.805986,1.268195,0.746560,-0.166155,-0.028099,0.409279
2026-01-04T14:05:45.375793,9.193224,1.679761,0.923629,0.309097,0.063529,0.340862
2026-01-04T14:05:45.385793,9.226723,2.139183,1.229910,0.415388,0.114842,0.376292
2026-01-04T14:05:45.394793,9.188438,2.316252,1.000199,0.390953,0.124616,0.386066
2026-01-04T14:05:45.404793,9.212367,2.612962,1.028913,0.287106,0.136833,0.361632
2026-01-04T14:05:45.414793,9.365507,2.904886,1.153340,0.094073,0.105068,0.345749
2026-01-04T14:05:45.423793,9.681360,2.857030,1.052841,-0.158824,0.043982,0.409279
2026-01-04T14:05:45.433793,10.102497,2.153540,0.885344,-0.425162,0.014660,0.541226
2026-01-04T14:05:45.443793,10.509276,1.612762,0.981057,-0.648738,0.045204,0.643851
2026-01-04T14:05:45.452793,10.686345,1.253839,1.076770,-0.778242,0.141720,0.850324
2026-01-04T14:05:45.462793,10.447063,0.282353,1.071984,-0.874758,0.255341,1.154535
2026-01-04T14:05:45.471793,9.978070,-0.076570,0.799202,-1.027475,0.323758,1.247386
2026-01-04T14:05:45.481793,9.427721,0.129212,0.339780,-1.222951,0.270002,1.277929
2026-01-04T14:05:45.491793,9.078368,0.066999,0.291924,-1.313359,0.138055,1.352455
2026-01-04T14:05:45.500793,8.925228,0.186640,0.555134,-1.376889,0.008552,1.434311
2026-01-04T14:05:45.510793,8.968299,0.133998,0.669990,-1.632231,-0.032986,1.568701
2026-01-04T14:05:45.519793,9.111868,-0.248853,0.569491,-1.860695,-0.059864,1.817934
2026-01-04T14:05:45.529793,10.930413,-0.086141,0.780060,-1.663996,-0.108733,1.448972
2026-01-04T14:05:45.539793,2.852244,-10.585847,-1.536192,-1.670105,-0.097738,1.696983
2026-01-04T14:05:45.548793,8.906085,-5.804987,0.354137,-1.373224,0.000000,1.725083
2026-01-04T14:05:45.558793,9.131011,-3.359522,0.555134,-0.928514,0.171042,1.622457
2026-01-04T14:05:45.568793,8.140382,-3.589233,0.473778,-0.367740,0.401949,1.573588
2026-01-04T14:05:45.577793,7.240681,-3.048455,0.349352,0.161268,0.533896,1.524719
2026-01-04T14:05:45.587793,6.216553,-2.545963,0.488135,0.582765,0.529009,1.469741
2026-01-04T14:05:45.596793,5.642275,-2.100898,0.378065,0.882089,0.416610,1.426980
2026-01-04T14:05:45.606793,5.426921,-1.828116,0.727418,1.145982,0.263893,1.385442
2026-01-04T14:05:45.616793,5.575276,-1.718046,0.818345,1.392772,0.130725,1.336572
2026-01-04T14:05:45.625793,5.699703,-1.655833,0.775274,1.601688,0.100181,1.290147
2026-01-04T14:05:45.635793,5.709274,-1.478764,0.818345,1.767843,0.146607,1.246164
2026-01-04T14:05:45.644793,5.417350,-0.847059,0.655633,1.841147,0.189368,1.207069
2026-01-04T14:05:45.654793,5.096712,-0.435493,0.354137,1.826486,0.217467,1.197295
2026-01-04T14:05:45.664793,4.756931,0.028713,0.497707,1.804495,0.249232,1.202182
2026-01-04T14:05:45.673793,4.560719,0.512064,0.665204,1.703091,0.230907,1.224173
2026-01-04T14:05:45.683793,4.541577,0.679561,0.650847,1.513723,0.151494,1.268155
2026-01-04T14:05:45.693793,4.871786,0.229710,0.521635,1.196073,0.062308,1.165530
2026-01-04T14:05:45.702793,5.613561,0.445065,0.708275,0.905302,-0.035430,1.037248
2026-01-04T14:05:45.712793,6.479763,0.311066,0.947557,0.638964,0.008552,1.076344
2026-01-04T14:05:45.721793,7.116254,0.267996,0.818345,0.383623,0.109955,1.436754
2026-01-04T14:05:45.731793,7.709674,-1.210768,1.780260,0.541226,0.153938,1.887573
2026-01-04T14:05:45.741793,7.810172,-0.971485,0.612562,0.563217,0.087964,2.267531
2026-01-04T14:05:45.750793,4.493720,-0.191425,-0.047856,0.779463,0.056199,1.546710
2026-01-04T14:05:45.760793,7.365107,-0.033499,0.033499,0.899193,-0.139277,1.518610
2026-01-04T14:05:45.769793,7.010970,0.239282,0.354137,1.661553,-0.035430,1.679879
2026-01-04T14:05:45.779793,7.838886,-0.306281,-0.315852,0.412944,0.012217,1.600466
2026-01-04T14:05:45.789793,8.752945,1.435693,-1.287338,-0.526565,-0.144164,1.565036
2026-01-04T14:05:45.798793,9.226723,1.986042,-0.459421,-0.489913,-0.326201,1.678657
2026-01-04T14:05:45.808793,9.585647,0.923629,0.559920,-0.992044,-0.339641,1.714087
2026-01-04T14:05:45.818793,10.030712,0.971485,0.483350,-1.579697,-0.189368,1.744630
2026-01-04T14:05:45.827793,9.662217,-0.234496,0.248853,-2.025628,0.080634,1.891238
2026-01-04T14:05:45.837793,8.863014,-0.851844,0.014356,-2.316400,0.317649,2.041511
2026-01-04T14:05:45.846793,12.059825,1.919043,-3.388236,-2.543642,0.375071,2.020741
2026-01-04T14:05:45.856793,6.652046,-5.862415,0.119641,-2.160019,0.328645,1.943772
2026-01-04T14:05:45.866793,6.250052,-7.661817,-0.019142,-1.387885,0.117286,1.816712
2026-01-04T14:05:45.875793,6.465406,-8.786444,-0.425922,-0.409279,-0.208915,1.639561
2026-01-04T14:05:45.885793,7.575676,-9.284151,-0.808774,0.709825,-0.569326,1.430646
2026-01-04T14:05:45.894793,9.255437,-8.714659,-0.832702,1.813047,-0.888197,1.222951
2026-01-04T14:05:45.904793,11.318050,-6.934399,-1.019342,2.669480,-1.061683,1.109331
2026-01-04T14:05:45.914793,13.021740,-4.345365,-1.588834,3.059212,-0.990823,1.158200
2026-01-04T14:05:45.923793,13.816157,-1.588834,-1.622333,2.900387,-0.670729,1.308473
2026-01-04T14:05:45.933793,13.462019,0.665204,-1.272981,2.206444,-0.224798,1.550375
2026-01-04T14:05:45.943793,12.098111,1.593619,-1.148554,1.070235,0.211359,1.831373
2026-01-04T14:05:45.952793,9.872786,0.636490,-1.363908,-0.238237,0.489913,2.096489
2026-01-04T14:05:45.962793,7.819744,-1.636690,-1.186840,-1.280373,0.453261,2.273639
2026-01-04T14:05:45.971793,6.360122,-4.398007,-1.091127,-1.860695,0.087964,2.340835
2026-01-04T14:05:45.981793,6.077769,-7.393821,-0.641276,-1.912007,-0.445931,2.282192
2026-01-04T14:05:45.991793,6.958328,-10.274780,0.483350,-1.479515,-0.977384,2.184453
2026-01-04T14:05:46.000793,8.633303,-12.174681,0.617348,-0.704938,-1.326799,2.118480
2026-01-04T14:05:46.010793,10.485348,-12.562318,-0.488135,0.305432,-1.335351,2.102597
2026-01-04T14:05:46.019793,11.605189,-11.021340,-0.626919,1.347568,-1.061683,2.160019
2026-01-04T14:05:46.029793,11.830114,-7.704888,-0.253639,1.948659,-0.673173,2.332282
2026-01-04T14:05:46.039793,11.236694,-4.378865,0.358923,1.808160,-0.298102,2.553416
2026-01-04T14:05:46.048793,10.380064,-2.340180,0.890130,1.029918,-0.032986,2.735453
2026-01-04T14:05:46.058793,9.293722,-1.947757,0.937986,-0.117286,0.064751,2.873509
2026-01-04T14:05:46.068793,8.451449,-3.723231,0.129212,-1.369559,-0.037873,2.993239
2026-01-04T14:05:46.077793,8.102097,-6.948756,-0.961914,-2.246761,-0.290771,3.048216
2026-01-04T14:05:46.087793,8.159525,-9.834500,-1.512263,-2.448347,-0.565661,3.028669
2026-01-04T14:05:46.096793,8.365307,-11.590832,-1.569691,-2.091602,-0.764803,2.962695
2026-01-04T14:05:46.106793,8.475377,-11.892328,-1.354337,-1.447750,-0.855211,2.875952
2026-01-04T14:05:46.116793,8.307880,-11.083554,-1.459621,-0.781907,-0.855211,2.812422
2026-01-04T14:05:46.125793,8.116454,-9.781858,-1.201196,-0.283441,-0.818559,2.726901
2026-01-04T14:05:46.135793,7.771887,-8.872586,-1.201196,-0.070860,-0.806341,2.654819
2026-01-04T14:05:46.144793,7.604390,-8.532805,-1.052841,-0.024434,-0.833220,2.581515
2026-01-04T14:05:46.154793,7.575676,-8.685946,-0.626919,0.012217,-0.879645,2.472781
2026-01-04T14:05:46.164793,7.647461,-9.092725,-0.315852,-0.001221,-0.910189,2.412917
2026-01-04T14:05:46.173793,7.599604,-9.810572,-1.201196,-0.059864,-0.886976,2.415360
2026-01-04T14:05:46.183793,7.489534,-10.030712,-0.813559,0.015882,-0.810007,2.401921
2026-01-04T14:05:46.193793,7.164110,-9.915856,-0.976271,-0.031764,-0.794124,2.398256
2026-01-04T14:05:46.202793,6.829115,-9.863214,-1.990828,-0.072082,-0.805120,2.388482
2026-01-04T14:05:46.212793,6.618547,-9.925428,-1.765903,-0.025656,-0.835663,2.276083
2026-01-04T14:05:46.221793,6.551548,-10.183852,-1.765903,-0.020769,-0.862541,2.180788
2026-01-04T14:05:46.231793,6.455835,-10.805986,-2.024327,0.042760,-0.852767,2.037846
2026-01-04T14:05:46.241793,6.422335,-11.528619,-2.493321,0.185702,-0.835663,1.901012
2026-01-04T14:05:46.250793,6.498906,-12.145967,-2.091326,0.411723,-0.835663,1.761734
2026-01-04T14:05:46.260793,6.685546,-12.366107,-1.971685,0.702494,-0.818559,1.644448
2026-01-04T14:05:46.269793,6.896114,-11.964113,-1.871187,0.971275,-0.758694,1.566258
2026-01-04T14:05:46.279793,6.920042,-11.093125,-1.569691,1.071457,-0.642630,1.539380
2026-01-04T14:05:46.289793,6.776473,-9.954142,-1.272981,0.937067,-0.489913,1.558927
2026-01-04T14:05:46.298793,6.431907,-9.198010,-1.244267,0.618195,-0.323758,1.572366
2026-01-04T14:05:46.308793,5.833701,-8.882157,-0.918843,0.208915,-0.179594,1.573588
2026-01-04T14:05:46.318793,5.187639,-9.284151,-0.942772,-0.263893,-0.079412,1.568701
2026-01-04T14:05:46.327793,4.646861,-10.255637,-1.249053,-0.679282,-0.023212,1.543045
2026-01-04T14:05:46.337793,4.163511,-11.413763,-1.354337,-0.852767,-0.036651,1.457524
