timestamp_ms,accel_x_g,accel_y_g,accel_z_g,gyro_x_dps,gyro_y_dps,gyro_z_dps,mag_x_uT,mag_y_uT,mag_z_uT
0,0.00058,0.01295,1.00522,0.328,0.418,-0.464,11.697,-3.994,37.71
20,-0.001843260743196836,0.011144130528955224,1.0001342393956474,0.06715218751575464,0.5584565144145937,-0.22398914295088665,11.780347821740527,-4.2116304234336015,37.56298370331879
40,-0.003516676347415264,0.007812482509456095,0.9994959187925706,-0.14320543908851419,0.2522858101447403,-0.01793899527473905,11.978550554102585,-4.117620862771966,37.5128269508494
60,0.0005954105069869101,0.003246687866187283,1.0134466776614104,-0.08100116964058343,0.2857461751374741,0.13561354380750082,11.996859850206032,-4.179120417951787,37.41719807806285
80,0.003583811731603679,-0.0004911099742160242,1.0123559488380718,-0.18287027821699348,-0.06568303715986851,-0.07916667113523629,12.103413924189507,-4.207628298668543,37.36580099627321
100,0.0030459822327816408,0.0014309486656030675,1.0127935446440395,-0.24041489612155173,-0.12368577523105771,-0.029325186502842347,11.993667252643808,-4.2004402055354175,37.5167527778829
120,0.002009543490484836,0.01184906032200438,1.0031261447692257,-0.4393634856129063,-0.20291028174418976,-0.09016709505993545,12.148915206842979,-4.143547520496747,37.468614480231885
140,0.00028488277702896567,0.006771379701674391,1.0029887193491365,-0.4801253993648795,-0.3596079365953312,-0.14991239765490136,12.077562060097325,-4.238260157105116,37.42091541697765
160,0.010037780762080548,0.013021933947356536,1.006056876396808,-0.3500389748719706,-0.10855814806606967,0.04954835408218061,12.059981048693977,-4.133589123680556,37.37734479639427
180,0.015267169434444745,0.01011944871685515,1.0135478095704455,-0.021648952779976194,-0.02422321489500151,-0.030152365347639168,12.130602488178203,-4.3625683085803875,37.46982044078927
200,0.00834576202448294,0.009834117976861144,1.0101221332300574,0.22710144537522556,-0.1306370775112392,-0.38547942323278694,12.107603703178347,-4.281316411137042,37.5115636380905
220,0.011337886304654373,0.0044380727345743965,1.005965495080872,0.2374807784120013,0.07373374065348784,0.018325115761365862,12.256702266459325,-4.300487794970281,37.422210282399966
240,0.009077506381058939,0.001108762233437277,1.0060791355600442,0.3534419937384772,0.14599408695917582,0.04212357528631672,12.184659547832453,-4.232000660265178,37.51242261437819
260,0.013932707469960937,0.0016417398220889205,1.0109414253892943,0.20432579740899162,-0.14379165974482444,-0.19176105298079205,12.152377876167488,-4.304158010421726,37.62107475207713
280,0.017686173413533467,-0.006207518069502142,1.0116585927288524,-0.040055339934167905,0.08070402334099788,0.033880428522201356,12.036085332189032,-4.225379651812786,37.576285040296106
300,0.01576601964213929,-0.000621084757918164,1.0108835379662888,0.05952035669557475,0.23092148476173538,-0.14781798822581685,11.968911104249532,-4.180858158054563,37.56652831329934
320,0.02194532695798787,-0.005432459410208861,1.0126455965939307,-0.05528368799906,0.09589744061774444,-0.15599148147331865,11.885211715126703,-4.1577607178358225,37.57211249646328
340,0.020457673698516456,-0.00010265198094789631,1.0094368611190367,-0.0725383509691905,0.009116367513537171,-0.16718498532109016,11.930662627028287,-4.149749789088667,37.59406365157459
360,0.022615582104492923,0.0022637516491666493,1.0125095938965627,-0.21278713214020117,0.010614943014404892,-0.261265774122581,12.05735801977458,-4.13595503423578,37.50027279091236
380,0.029173210406987206,0.0022044235702451025,1.013158011435271,0.19846766370688296,-0.32918754445045595,-0.3912012566798303,12.051045958125508,-4.0753908665748435,37.51097187646976
400,0.023654037113844444,0.004039455683859308,1.017299158980708,0.19867307607014562,-0.25888691955137655,-0.24526490981041266,12.014756487045592,-4.084886781694792,37.50712403303263
420,0.02209356635237784,-0.002114953525384945,1.012541712013418,-0.18359749313094303,-0.35424033149112033,0.1646307677085524,12.003274364925682,-4.113870685072847,37.35002726760907
440,0.019445125126256197,-0.004509291985838222,1.0190390945389796,-0.38324736308753804,-0.009180221573006131,0.08798520373097521,11.995451104954718,-4.150964060094085,37.47773956529562
460,0.01991776703658606,-0.006597119425904902,1.0138340637654795,-0.07908671167058684,-0.4142737019064034,-0.20102537611561025,12.098304205831425,-4.2169616204204825,37.63450309442511
480,0.02501982405531921,-0.006933937455953273,1.0139868435001804,0.06989239212898143,-0.37017896053545357,-0.10068950252071367,12.019083565321155,-4.330036206644218,37.61655896653378
500,0.027022554886056392,0.00021774455899529425,1.0193092025241903,0.2115480377790988,-0.11620774444251342,-0.141711485821873,11.849654589711974,-4.18956572118829,37.45466393897685
520,0.019458525949473306,-0.0010045915929615004,1.0137799996646064,0.05891809637804321,0.07719305990362907,0.2097043409250389,11.969407432002148,-4.285428943339379,37.4451468760636
540,0.024479257522365926,-0.010637982378097271,1.0115265216506697,-0.34582745231330503,0.16586855933829825,0.05392713053940218,11.918701305993372,-4.2976112526111825,37.40534563791896
560,0.01968318557634151,-0.010982184812077635,1.0120950920710332,-0.032567962593506694,-0.08219483920947304,0.45487370599875837,11.910327432921742,-4.389598210121881,37.494734001234455
580,0.013662391455965161,-0.011405798259239661,1.0123555184865647,-0.004180326333981521,0.07570098725152338,0.14313984657077533,12.01129890734408,-4.383965205422949,37.45316273118685
600,0.008228425471001641,-0.009404756643992216,1.0197119212956267,0.2960957621904198,0.3729359168879346,0.13266740632056115,12.078710738494827,-4.281337332595287,37.46429015498556
620,0.010555826390713053,-0.003676617150728403,1.0162730822793604,0.30493381001475106,0.45746607498504877,-0.032742290753423386,12.084610398876666,-4.244935428981265,37.544439058393046
640,0.0124790671940033,-0.007525041853835484,1.0242323816369363,0.11241044771182518,0.2990797173536224,-0.06641238332643495,12.102510733159267,-4.235313606343515,37.5867152890911
660,0.0129000249395825,-0.007662009392223763,1.021129071493211,0.164730326572903,0.09762505431503432,-0.15538912207681238,12.069128875909263,-4.0816165162585785,37.54939580448578
680,0.010368711100333699,-0.010339168671920022,1.0314475814115447,0.0903615631321989,0.02792734677372556,-0.2081030993960665,12.117698709302756,-4.200612310844703,37.59091698645917
700,0.015354642970089493,-0.014124869693490387,1.0257646562719218,0.16701008640476664,0.08853690002101866,-0.30723178956843145,12.227016049468938,-4.132462998800874,37.43968815717915
720,0.011401547247559986,-0.014786686244641963,1.0194191642370312,0.06899532991420815,0.041639511697647125,0.04708589336414143,12.169129424703405,-4.149648471193478,37.408167185128775
740,0.013897526168612758,-0.01738872565585508,1.022355953970681,0.09021995693831528,0.348544901505443,-0.0907026778681349,12.067595793291984,-4.256284109900369,37.50495592929804
760,0.008797285358648398,-0.0104667177474456,1.0258110476387743,0.011031825510104357,0.34679116242903596,0.20475866611889443,12.095148502052277,-4.311739695036042,37.56709793160006
780,0.009203495878421626,-0.007164940962732132,1.025745045564211,0.052693455885262024,0.3673228323775796,0.023107233774049968,11.952319467947754,-4.3114542692489755,37.46326123514753
800,0.007423288322517242,-0.006491621387224988,1.0258550008027216,0.40742585386570707,0.07741023282852783,-0.11546131116267999,11.908592936400343,-4.273849634706304,37.51795390786348
820,-0.00027221927019166134,-0.0018837133748393102,1.0264820385037552,0.266419145868581,-0.07478066429384406,-0.12493004386156534,11.965858702520434,-4.222201137051045,37.55077060474831
840,0.00015695227364312972,-0.0027967913184545373,1.0313972299117493,-0.013883879496054075,0.5479281465203891,-0.0948592132874668,11.854011056837036,-4.069705054076117,37.52539173141345
860,0.004996932393917801,-0.003550475063878163,1.0349675920965715,-0.3068036715892214,-0.11766909269905979,-0.21839179302259942,11.881017658497012,-4.062873212913883,37.54221883417532
880,0.01077072448430303,-0.004430074314012291,1.030781836668891,-0.17606965295656002,-0.06879134752167243,-0.273805826520883,11.955483666824145,-4.09456343888692,37.55949852226092
900,0.014119792579299517,-0.014752055969790429,1.0267294977308037,0.1797289445757269,-0.10630120603278628,-0.23413618900815053,12.072215506690531,-4.120585154046398,37.53653985454227
920,0.008698405508045577,-0.003344958880653356,1.0313485499959776,0.31874657284320024,-0.24085345103610326,-0.25376298461737545,12.172844300491695,-4.146212620442071,37.40243480896765
940,0.01016146634984088,-0.0012825020288239645,1.0348219354142254,-0.005286055214922314,-0.04836109681571249,0.03361836946055369,12.107692427069075,-4.205168617088352,37.38567463899001
960,0.004909216021351368,-0.0016905582899005866,1.0298627649423475,0.021835192937384455,-0.39125978614118667,-0.05421262721846436,12.069995894676701,-4.246005724669248,37.45950126900808
980,0.007487127096070731,-0.0003822451049584389,1.027260937301361,0.25573573129125715,-0.165425858700468,0.30434222654288917,12.134437692826806,-4.3416991628772985,37.48207414772457
1000,0.012288452803185287,0.004198892712948661,1.0237491627649464,0.0686909751665894,-0.21156587820884815,0.3867862543928031,12.072143803734534,-4.173961994644642,37.51059988271285
1020,0.013404212804641012,0.005650189470856793,1.02924812684606,0.36901672452241985,-0.02072796776487218,0.049618749899955406,11.94899592936759,-4.156226660679454,37.5204010144158
1040,0.007826772285007317,0.005723431573391531,1.032571186422387,-0.18278317844734193,0.29094965571709824,-0.059435218559268574,12.164698575808792,-4.052726161140712,37.54957236059282
1060,0.007546332994003863,0.0014428141786240146,1.0320073590822814,-0.08987228291332884,0.37161581696750257,-0.0912944532146748,11.967249679135675,-4.06093508766377,37.535460200447815
1080,0.007991497956798746,-0.0019462063331358798,1.0229404438222667,0.2677795032556363,-0.06581200263828701,0.2348789329186303,12.00844137688634,-3.9980633995069312,37.52563588448299
1100,0.004244126658017428,0.002007492643581156,1.0288749461683322,0.0027722087537880857,-0.12144975958841568,0.1299691327523942,11.963510195756967,-3.9964954573876526,37.57130899189311
1120,-0.0032742044320858525,0.008842209799695001,1.030347059254871,-0.23637901150058277,-0.0495044756729546,-0.08533416267984476,11.996883977175585,-4.152581441234355,37.53761911090861
1140,-0.010287690399617286,0.014918802440538781,1.0181855859374604,-0.21346645934465988,-0.03541851025109874,-0.15118891168983675,11.96837440051303,-4.175123383930362,37.62381499296523
1160,-0.004353908000504637,0.006796710618012765,1.0230608215443149,-0.3931016749038182,-0.029468976714464096,-0.07394210740300879,11.985979929831755,-4.085554039367232,37.58838638339683
1180,-0.008870932395190573,0.008229555902646412,1.0275172977812315,-0.3070135330987409,-0.24113039314016926,0.053372503488288245,11.86906920213465,-4.15093807511479,37.504889468070736
1200,-0.005212529324781582,0.0014499993589704094,1.0346993727193772,-0.21247027253980183,-0.10988443306617587,-0.09996144366601377,12.0114283612785,-4.044076106050751,37.50724733624657
1220,-0.006048890248234947,0.0032211408183104285,1.035930538616719,-0.07800620699572472,-0.18247250130422568,0.10530627660949039,11.991583722906983,-3.977677177287222,37.607092108901234
1240,-0.009128557437502096,0.0030972223568375354,1.0338350591510646,0.0535777029722998,-0.37946951498447146,0.19085113280461144,12.021070436986722,-4.134078910504038,37.51136091969785
1260,-0.01299166822483826,0.007620685233254912,1.0266906616990357,-0.1318625966564396,-0.17516335409572326,-0.307249006596118,12.090885645160899,-4.203119109915753,37.38195535417139
1280,-0.006921296563333864,0.007844225158765677,1.0305220909523236,0.21382349598303987,-0.40006226551552404,-0.3715931365650195,11.837027610538108,-4.208475322658075,37.50004866243605
1300,-0.010953133005273182,0.0028996059260073806,1.032215251420469,0.2659839920956018,-0.1631143384610206,-0.28531535467230285,11.894125649146394,-4.197487562857569,37.62620922633006
1320,-0.012298608786335319,0.002506171051162708,1.031086485985564,-0.046564162468590575,0.16839172050555754,-0.25548171393603986,11.940381510378838,-4.050283130518304,37.639248056794486
1340,-0.010944743510035658,-0.0003400687168926314,1.030142461551233,0.01191983195587483,0.006947097642547945,-0.16577410073662552,12.096511462905998,-4.149728221708523,37.56390777793851
1360,-0.008195521972899376,0.0021256641920207584,1.034220152805233,-0.14857096439694306,0.42332075020869797,0.1084919781799506,12.028786934555496,-4.195365698995436,37.56355749407833
1380,-0.010990945413667689,0.003003261115639063,1.03143025703131,0.15918738081591577,0.44596328563218574,0.05350866337996104,12.00726045549632,-4.378512620810569,37.57916302544083
1400,-0.014949602140000897,0.010703958870527865,1.0381288531536053,0.16644659762252453,0.22448833370404114,-0.18515499319580422,11.880208873316171,-4.321977862467713,37.57292620616661
1420,-0.012831331859486006,0.01803781131521485,1.0352661436620967,0.1531547046678492,0.1143270802477225,0.0749808873522089,11.978525009463912,-4.357872272361065,37.52742207463832
1440,-0.015651524310116734,0.01915381884734191,1.0293252407109856,0.44056781994384514,0.2851410784184259,-0.24914215553891392,12.084436549202037,-4.365638949468898,37.44892769123534
1460,-0.02450664218519652,0.01829957357579527,1.031406914023735,-0.0689990840050318,0.01574969807694898,-0.3081253424453212,12.105490923140263,-4.501218478201449,37.43236320254638
1480,-0.013915818850808472,0.015336260013579277,1.0301617461773356,-0.11916247832194837,-0.17130044740496012,0.014509963086487387,12.025426495016779,-4.435922220996181,37.46077740008206
1500,-0.014615856105567,0.01620590963690194,1.028258735523363,0.21351976498615205,-0.10404321305494664,0.08878600606563149,11.914131494591299,-4.235300070095583,37.44697199098771
1520,-0.015775063743511897,0.013849825062919182,1.0265806909252244,-0.16444708114065254,0.03411475869093124,0.1270696647721481,11.886298147586329,-4.235570151729399,37.425759973832314
1540,-0.01408685988704117,0.019298370542552908,1.0314115110228121,-0.014171313102318756,0.19767916392736185,-0.09598981380672159,11.855313537905218,-4.185187106678586,37.409260202181365
1560,-0.02106459293631842,0.01665579291665576,1.0323640257415116,-0.13989868029444047,0.19780296479676082,-0.03502635622347224,12.015714283935898,-4.095593173447587,37.3790619735666
1580,-0.01665619045708525,0.012725405637473547,1.0305990485093814,-0.037682347032948926,0.37615072451490983,-0.004918361642097659,11.965661492201225,-4.183728411705967,37.57467391921783
1600,-0.013400921483074667,0.006796363553940903,1.027304089745522,-0.1628266522496352,0.05273388572526544,0.12547404284399896,11.948042112977177,-4.198110382525956,37.54933235388464
1620,-0.010433229109038994,0.006095484175654521,1.024802076985062,0.1037423137934593,-0.07218516149139162,0.06856830101845901,11.959987818759776,-4.128611271153772,37.55962258635993
1640,-0.011481548256861557,0.0033344007518599714,1.0290960035766887,-0.09951150321233035,-0.11224414600082312,0.02860444781820031,12.02134577679951,-4.218668873783975,37.51230626474285
1660,-0.012916385539444238,0.0036761265308762714,1.0344649910470058,-0.25829238227962925,-0.03613363711082633,0.08972446748366864,12.002690613898617,-4.191014038059479,37.562736996913294
1680,-0.013118432413144074,0.006008273237019011,1.0257076851757618,0.28821171499217835,0.012537492062310765,0.14462426249389965,11.970011085239738,-3.9695195023153023,37.55357761271244
1700,-0.017645287061135856,0.005148450456703038,1.0280237956665077,0.20362459024864346,-0.08606664375449985,0.039812731888603514,12.002033980026212,-3.979351650365692,37.56107212045975
1720,-0.019001507743995005,0.00102796163665514,1.0286127114383945,-0.08640444847284459,-0.30791591638891413,-0.07317478376328712,12.020542606333517,-4.005840957810608,37.4715225569087
1740,-0.013583317538371206,0.0056128783747208056,1.0287119912586193,-0.06965599368552705,-0.13314945776562176,-0.21009102854079587,11.904572367545926,-4.143271885401713,37.53267417578217
1760,-0.011876494012029008,0.003555083022220125,1.0250686143868646,-0.2962941582163896,-0.0871733106992809,-0.3659471996175635,12.056769978653891,-4.202205013504977,37.33214773797546
1780,-0.015076705394850344,0.002214154317268557,1.0269521924328386,0.1460258471596676,-0.03154122088490386,-0.26023931832107483,11.988559827404256,-4.1546639509903835,37.298520079966806
1800,-0.010628900827694927,0.006001790225587228,1.0223826510258514,0.04839087861888017,0.3321567312512753,-0.17371219456810036,12.210604665033186,-4.199168619754783,37.3145259178406
1820,-0.010212585856109626,-0.0021214544921962734,1.027436519116457,0.004636791868286257,0.012982139641047441,-0.08507325454732471,12.131268086467413,-4.372744849819478,37.343649067589915
1840,-0.007190229514894779,-0.0026572519156362554,1.0310380251391429,-0.09786435617043454,-0.21158704383568014,0.09901478516186056,12.162420073216884,-4.212321573744031,37.378898610323006
1860,-0.013267586287333578,0.0011695135696431968,1.0260649287415284,-0.29625364317209324,0.020932944649357244,0.2020362485585543,12.197757977904521,-4.2492409645588305,37.357714908531314
1880,-0.0032706377521297385,-0.0007172008072110368,1.022879603143243,-0.3957101126311809,0.38136097438577105,0.2556581281119648,12.205182888217212,-4.135316467871094,37.471270562904586
1900,-0.010787130401456884,-0.007281921892525737,1.0244502453267161,-0.12532742022669457,0.3819934244539327,-0.0563784159200037,12.1144329741267,-4.161819351169195,37.51168246315465
1920,-0.0048265532204229905,-0.009306995404480056,1.0224359116372117,0.28845107360911526,-0.005417061518515343,-0.13263456666991258,12.196070246157541,-4.278807530215157,37.44389195101599
1940,-0.0032072311382912565,-0.007305491847343287,1.0178147720616624,0.060228116889594396,-0.136837645057497,-0.06910710132207477,12.122342057191535,-4.278110059353288,37.45628146927134
1960,-0.003995473429693117,-0.00739212270607906,1.0169447241919358,-0.1887457630571211,0.17333882137110565,-0.236533156754893,12.166199195879475,-4.301991502596594,37.54878154967446
1980,-0.002766296246465105,-0.009355379602983703,1.0189648576864407,-0.28569712116947055,0.23726242500854489,-0.09972960883677479,12.225932111745808,-4.261864348795897,37.493300628508514
2000,0.0018009700017684854,-0.0010223802994257288,1.0118475488416312,0.09388163948749106,0.4185198493845438,0.14287799931285244,12.098235488329113,-4.14962865484166,37.617048749098196
2020,0.005678584635832466,-0.002480048694828375,1.016741320500801,0.10859035391822153,0.1763790505644234,-0.2579933816912407,11.901351152556213,-4.120059990656664,37.54178537701232
2040,0.009198261033026678,-0.008870029571750924,1.0149696697477715,0.04469407937967111,0.21983604509130056,0.21160730088562973,11.900829783933993,-4.0941835825679,37.499808413071584
2060,0.0051858887784332185,-0.008553605133934916,1.0174393622706568,-0.0632313477963379,0.0933340995061642,-0.04561615506413902,11.963020461890252,-4.000732313732938,37.5149312528912
2080,-0.00020312237134869748,-0.008760583576894763,1.0141481411313276,-0.2402561989260285,-0.17150132725349163,0.2856976701017105,11.948735393101453,-4.116596469239548,37.369870831351065
2100,-0.0014791457376013323,-0.010624108295152885,1.01651809741902,-0.42190189530275074,0.05211058627578366,0.4351458439538116,11.938419019127458,-4.202415218481614,37.460600016696205
2120,0.004910524295329325,-0.01562725102905376,1.0164686685262148,-0.20392345793895378,-0.13276359770066973,0.5547091261931612,11.854523641121737,-4.240456083279407,37.43220001173465
2140,0.0022323873427695417,-0.013513746666101459,1.016662117073946,0.10049807789075427,-0.0556809091293642,0.27120724989183354,11.784865065843192,-4.148829012444333,37.40395435650565
2160,0.0016449444313566155,-0.007712681678978851,1.008932333171332,0.3596102191054923,-0.10365186017024508,0.5130674832449393,11.857460607302764,-3.9864439128496443,37.451433922986745
2180,0.013014612019829041,-0.001387245056623525,1.0199904540339952,0.03910303170796653,-0.5483079126774653,0.2537371092120478,11.869244828870325,-4.181136740673284,37.37370670675714
2200,0.011739462883022016,-0.005030916611068123,1.013229844406039,0.058356752164435,-0.28232498198220185,0.1801374676476524,11.934748179531663,-4.14288289164748,37.42051009464384
2220,0.01120717016787482,-0.010039149614105826,1.014615176111901,0.22722995312065927,-0.5897376087733105,-0.17684490614392226,12.092665993325095,-4.10048243023374,37.487068695957106
2240,0.017868370462250007,-0.007461869190889115,1.011773178956057,-0.04605441671268931,-0.39227365046793083,-0.08815475676775537,12.136398134924539,-4.213741921356847,37.41064001835057
2260,0.0151794885219279,-0.006403865373490633,1.0117719522937294,-0.010147551266679829,-0.17955393773898962,0.1781549452713947,12.17830428719768,-4.1355099883911866,37.50300174558359
2280,0.018745120482417055,-0.010172319299158697,1.0093942425652507,-0.08031887293382473,-0.3290575735325093,-0.043008092729449526,12.134583613439393,-3.906492559161318,37.60834345782699
2300,0.017458199059029643,-0.010970174310594119,1.0125798879310124,-0.07363604731329101,-0.31591579312647916,-0.18114626713564172,12.042521463054404,-3.990807925957621,37.627118535621186
2320,0.014391231103797069,-0.01259461783429457,1.0175036265704342,-0.11583626598630661,-0.23491568152450062,-0.26829634429402777,12.11833654672654,-4.045289647339379,37.55259997413162
2340,0.01715744069666635,-0.008008705756946954,1.0223217378055875,0.22520923190832612,-0.4278829900038035,0.022763642945558604,11.997043646434426,-4.231552871533197,37.500661943343644
2360,0.016031689182201957,-0.009425346396423864,1.0094407418240636,0.1425524130367029,-0.19756402217606997,-0.057406019445131906,11.97194528417345,-4.380671049197966,37.34837391879931
2380,0.01885174375287883,-0.004356816257770046,1.0047328471265902,0.07018164873675377,0.11945251332745951,-0.05493413163596889,11.957689224176034,-4.441765369419321,37.539620929289455
2400,0.018318570919517566,-0.0034473926405117297,1.0064218571146641,-0.006290613907481937,0.3041094143161662,0.024915447603039036,11.933885231305963,-4.221138526420392,37.58800089426897
2420,0.019496024470693093,-0.004208561744968592,1.0006138038569932,-0.42137410537346404,0.08527916259487398,-0.03408996660154969,11.922739300241966,-4.206036161034865,37.48921794565348
2440,0.01814315640309468,-0.0031981385156342936,1.0000721187012926,-0.11677867842320322,0.0882583986121427,-0.0008704703517627352,11.993454023091397,-4.198690686235985,37.54894362655305
2460,0.018986992747026532,0.0016630994624377829,1.002070105402581,-0.14426081738110919,0.2359467262286214,-0.5469258582076825,11.964338613525529,-4.12472308833915,37.61147624565477
2480,0.017900001037195384,0.00416619682194367,1.0086452817793543,-0.07971996186603643,0.18811945936276409,-0.4504870809935972,12.020159036917251,-4.247536455455975,37.31610227496291
2500,0.016495435492827337,0.0008337514829090567,1.002392157071018,0.035932843475113066,0.4331005247681458,-0.579951298424106,12.192967225616915,-4.246943584088119,37.35156280831824
2520,0.00791159941876905,-0.001232098166352944,0.9981892053769206,-0.3317749193427495,0.5094639052504081,-0.11808424540028167,11.959142927925614,-4.270889265066265,37.44086737219055
2540,0.0053333736905413695,0.0011533852408305324,0.9983785880748633,-0.06098135045685604,0.4000838170805703,-0.030845220474520152,11.875354085106354,-4.182953738023103,37.44169028831324
2560,0.009395278195957625,0.005759361347925966,1.005421252091758,0.012326666820471913,0.29933952335201464,-0.4742690524938052,11.97477179708196,-4.135509635064394,37.53326087880845
2580,0.014046828214730687,0.003266890522997305,1.0014385952423002,-0.23938632735890575,0.29573568572476827,-0.032344604196595905,11.883794640995704,-4.222133630060315,37.48762760730009
2600,0.012369519588906282,0.008199503161788399,1.0042598436701595,-0.05787856920199938,0.1800768130254028,-0.10745619322554993,11.88657496959694,-4.106321202761219,37.43413543553359
2620,0.013596770118318693,0.006887738423199967,1.0003973498466827,-0.08570803289562712,0.06698739650538724,0.0007633104734789814,11.885967236795029,-4.129735302648661,37.47498534686593
2640,0.01759948361392931,0.0037283395224826355,0.9911336446824058,0.02453799578780655,0.059660738453314356,0.24974049833970563,11.901028791376733,-4.2347939575610605,37.42019752566061
2660,0.01750321548531374,0.006457077934008817,0.9941265859804014,-0.18558263293379787,-0.1134637765956697,0.3050199770759052,11.827702468093234,-4.19628650855374,37.39465391654753
2680,0.020770289774413433,0.005728912030053952,0.9971724140573907,0.09208239029465612,-0.3860945877138644,0.32121878942470494,11.915795532876418,-4.129806391872096,37.52984180039516
2700,0.017023384676419527,0.005690744890012606,0.9959598521745651,0.07352886022457511,0.09203427717700757,0.21965067488892756,11.909700517790862,-4.087435449391883,37.594343058835584
2720,0.016524306919696634,0.004251164056437806,0.994358550603754,-0.15781106834162809,0.18887430647716297,-0.18460581444897203,11.902098687952765,-4.080321770921414,37.549835685192825
2740,0.02295894902273776,0.004767780072937035,0.9947990011630324,0.22489861741957914,0.4459119248129365,0.1501768464942624,11.925984519073218,-4.062061740702877,37.67453495233842
2760,0.017603485276936726,0.009009342975777428,0.994004495320903,0.20139969561896942,0.2688317891466806,0.22419555947621694,12.102718744344921,-4.151945520853087,37.633040489197775
2780,0.016876705669931952,0.008531118265497462,0.9960941736478862,0.1896693788994501,0.25500539296870967,0.2272070553908504,12.100512055066032,-4.05897198232882,37.44742161445873
2800,0.013451455291132768,0.007261175957535987,0.9889809874481734,0.34375890400603804,0.347997872354231,-0.022530436655115837,12.042048167301289,-4.160852353399942,37.56379152889804
2820,0.017683882648297948,0.010305232902136372,0.9849675631530076,0.2188302029967602,0.3715367355987333,0.4040600900257119,12.12769262001775,-4.15164845664406,37.58432305743735
2840,0.019850971295999567,0.014767724321319068,0.982637851405674,0.117797901674259,0.2791068043996998,0.09958583203484106,12.074947100913652,-4.074996067044985,37.61159513711271
2860,0.018789455253442708,0.012140830834319256,0.9858105281434704,0.0025008912798609173,0.29411450409328,0.2629684644143508,11.95959251907662,-4.010557370621676,37.53303397417147
2880,0.016945209028994684,0.011546271141212077,0.9870412481978429,0.2010304283135033,0.35928227357195586,0.08046433820648677,11.91691823404961,-4.209836853087575,37.55154260273794
2900,0.01540357953841692,0.017663742284012643,0.9911232663434145,0.3013447686787235,0.13343966891655593,0.027035167010864287,11.926982393212162,-4.004231338976801,37.548632142050614
2920,0.013993774463959446,0.015991483120321556,0.9850522780166221,0.006793270037987742,0.10703088500526951,0.03551072712447056,11.987570705715296,-4.107555110396531,37.52909474043035
2940,0.01043460080749219,0.014131019621999674,0.9849472142222088,0.0805741239475391,-0.08360058785461265,0.17847125431154237,11.91905157827873,-4.1439985169843725,37.543721225697205
2960,0.009379401637888656,0.023225571358812525,0.9863219847495561,0.19765692870996543,0.24732136085408352,-0.056705141338154436,11.949901239399383,-4.155189306042694,37.46626901764651
2980,0.008391806492161065,0.01824184571394504,0.9880229035890169,0.07469692458726926,0.24063757522089133,-0.07572652602552496,11.723819794681724,-4.14624125906893,37.486230428274574
3000,-0.0002446509973742846,0.10617308544540185,1.1335293299423315,-1.2699414924972967,6.474885794460963,2.337010214175619,11.330302394428973,-4.241457942180226,36.839424155441804
3020,0.02237681641433787,0.1604097181245467,1.2076358346326812,1.5982042599306647,11.551429598170673,5.107935476163784,11.143038980257133,-4.282183408019536,36.699961580995115
3040,0.0630602710024589,0.2142077588688498,1.2524098852384509,5.804103483780047,14.940741913434792,8.5846449752534,11.209393500719392,-4.544503927115096,36.60621010626096
3060,0.11084239219998186,0.25948655607455895,1.2573915053486147,9.100547076287821,16.471200117027223,10.69201555425487,11.136698186297938,-4.594858387395883,36.40894969511006
3080,0.15539782549498707,0.2893194595117996,1.251278750886124,14.418004177164221,18.648198871387166,11.309400824493679,11.319716811388904,-4.569831510955836,36.2661973745499
3100,0.20627556409102793,0.31629194927187876,1.2362457554042245,17.506502404264445,19.459991655855426,13.047588459181785,11.054733707769152,-4.594206307087648,36.34715381819207
3120,0.2598359686323963,0.33749472861019797,1.1880522870820953,23.095243032915995,19.764060077141586,12.883366834039611,11.068341895909459,-4.674773434390451,36.42735532981604
3140,0.30423567407301466,0.33618480622565977,1.1677623838856706,25.29460566095697,18.993455413647503,14.036203484699593,11.194389309936483,-4.567974995167816,36.414484523873426
3160,0.3208798967964416,0.3287086585610599,1.1330524984354926,28.460817441888903,16.84244283903077,13.930010841249992,11.078092354014785,-4.71307159272677,36.355645390012356
3180,0.3415818377139005,0.3142004812859201,1.0681174073167328,30.61596929485997,15.53031550761229,14.393435981600929,11.147127365985124,-4.619277667815765,36.34960831048546
3200,0.3694177575792297,0.29783942686031145,0.9987390635461579,32.0768832407682,12.826791729897629,12.786121094258077,11.426447769979191,-4.662773782857747,36.42847683873964
3220,0.37651476379541,0.27476850791623003,0.9223758419208681,32.54074348780409,11.958665618523453,12.155563530986507,11.384215208765655,-4.630448031375538,36.48501566432106
3240,0.37231080624575724,0.24330913965431716,0.8362513639317588,32.90394570998287,8.565843736131031,11.348492862747372,11.306186518147953,-4.736003405068511,36.46610201222696
3260,0.3719207668995277,0.20273528896877122,0.7712511127607724,32.77392862215006,5.454637891497777,11.180449429906908,11.407598236835046,-4.665387964403882,36.42786156385094
3280,0.3626904714576825,0.17593074951449614,0.7154963928094974,31.886070341424865,2.6348429825862705,9.6699826090912,11.405823917279267,-4.427928490522395,36.46225737165826
3300,0.34451583396254476,0.11049856153791295,0.6257406698298991,30.078630249586094,0.8205449697874114,7.54384812623961,11.396630993156334,-4.6525321590973,36.35565806532734
3320,0.31827445374760893,0.0569249889556291,0.5765459030587743,27.654354573177987,-1.7989477895616626,6.148988324179883,11.385969034396576,-4.666218118731928,36.50357804327533
3340,0.2891357258319188,0.0091639902731772,0.5325081927619247,24.446484225812046,-4.775179737297778,4.6043570405078444,11.554605974286414,-4.6321774333876995,36.57165390346146
3360,0.24436493178583477,-0.04756423127613996,0.4715800889495523,20.04198239010347,-7.130843954953653,2.3264313447534954,11.533149322283949,-4.556478536408476,36.413195068541285
3380,0.1965730855998578,-0.08919406377584427,0.41941049212977993,16.559130671198425,-10.067757275703032,-0.26832191926934756,11.45360257707259,-4.723761266353472,36.300445890364244
3400,0.12715396379824706,-0.13500292808219072,0.3931866079472269,11.660852243726126,-12.606486672797338,-1.0592302678721541,11.463016799559082,-4.738902298655764,36.40484448157299
3420,0.0709505350461284,-0.18553141515464297,0.3863541671934543,6.503762788177133,-13.824103164906358,-2.869255450553897,11.449504883042534,-4.588065006496859,36.329274060559044
3440,0.023330168027943646,-0.2317464645055973,0.3761115814735895,1.0843165601355107,-15.69282956360614,-5.702211080052637,11.409179631362703,-4.610806225630095,36.46152156290339
3460,-0.04637723013034106,-0.2601555446551108,0.37057760195443207,-2.1528652045822443,-17.186210469337702,-7.123673034818865,11.346599450785096,-4.782207075280258,36.47636921992183
3480,-0.11672231700951168,-0.28711025156190484,0.38564673302314567,-7.609884324762797,-18.377308541338486,-9.078614316176031,11.514221393099685,-4.733507608554089,36.64292239267961
3500,-0.1614089749635617,-0.30616439262862,0.40551641652696174,-12.213352633297752,-19.18983074660271,-12.159545587856517,11.53304357195468,-4.742958476499612,36.69813168392962
3520,-0.20390518349522235,-0.32622405529650367,0.43614812376971696,-17.085977178307697,-20.19122752585575,-13.380226302799212,11.275265902740864,-4.689724501930702,36.52482544536393
3540,-0.2529240503511525,-0.3354602073906618,0.4779346607881844,-21.592556401668666,-19.93337887443381,-13.537573753839801,11.483918722867623,-4.695232981876707,36.40180041579663
3560,-0.29269792015239227,-0.326631432173147,0.5381285113667937,-26.24978711250699,-19.10399902591915,-13.970683858848368,11.43494465301065,-4.769615903469269,36.2382687421421
3580,-0.33294877495110586,-0.32060745594221274,0.5860347898085607,-27.842352871914294,-18.147814669041782,-14.732126460563244,11.439982313814488,-4.77478041870909,36.17912700233444
3600,-0.3566069094699421,-0.3121231663199939,0.6556438075024551,-31.216260011700257,-16.02135911959557,-13.927539661760079,11.455423920178648,-4.9357727487465555,36.154768214660436
3620,-0.38157386157901857,-0.2901312391585721,0.721101247933137,-33.18718131744921,-13.467535896841634,-14.06508685032114,11.557515771742342,-4.84132239953606,36.26483047391606
3640,-0.3857359039048548,-0.25790679529413096,0.8007095122423024,-34.106252608983944,-11.553416166899748,-13.23620555456309,11.578539576114979,-4.806469736315188,36.2845752356688
3660,-0.379683191300684,-0.2295196094598849,0.8654354579473849,-34.395943163236595,-9.839994800545492,-11.540229586624648,11.508488982462746,-4.776576524404614,36.29477174746052
3680,-0.3677200039769946,-0.1957600336570566,0.9319881310297025,-33.48454122929815,-6.435469810483121,-10.25673888915214,11.417620955924953,-4.718859498975709,36.22926200049794
3700,-0.3666009807616179,-0.15272013160992298,0.9921343382023845,-32.19282701796199,-3.853049529149727,-9.543752724540594,11.51269112558314,-4.807663709413896,36.18980220888529
3720,-0.33946625590449553,-0.10387671380753202,1.0582514107742387,-29.704035200599314,-0.4353838564525052,-7.181554785537808,11.497375529010064,-4.933972814955453,36.21380244224864
3740,-0.30374003945657513,-0.045079180567542905,1.1313499930222288,-27.135288056062404,2.44142172074571,-4.715248447992324,11.523469752868243,-4.935140913471511,36.06146020345575
3760,-0.27020410206727474,-0.000743086030152551,1.187667655821359,-23.543889047801127,5.860834900185629,-2.5828374732833685,11.482386317762593,-5.030396316892836,35.886097851484486
3780,-0.22436893463805294,0.04742620008911211,1.2262400800962048,-19.422459249715537,8.310012609894098,-0.33906878266593754,11.506547030844267,-5.023297738461973,35.91229922264314
3800,-0.17878657636670603,0.09181809882673095,1.2684117317729553,-15.194695303175486,11.04775216656929,1.0284794262868915,11.379770737510064,-4.938291550336186,35.90292289265567
3820,-0.13200121509975443,0.13640219967187606,1.2949318773688947,-10.213622918768714,13.052440084711177,2.3788378381162936,11.082353783654488,-5.006477959422411,35.939996122360675
3840,-0.07429395576080207,0.18732841344713294,1.3220654993604963,-6.505176225023488,15.022906036224228,4.027720977639687,11.212641175558792,-5.03523374531964,36.05575848215211
3860,-0.01374563903231852,0.22713918661702104,1.3406275611392855,-0.8498041722409697,16.217594405597875,7.109768700544997,10.992448124733423,-5.060610940095755,36.0562375460793
3880,0.054848707234610876,0.2610690095769478,1.3300865462493636,4.048734138772239,17.533180191354298,8.471977446145962,10.964492599799549,-4.948473028841365,35.90604263123977
3900,0.10359224700980862,0.2935480313616897,1.3085756518075022,8.78152669711389,19.15414861994264,10.79299146273801,11.222449246207562,-4.975687239119278,35.95618922200503
3920,0.15422904035997773,0.31695563760472395,1.2870882546762208,13.799171025154019,20.194009696064107,11.661972972561435,11.056737860932042,-4.873938364112956,35.81334447531086
3940,0.20821256001463234,0.3375125915874173,1.2624280055164896,18.881006940657283,20.156962478319137,13.92395067497397,11.186105310021784,-5.078087136879926,35.82363003049693
3960,0.2621059715463746,0.3284590920448299,1.211073397370236,22.590754069012707,18.65555855682827,13.893486013936817,11.141689676405655,-4.937211129452019,35.75007170734763
3980,0.2974647524210008,0.3350115072727921,1.1560779588615837,25.188522743870692,18.328897391608635,14.147586506177737,11.176151810343296,-4.917450314226565,35.980794025632854
4000,0.3439409053131684,0.3291997303129942,1.0899947281817597,28.72211432691146,16.85645880097927,14.259262359383298,11.0506856291993,-5.056575457460119,35.79256916686183
4019,0.36860533730286277,0.3038404878733506,1.0244143745315133,31.28694507788486,14.990988382664698,13.323427476031947,11.14380149568506,-4.935962107882109,35.69240933052416
4040,0.37696507084244457,0.27283954036494745,0.9586605160488338,32.02359123224287,12.849416890163127,14.134746179384825,11.099888964313932,-5.045949549648489,35.63745790693751
4059,0.3795252879382083,0.24911645809167318,0.8713882019071604,32.708281536269965,10.277821376432197,12.570143115669762,11.059415507368625,-5.010469018753933,35.72950403587355
4080,0.3802448235332251,0.2269959237859295,0.8107340619429375,33.633488069135446,7.454096970821563,11.53094120675044,10.875967141809166,-5.168108682644582,35.46846173129607
4100,0.3739880169526632,0.18081277082037356,0.7456787479552917,32.36610415202807,5.941065066417117,9.325333573511667,10.949295034352373,-5.14298522489078,35.529250951375914
4120,0.3620345436431927,0.13773322563076648,0.6642183114162004,30.584118403683497,2.9185238125389144,8.588579896066038,11.15948009165783,-5.00253441174086,35.713213889892984
4140,0.33187708544048367,0.09094915731076762,0.6062497812296355,28.15695327666022,-0.436814005368543,6.360345378456087,10.95246876273728,-4.9922955903530495,35.54180527827508
4160,0.2920757665036853,0.030001387831117186,0.5530886184187132,25.93822142147762,-2.9624019476793944,4.117924180881088,10.760510717560853,-4.975203271053802,35.850190181989426
4180,0.2603743582559741,-0.012352188960275998,0.49807187178920537,23.19460351604706,-5.007355437314894,2.7442578566316786,10.640694088228512,-5.1499237388727925,35.73281245484279
4200,0.21477061369839243,-0.06500710243083889,0.4464225109117854,19.476903440138933,-8.968555034825542,0.6870878127088678,10.368002361882423,-5.158828165256442,35.49441744393855
4220,0.1578198907302963,-0.11260137020655489,0.4177745869995414,14.543984435153638,-10.588221214098866,-1.0574622849158215,10.639267740705739,-4.960171655326826,35.69992483257153
4240,0.10460080523463958,-0.16035219769108577,0.3940649921654759,9.753034169253837,-12.31721728588603,-2.953832717387759,10.477099218781495,-4.916888029713306,35.60580166838977
4260,0.06158761632737167,-0.1986836302787673,0.3920989898563209,5.488004902443953,-14.168535519246023,-5.665788429581171,10.619832664960578,-4.916931235636897,35.60124776397685
4280,-0.0071116776946760635,-0.23496554279003717,0.385169162610096,0.6202586993662358,-16.018573347408875,-6.828880877078883,10.822092876085918,-4.979082766470707,35.75858693380259
4300,-0.06310070131668455,-0.26927106525056677,0.3941679635249736,-4.312411519790396,-18.317362859781266,-9.228649543932303,10.607899440505149,-5.12336603927585,35.73482241167239
4320,-0.12731298169919972,-0.3058703805550795,0.40474157487426965,-9.321611161259856,-19.26491844599595,-10.594762963892155,10.79701432044825,-5.089268275898627,35.73373332896429
4340,-0.17187976361076274,-0.31824892871711286,0.43038585714526784,-14.265907683590347,-19.185460788912817,-11.672202198812606,10.710188146977014,-4.969545197420202,35.6582057983569
4360,-0.21425218957305625,-0.33315934131502545,0.4673962038168038,-19.447013687672417,-19.157886246802896,-12.93237411072916,10.611332943244253,-5.035704384096028,35.662370952034586
4380,-0.26190623350273423,-0.33262323681381484,0.4974337540384845,-23.393296243703436,-18.358408443260398,-12.48539281957223,10.74895989818498,-4.804296726213394,35.65219520476928
4400,-0.3016175217650511,-0.335234324646234,0.5528933351858719,-26.252089391889488,-17.955788901911188,-14.764958514884071,10.659067768246956,-4.8010952722436535,35.726978572942194
4420,-0.3407610846948841,-0.31831227634454157,0.624717805363207,-28.98979932073105,-16.465642175077654,-14.005583257979849,10.81146008885687,-4.775591119610063,35.7613292305047
4440,-0.3567240892247443,-0.30176145318338266,0.6732494648933108,-31.10174077705441,-14.507878177005443,-13.284168016705866,10.5986684352316,-4.729830418233816,35.716827192793694
4460,-0.3693365867466092,-0.28792361055706384,0.7311802661798036,-32.95864505429182,-12.209300304657797,-13.18184775472582,10.517377901962899,-4.800124111880087,35.557915621252626
4480,-0.38083295756552354,-0.2492580889345293,0.8130192352883304,-33.396743950713635,-10.059505190511649,-12.289004374190595,10.614085336923239,-4.847924044477161,35.79988838521608
4500,-0.3677045344069272,-0.20965703494338944,0.8902628959043991,-33.123647114408,-8.664005977815076,-10.782953851817728,10.521057847635584,-4.984937041908945,35.74089341356243
4520,-0.36617474131881256,-0.1676254095212325,0.9600231335208178,-32.79540829933498,-6.135786411695606,-10.345781464403151,10.51601922190852,-4.969912423260194,35.89991279460177
4540,-0.3519497603560761,-0.12474935699622572,1.0367559421281645,-31.30695191362477,-2.406053806028827,-8.941686516033652,10.391761811238823,-4.896631002888887,35.963614919449796
4560,-0.32995528875695085,-0.07641944458864613,1.097775059103202,-28.29603040831593,0.24296138315647253,-6.804861939212824,10.30040263884022,-4.718501657802386,35.875785254024855
4580,-0.2882368914664876,-0.02894612877193012,1.137486800530532,-25.985045969098714,2.874606581768474,-3.3575566967869013,10.275165752342929,-4.524215702151582,35.735411603542005
4600,-0.25609129915303236,0.022291994332225645,1.1873308042482862,-22.433484937968778,6.127638655033672,-1.2875376445612021,10.311759400345792,-4.711279198631568,35.65229082607506
4620,-0.20354694189385147,0.07352698297787606,1.2252267419371494,-18.879053435304975,8.921087723994429,1.1884088174308127,10.311852240424912,-4.577660601779731,35.81733077045045
4640,-0.16356817835658302,0.11835461220852109,1.275722887795516,-15.546277555262314,11.303026575848271,3.077468360020062,10.233963608235737,-4.6148350415457156,35.79559444168188
4660,-0.11746518802534456,0.16269310192458794,1.2955670441874116,-10.309148989109657,13.943907487668225,4.182418011304367,10.296488517014655,-4.6145128244443345,35.89993571146126
4680,-0.059771830437205846,0.1978214683718105,1.3206574225675498,-4.838618957937341,15.81502460952544,6.16485443617081,10.354180444940695,-4.564151900246931,35.83667791305487
4700,0.0014586552884466655,0.24639801880386222,1.3276619493637118,0.6054674212811637,17.254308516663542,8.056057245330141,10.544344502465368,-4.53746828795619,35.7959000248178
4720,0.062210475351444756,0.2778085642578507,1.3110070675973213,5.887841129995097,18.47160788425377,8.761790554079464,10.569678959432045,-4.634912584804606,35.8406994694269
4740,0.11713496297662666,0.30357748648846733,1.3045757538054747,10.378652198907666,18.330145066728516,11.18899081152933,10.646205009138777,-4.528446321220057,36.13214694156918
4760,0.1746507623069597,0.3216525858682706,1.2812400021952768,15.246530716130847,18.78618689219831,12.524488852654253,10.599049817854063,-4.664871918417551,35.990090248697754
4780,0.22492541118635237,0.3332971309314256,1.2274382106755852,19.611282223053927,18.6356256536037,13.00702302021683,10.582052334677195,-4.580415910823692,35.93564781861541
4800,0.26834522308388076,0.3371955204230711,1.1764076537825645,23.339444866480747,17.11621583389309,12.856910884374264,10.406461497300871,-4.356836956893328,36.04344131776759
4820,0.2991934777852279,0.33798442282737673,1.1320605722986463,26.130653495271694,16.432757585803635,14.086711511598113,10.55484319440891,-4.466486821069721,36.14591232567665
4840,0.3338740905269661,0.3205607062319479,1.0721618219809252,29.443863115079573,15.333508792083549,14.731610840340322,10.752083038454577,-4.426940278045311,36.20228311011179
4860,0.3570748478637511,0.302629075957981,1.0122934590124795,31.524138652408897,13.718062548945895,14.62680448893532,10.676806435150352,-4.391463324780056,36.333369511874054
4880,0.37812601960115605,0.2771466077595782,0.9523627252361972,33.065633983321625,12.034103718417851,13.606254983924535,10.759843078126265,-4.305235633301751,36.23405845540588
4900,0.38889331582399883,0.24604297269173564,0.8875703183336378,32.90563935679637,10.203498574708279,12.786569679611707,10.879137318932665,-4.14848167427821,36.142198947512384
4920,0.3797700803024541,0.20860476235540737,0.8150074275432599,32.97639264477769,8.382001937063823,13.335056350724232,10.998703890718046,-4.06764907591873,36.06842109661313
4940,0.38617162506930935,0.15807716647274853,0.7331191853159031,32.00384988147644,5.862273060139291,12.064366194697948,11.202943139627248,-4.431659467858953,36.16163903816758
4960,0.3635821948346907,0.11518885990730664,0.6598505904550392,31.206701327476488,2.5660700403457484,8.822148973427929,11.215312905756457,-4.339568047563595,36.20846853730215
4980,0.3352392298275965,0.07875163869103119,0.5915707466118549,28.358713463760797,-0.3839296583421663,6.036113373532892,11.108692170508325,-4.594022755071363,36.26308121843001
5000,0.30499507206912246,0.02959508502041159,0.5230168751354938,25.46557418024648,-2.8438751510265403,2.5501241557507592,11.086044649373637,-4.434649852458077,36.068957497528565
5020,0.2542165414730615,-0.027021656790445346,0.4730672683129866,22.636542986484248,-5.926249252662295,1.8759621525466623,11.091043724626378,-4.590290390404095,35.93932173078595
5040,0.20050097664059777,-0.08029030818583982,0.43112430283598124,18.02982283519202,-8.880756180443584,0.5231181316230631,11.077135549001266,-4.684330506594156,36.116697575417646
5060,0.16468418860901318,-0.11767323079511724,0.40675498072986693,12.109880636847816,-11.852045760216692,-1.6370251652146097,11.153871284243722,-4.622463846949812,36.2306457876567
5080,0.1083301839866794,-0.170007470530915,0.3809769732055504,7.709470403189242,-14.603277959270311,-3.8931946848953807,11.124208996761725,-4.459833784053283,36.27245637828274
5100,0.049330659546791875,-0.21593463983321154,0.35219613178470893,3.354365202982004,-16.368909741608014,-6.205635745677923,11.297383777024024,-4.601126175229814,36.40887809476603
5120,-0.015028776378629996,-0.26072844495296377,0.3487325158962302,-3.1214384235114503,-16.86980323910603,-8.12895011308115,11.140186784304666,-4.606865531227709,36.58719686411712
5140,-0.0785356582685927,-0.28360339163149006,0.3688160549106931,-6.724519061327989,-17.999705191180947,-9.99233339618777,11.294076658422913,-4.676373936748809,36.37913721544358
5160,-0.1277549940873878,-0.3044081687757143,0.4019058906924088,-11.191530494934732,-18.967965637569293,-11.874862259271147,11.302150338719132,-4.516093784731211,36.19270927790188
5180,-0.17992648821345936,-0.3185587116080314,0.4519200280888275,-16.658325508002086,-19.03396258919605,-13.365915331470756,11.565255357340787,-4.376758690280333,36.22176167458776
5200,-0.2224352323926036,-0.3323617623873037,0.4694655054656758,-21.026629024398318,-18.68206399975928,-13.075388235021055,11.643874209919248,-4.473319190625848,36.34070145699544
5220,-0.26587826545390014,-0.32105510466443193,0.5056540857086035,-24.570598074737806,-18.149925201515224,-13.775591651297583,11.549770579477297,-4.766842748501577,36.55767533999221
5240,-0.31398529094941297,-0.3290251997315532,0.5617733757967055,-27.998046464990015,-17.195312809407394,-13.980260079525994,11.556418888136644,-4.597892566314112,36.4586321433123
5260,-0.35024726918120147,-0.3117671072568541,0.629688971811744,-30.06435994954938,-16.209681287610934,-13.9188064650875,11.567447468769668,-4.474069897726107,36.45298604482862
5280,-0.37049875664759657,-0.2984171372180476,0.705628495032982,-31.453737287867735,-13.307679420355742,-12.995109453358626,11.735128056315414,-4.452048362251913,36.31446426301513
5300,-0.38488059436511496,-0.274255090964566,0.7797314631939716,-32.05926797673282,-11.282373880073386,-12.055860745879603,11.49236669941846,-4.337040576293447,36.302323162158736
5320,-0.3951560710035993,-0.2499317690890446,0.8438392648140689,-32.24515369340864,-9.728718822586927,-13.10586551200729,11.502257809453143,-4.268726009655731,36.40445389317374
5340,-0.38128171824203555,-0.2151449469611421,0.8975757413498646,-31.43592595173867,-7.131153542807608,-11.781613128061688,11.409549637813928,-4.482603462167885,36.47373526773838
5360,-0.3789542618678398,-0.16817885574597957,0.9726521633269456,-30.628329566823673,-4.154110754906069,-9.636713608977221,11.583364714158563,-4.615881467098564,36.4147993794562
5380,-0.35653359677281354,-0.11796995207099162,1.0420885532048132,-29.951001345381552,-1.273165994281297,-8.272003537549752,11.550810940284126,-4.805775021522078,36.451920269143294
5400,-0.3182423739279436,-0.06115453874554295,1.1084200862808506,-28.08725092343075,2.41774025669055,-5.671627308121581,11.566704544019583,-4.790427052061209,36.271749957293316
5420,-0.2869705899669461,-0.013266376835570824,1.1714942888289328,-25.961784645337207,5.354307721896445,-3.8288581711932674,11.409769646630663,-4.747044876625974,36.280721440695984
5440,-0.24836797302536143,0.03437167913305242,1.2228827399162205,-21.714601661281897,7.900156239925305,-1.9601466917151358,11.45269005248605,-4.797190600965079,36.28700284096943
5460,-0.2003935946314771,0.0834536373428341,1.2590067894777923,-17.151076258222837,8.711579605031266,0.6912195564982557,11.375635742773254,-4.768176837975262,36.45794195320295
5480,-0.14937639501564934,0.12961766617817966,1.2956772111909176,-13.08205247946991,11.491160155966167,1.5743902250546922,11.426711078496181,-4.664309693955627,36.233002406903715
5500,-0.09448012588864982,0.1668742713078697,1.3117034495152065,-7.510461867613482,14.017386268393569,3.111929786294078,11.476599735822688,-4.622130412074491,36.339887342144195
5520,-0.03690062379297228,0.22031555513590775,1.330428367475805,-1.9294524162580453,15.816161038417322,5.899478473391393,11.421574840630115,-4.7258789976571975,36.40205581014006
5540,0.021771081241438638,0.2547291163051685,1.3305833452352116,2.350401282046702,18.269843335855832,7.868772003246588,11.591135626979487,-4.637947432494502,36.333349495679784
5560,0.07603935684546265,0.28531733613577476,1.3262178698557974,7.311371180812785,19.62006132606541,9.907408786987194,11.670186549403091,-4.872962269656814,36.088959213895656
5580,0.12854873271574413,0.3051829282213441,1.3069638015133294,11.937032060040718,19.262722463446444,11.074120552905798,11.517696095357243,-4.86950400274132,36.00639886936085
5600,0.18951275115170843,0.3226925582663189,1.2716436951625616,16.695177049614298,19.580786061508423,12.650736996469202,11.532090536072012,-4.851559524358429,36.1945492958284
5620,0.23923098045154578,0.3395154832754018,1.2322334126713088,20.38247810448835,19.722482736906723,13.37087105266933,11.623506683146614,-4.946653398587246,36.231766685171195
5640,0.2792221217788035,0.32642853117224413,1.18459264178795,23.426418459781672,18.883416072399513,13.55961101706863,11.54961008643817,-4.825624104356873,36.1735904129487
5660,0.30631706250555535,0.32506697845395666,1.1282778209912658,26.823066594367692,18.278597945568062,13.969940440171431,11.52236380450515,-4.772519153814574,36.1629441128552
5680,0.3294819447872555,0.30814390612868553,1.0632094804149987,29.360904895719386,16.969497719621355,14.088811242384658,11.7356092818638,-4.881519909430206,36.24940045610363
5700,0.36390075777555925,0.2990744645628532,0.9991514777257996,31.512550177014813,14.689588392355995,14.345101456142928,11.305129635767214,-4.91334646445777,36.0698165938199
5720,0.3761865516888749,0.2771939386171274,0.9328739544508938,33.42702256322196,12.27883430145655,13.077094982124915,11.366047001397707,-4.994245378845017,35.945251501613484
5740,0.38400174057529457,0.24604117044920576,0.8645310734169442,32.61784542069747,10.080599441071705,12.120487729124985,11.495681032141688,-4.833243094317083,36.03313271108197
5760,0.370742591370832,0.20183936241786662,0.7901465870100659,32.757589843467024,7.4194117520426754,10.885131115460183,11.29785303549032,-4.761763425780953,36.02613585010543
5780,0.3558933313444908,0.1494693937810959,0.7171761143060167,33.03403070466987,3.6091769812008754,10.229102295335643,11.355404306837976,-4.804300362527692,36.07817581827488
5800,0.3435905247824778,0.10609403213837548,0.6388113677636352,29.462410347273206,1.225206639948261,6.65398148737549,11.27112873631161,-4.791836636332727,36.00363515315379
5820,0.32808994265843416,0.06401726106181188,0.5821304625062934,26.60102932987786,-1.6496012070726027,4.822265900267345,11.641899693725943,-4.946247491434717,36.0473791950361
5840,0.28643148869633783,0.011308538074662443,0.5243926240066299,24.628452897845403,-5.188950556729768,2.214842781244975,11.654286224305325,-5.198896544064637,35.96697200984025
5860,0.23813934068511522,-0.0395986668972609,0.47738112480345685,21.253077227413527,-7.530811904563743,1.6989958653823916,11.543045350075463,-5.197778855924068,35.922993682249626
5880,0.19283851050049247,-0.09535733056724133,0.42900422590749376,17.03780851708841,-9.768927846415384,0.26549210077734275,11.55035937221928,-5.1712391900764905,35.88363742647739
5900,0.13562620780174864,-0.13435819554280104,0.4029293900964198,10.765572948992563,-12.38052076948947,-1.0088390238295655,11.518965268271808,-4.950429514116123,35.94088602523169
5920,0.07510403294740617,-0.1748134549356433,0.3998542451652294,6.183536886966964,-14.0885642965392,-4.240558579802162,11.299033029483795,-4.862671390962949,35.95327783006673
5940,0.012603186536781927,-0.21495798925288598,0.38630858605241764,1.5521234384066132,-16.713802936516956,-6.764315735334643,11.283971372153202,-5.106281874137559,36.00140431704215
5960,-0.047130648631428365,-0.25372321963920763,0.38244657750532673,-3.6440434869649696,-18.30983541582659,-7.845400368040989,11.25156937697944,-4.965330723532636,35.70991679686227
5980,-0.1048333301178261,-0.2873003450926614,0.3883324087044887,-8.786124264606048,-19.236757571164993,-9.240936022815893,11.360550753005292,-5.05974114594183,35.90867171814312
6000,-0.058743786660624145,-0.11632527519575292,0.6534701610844855,-6.630609035778161,0.22100656389308782,1.5927126384254553,11.46220779409877,-5.0644714643806426,35.908026653023704
6020,-0.025372327243792826,-0.008600038754185815,0.8134901992778005,0.06947888406564218,13.884644622901929,9.672545927250493,11.690562383380666,-4.463490658921582,35.95161962702931
6040,0.00321378666935122,0.04150899532591582,0.9063920740596475,10.034375099368424,22.032417196782816,17.636682681312266,11.587318208221024,-4.868464350936504,35.97723379135075
6060,0.03305933482207239,0.07050362061748877,0.9561761624513565,19.396197263041564,28.281027626519055,22.00947880994692,11.799809540706898,-4.826225391636512,36.01187183744714
6080,0.06818143748852704,0.10301559140117328,1.008432097041276,26.649310984392873,31.714870048087455,27.684277451483233,11.661355866458567,-4.733529729045454,36.0516658546179
6100,0.07290778473289725,0.08757479335049365,1.0181744938705624,35.58168508439169,34.36622983692084,32.29222449893055,11.45246312453367,-4.740656844096467,36.03597413979559
6120,0.07276200910987034,0.08794337850581041,1.0338081937900236,41.92357257437115,34.753940042673264,34.882094258308236,11.719306144086307,-4.905941422809536,36.195348240585155
6140,0.07925927699495906,0.07489582552364703,1.0421976946618117,46.79495464218387,33.4443219423271,37.11662842254308,12.01553582303998,-4.286257536540743,36.29669755550897
6160,0.08328417533592655,0.06746558888840794,1.0351487476327235,50.8732273664932,32.173529302589834,36.42953814315309,11.918475809428436,-4.16962555841422,36.64872728475382
6180,0.07878718400059477,0.0260557714224319,1.0329960788214845,50.824905939551016,29.699515407235992,37.49278695638134,12.129748719772813,-4.097612439085817,36.7425988167199
6200,0.0772370750377222,0.016155990574595838,1.025179874901229,50.786355280104175,28.320218773110636,37.881825664881354,11.998264166282361,-4.1892130692269935,36.49965580771982
6220,0.08769140966821033,0.0056232991086581086,1.0247323145007246,50.37603886189597,27.500161571903,35.389561543725435,12.040993752064706,-4.253956935877266,36.23045167856206
6240,0.08478140935016269,-0.008446777531064084,1.0185652260747642,48.650415260608845,26.005626478073207,33.75480146808097,12.084599421548395,-4.230821380305013,36.447521943449296
6260,0.08230744174079735,-0.017226553134598574,0.9959473954536522,46.35085840496529,25.298857602195074,32.26233467507465,11.923460522723564,-4.235906608291698,36.26287489881252
6280,0.07004549475199182,-0.02700195875224033,0.9972757917038936,44.57321204792408,24.88178757092355,29.453846984954154,11.909391517406295,-4.501420892333082,36.17494491526915
6300,0.06455245086783794,-0.04839766920492423,0.9947615461231781,42.69896184456148,22.66466313471856,26.364634450769415,11.875669792339563,-4.403633487890937,36.24172160209063
6320,0.05433753829391458,-0.03358889544701228,0.9851836674120719,41.421748373318614,22.528967040898014,24.563150599036,11.89933525167008,-4.32621513518763,36.00336164849654
6340,0.05369794474646415,-0.032022691307285335,0.98658681741359,42.40311172156838,23.87913729709924,22.53110346298402,12.050852619483003,-4.500545155453603,36.11473839788817
6360,0.04442629263757733,-0.02563165314699361,0.9834007630342753,44.17073699769798,23.38632890924365,19.83769411500608,12.110333399080687,-4.2992967635722,36.38147519783673
6380,0.06544217862170462,-0.018311069977462346,0.9834274794707432,46.75191986941732,24.541881280743063,17.398730752163804,11.97862323565168,-4.341242031962953,36.000438592454834
6400,0.06800351173736957,-0.016863646311639297,0.9521884536953267,49.03128219224519,24.686242300754277,13.317878337778758,11.974138182998233,-4.261659512909932,36.30857911951474
6420,0.07877563436392174,-0.01863338052301199,0.9381395402302972,52.19376009445084,24.877540098639585,11.888664488492704,11.989133774646271,-4.048790907616026,36.27478500450776
6440,0.10368519806581399,-0.034938923057851456,0.9171908600382137,55.77202095836224,25.305646886078712,12.090989593795198,11.94084846194749,-4.219040059386025,36.32850383148876
6460,0.09947721424898706,-0.037779338468927885,0.9162258543129218,56.184507414875135,22.848180009276593,11.553477332915325,11.895374329545662,-4.097089825438931,36.207918120191735
6480,0.11297600587288759,-0.04272258260628918,0.9107944108123707,56.367985522393326,19.822507446088732,10.155287782801109,11.786414675457362,-4.067343209565355,36.39239535767153
6500,0.12169434010859641,-0.055439846263507654,0.896233850877772,55.772208531234085,15.965159665327317,8.910747453251062,11.847222052952283,-4.022064038670379,36.279183024473824
6520,0.10979244862213569,-0.06283702476520989,0.8869097567318218,53.55067709426952,12.155408036616791,8.401111234279645,11.591304861082588,-4.172528450684836,36.455840652556894
6540,0.09013916784173581,-0.08099333491442642,0.8782432206187686,48.83547585269549,6.419685669420449,8.125557457160902,11.831969820614635,-4.204351709902361,36.482527138493836
6560,0.07497481582403169,-0.09917422103739194,0.8715587173590233,42.89521645843934,0.7394213866741417,9.762586831258059,12.093601017494773,-4.0062649191285775,36.19214983389155
6580,0.058457741014135714,-0.10961808085333635,0.855429865306141,34.54221489104754,-6.133849550842927,9.413148452636454,11.983396282795384,-4.113820297986462,36.459113742761744
6600,0.03871366806547047,-0.10253425654564154,0.8470565481518367,22.76655106347152,-13.700809383904414,8.475814044249312,11.722395556849156,-4.322259193871998,36.42820028928641
6620,0.020807905778306258,-0.11845359150493241,0.8506503255797521,12.879588940435395,-21.466507531888137,5.865092456797213,11.756199443476076,-3.963300501912134,36.391851266511644
6640,-0.010192045378256766,-0.11461280367886231,0.8450203632855047,1.2901557688731415,-27.98171895971905,3.1450623571600116,11.493731193648065,-4.13335301676291,36.29659888059666
6660,-0.03113625503683792,-0.1431892203343136,0.8303687564774337,-10.269784169548213,-34.03071839351422,1.0482231873846102,11.452546876507636,-4.117396146996298,36.139704755504674
6680,-0.02951318931921956,-0.1252388699457362,0.8359952142824063,-19.839046300758298,-39.20302243933467,-0.5620965455115521,11.606683671556427,-4.1596889358955,36.156411071802864
6700,-0.048813153303716925,-0.12766642543790868,0.8373051587029493,-28.031038877073406,-46.41645905668544,-4.720189509483053,11.623398123508135,-4.193765486028362,36.37542635332727
6720,-0.07848530455765451,-0.10619802326346889,0.8357558312407579,-34.74939852524447,-49.09035786819967,-7.694784706682681,11.57886950208523,-4.208904890086623,36.568968348200535
6740,-0.0811534749424631,-0.10359802529195437,0.8306716792336377,-39.41595102486907,-52.27943156797074,-12.422541448321496,11.730566588478588,-4.1259796379101985,36.30890448827194
6760,-0.07429137355620587,-0.07859829944494215,0.8183116297391237,-43.29743167699154,-52.22524330272089,-17.32171813397568,11.454065364952053,-4.133704885922428,36.48412611681214
6780,-0.08342823437054804,-0.043434663992837956,0.8239138266672094,-44.466449827625155,-50.67433971787371,-20.359391956478397,11.268436891417027,-3.8536774717182944,36.47520245263802
6800,-0.07657587255229362,-0.027415419483148237,0.8350832734033754,-46.260183767990895,-48.858692421420166,-23.796180750571878,10.983496584044545,-3.9765084408998583,36.32810803564948
6820,-0.06712366135383406,-0.012129035588436738,0.83742037973998,-46.22654220709658,-44.437903728473,-28.46011619599465,11.303576689814056,-3.821192691912917,36.21770765808538
6840,-0.07286012868445889,0.00851075424164562,0.8441112111218346,-44.77507762678844,-41.53465841942827,-31.27267447369678,11.147848736104546,-4.193096579443752,36.34207045744759
6860,-0.06388861210558565,0.0323301902214816,0.8653258513761284,-43.11812384633681,-35.783404655326564,-32.92740869375084,10.96076037486398,-3.9711843239480795,36.42153239635392
6880,-0.058359637070560064,0.051338050612186575,0.8667397347387823,-41.69614678413195,-30.377216184378305,-35.968674745718204,11.06349413790149,-4.016259935726203,36.32910413953731
6900,-0.07988358033937915,0.06808554107869999,0.8613994025908924,-40.27609021865599,-25.24120912019564,-39.15839791119554,11.020857815173773,-3.9455455076933874,36.49460199010719
6920,-0.07773676412472322,0.08097144575135695,0.8663580567673442,-39.956169553140455,-18.599927686450187,-38.00796725545522,11.060657243112779,-4.084633918667203,36.10965776399863
6940,-0.07594371936575232,0.08930952874944229,0.8837730991717841,-41.921337720916306,-12.478906996204177,-38.015311411934626,11.216680798775323,-4.022650181544256,36.01409417526522
6960,-0.08573951192574444,0.08305476526469005,0.8992491307495396,-45.20264201618816,-8.59053547761387,-38.3007347109234,10.932418114071641,-4.104203639847692,36.1672480453012
6980,-0.08428111337827617,0.08323814387581746,0.9065038136146061,-47.00324744865223,-4.277079078038267,-35.14365245993111,10.824599173503504,-4.2106250558785305,36.22541863348301
7000,-0.08796187921971388,0.08232820797118713,0.9221339173286729,-51.04436371153369,-0.906092218281366,-32.44385735802942,10.690085369003201,-4.351226249810712,36.10795275386247
7020,-0.10110772948744567,0.0751787367899189,0.9208127319066148,-54.14468516116827,1.858698656550858,-29.48352124925259,11.128786100477829,-4.2126117802100564,36.10411228925712
7040,-0.10743686614865076,0.055457431774410884,0.9340933074892234,-56.97284454388657,4.377385456645806,-27.932510413303657,11.218390372251195,-3.845413775473323,35.79190049827067
7060,-0.11676454231139236,0.05421206414379368,0.9442018133113513,-60.44457282688639,4.345595417967441,-23.590509338945,11.183125610884561,-4.058254101012121,36.07748235632803
7080,-0.1249432239277765,0.05616762624719884,0.9499505698316412,-61.56800390575307,5.684332985786984,-20.275307538646526,11.051881496137364,-4.202085391490614,35.97735601753154
7100,-0.1083843177322039,0.058927509453541915,0.9595970885783409,-61.841583906114295,6.834867480186239,-17.95032485965129,11.159584826250446,-4.261090481914517,35.956381685773465
7120,-0.1136883578958993,0.06255178550801314,0.9628047879270318,-59.19004895017959,7.423369671816423,-13.768145376465409,11.137750465085904,-4.183881658680315,35.81346267317252
7140,-0.11064833951851274,0.06972055268271414,0.9863795696171129,-55.85148675763379,8.920014992144436,-11.7256817779268,11.027873932657606,-4.286568621986788,36.08956673597396
7160,-0.10129550247464517,0.0661703396044123,0.9976548437964388,-48.35925584512182,9.66435155962081,-9.439913384990422,11.073455184526882,-4.471566589725033,36.13102196069176
7180,-0.08414919534868442,0.07818232750022074,1.009028408912312,-39.91285864969577,11.378634292327106,-8.580615330158118,11.223382795722529,-4.3868425296297655,35.916084150111686
7200,-0.06355564821739937,0.08757735281183351,1.002990164483857,-31.37902233315151,13.320856828243807,-7.915524666791172,11.19853943562513,-4.40040872672822,35.68723103890501
7220,-0.036534883194766346,0.08575321133282757,1.018066024141409,-20.51678602104319,16.888661887812958,-7.587333100524354,11.212608457014369,-4.776859687544291,35.71569623436487
7240,-0.016166804328507162,0.08636936344944231,1.0392440789389705,-7.689407301411579,18.918852031753755,-5.2364872984575825,10.75859108695126,-4.7680388303105605,35.671438450586386
7260,0.003978211508599533,0.0905408588573938,1.0413570701077663,1.904238493951647,22.0853546152435,-5.664614459878921,10.80389561081948,-4.584349943411051,35.81982904071966
7280,0.026644878711845142,0.11245405891642912,1.0368049400318282,12.289825272631953,26.010668662272625,-5.559034972714017,10.719816330594362,-4.461122526020903,35.56599284802686
7300,0.042525386641636555,0.10157097153251299,1.0370114033783453,19.81126186759445,30.875839739968995,-4.764516084458086,10.78085459114938,-4.353803513424534,35.6813706017389
7320,0.05025999247983417,0.10733548765142402,1.0518706980389916,27.56675280773006,35.26208069852955,-3.984088723000848,10.704508530067605,-4.636335838619594,35.91197758578133
7340,0.05626798419876687,0.09416364255977176,1.0584803739944815,34.13319024058107,39.569125421775475,-2.9298588902972287,10.836665557769349,-4.635048640088941,35.773844937601666
7360,0.05748425110212107,0.08104653116910933,1.0536954473222224,38.495372039833995,42.84819641954966,-1.8699296998579773,10.55858266682723,-4.711817910833861,35.772747162823485
7380,0.06700972979967594,0.06931743551441798,1.0498230738291712,39.83535341110756,45.987169376575515,0.20100502198326664,11.004037158028433,-4.707257738956425,35.265426273189796
7400,0.07220749683418222,0.045413806752665334,1.0648785173817155,41.7444995496545,46.7700333263112,2.4205247075395246,10.951930431289075,-4.661239809476247,35.259087874626445
7420,0.07986797319977412,0.023776632449267313,1.0646707199246073,40.81899161951866,47.305221525749474,4.2084417108503445,10.981283361163134,-4.920837478151698,35.23551592423352
7440,0.08155886388777155,-0.004961631834141781,1.0737229416555563,39.89792424914933,47.33754908749728,6.104434212682473,10.720326208235772,-4.940193667638122,35.40625705326133
7460,0.06524087921681118,-0.01807670799682415,1.0642950135735931,38.13105683210544,44.1095384666345,9.67819038990245,10.469385130100454,-4.8475102463718915,35.03495136185489
7480,0.04211537811627461,-0.04174721617672167,1.050259003633125,38.940203338391065,41.37428735312557,14.737638399523533,10.355019134775658,-4.579134023995432,35.335176635917755
7500,0.04139558551111749,-0.06198328931412747,1.0484959642796734,37.12769562298721,37.58995384355869,18.193239706460954,10.52286500336482,-4.712979040365261,35.31813021751234
7520,0.04065641940135194,-0.08988810556925454,1.0614473034746295,38.30741627216221,30.95880352146548,22.108565485117254,10.471210575412291,-5.0313295027533895,35.358982142320166
7540,0.05344165907432202,-0.10144948814343183,1.0453575839511844,38.9400816993682,22.991830838970976,26.28268402047042,10.573384750223928,-4.897305625527854,35.45777163659929
7560,0.06130504021710497,-0.11400973934613642,1.0453006357990775,41.90661523676081,16.28316820203797,29.52758295205193,10.429306946509596,-4.860915956705518,35.36370758607765
7580,0.0623758126861877,-0.10930223147436473,1.0461029991173743,47.60721449486587,8.637870001026116,33.44663497813914,10.604759148217813,-5.163084240262743,35.625054101734186
7600,0.0827667752058854,-0.1019930012322667,1.0370917879713482,52.810582543436134,0.9417520867505056,36.34156915626151,10.853352072626645,-5.150318039522743,35.46065279931214
7620,0.07590340034848271,-0.1063868972667697,1.0372840328202049,56.66056407862372,-5.698967122162285,38.10207227046245,10.727036877276284,-5.1243420582354124,35.3847704730999
7640,0.07750730556515588,-0.10369858378771742,1.0332694334087187,60.78066142038659,-11.976691437869736,39.93608233132869,10.87789763959062,-5.079449201148694,35.460489471379056
7660,0.09410459440004104,-0.09620940239061197,1.0236923699297797,62.99336803952294,-18.87500036026256,39.19402342695859,10.754073013379715,-4.894444356005268,35.633170155483256
7680,0.11793412466605674,-0.07314621027954428,1.0085730866692302,65.92776391472741,-25.051614029584478,38.52761768282961,10.678800278446566,-4.895044631645845,35.42434907376792
7700,0.12477014142212582,-0.06035223850190112,0.9957455919386194,68.16049620076403,-29.35227904389733,37.286808750356585,10.88608929062757,-5.0806306608436795,35.253274168354785
7720,0.12061427185096091,-0.04786463625291543,0.9928957169370068,66.71445154652983,-32.55180163728366,34.31414357235732,10.95512548466574,-5.060322091685878,35.17599446611744
7740,0.11966724308829106,-0.047118119042078584,0.9881318807586519,62.87641881296053,-33.30278031416972,32.20029480412649,10.624386863808407,-5.128882585340486,35.17368138420361
7760,0.11425455717887467,-0.04408976891746002,0.9781255577268522,56.65604013886197,-35.472223666765416,28.265469296858214,10.437476725020646,-5.221150713359455,35.13135867837557
7780,0.07802350711336231,-0.03563931504759328,0.9556735230356906,47.81305228555458,-35.68513734946485,24.20478298645794,10.439607988624363,-5.078320825978838,35.3067909183322
7800,0.05770612227587087,-0.039189579164741216,0.9559499896759798,36.6177989983091,-33.91317139941292,21.969910320184237,10.475259252024296,-4.544539448137892,35.3334965951918
7820,0.04818435819857106,-0.030415068096789927,0.9503626026467287,26.376127092827645,-33.39526833208188,19.439412448160695,10.365572263756626,-4.706782370015332,35.396201710081534
7840,0.036494687981542324,-0.05581490462619343,0.9285522516758479,15.703698173337507,-31.339637724182246,16.596938227806504,10.589541650301399,-4.80835003715851,35.28923801231281
7860,0.01038108691565598,-0.05130605579360527,0.9298980675350944,5.434282565895131,-29.951804761680393,13.166581807919824,10.479745693139007,-5.101089953206523,35.127852700760215
7880,-0.012945146492988772,-0.05228382769182301,0.9106593576960099,-4.531679208847818,-28.902314935543462,8.963852090332415,10.379517740687064,-5.194049803371546,35.35904539656279
7900,-0.041906528672913876,-0.05350555716007177,0.9075263448353866,-13.501726437663024,-26.478932668311735,4.789186555785349,10.461894042974007,-4.9300958169222175,35.3011474476475
7920,-0.05192504154298465,-0.05439863016586335,0.8996675926185073,-20.24490229757333,-24.376355498336796,3.377217904086579,10.425277321779399,-5.224863176542637,35.26713403212247
7940,-0.06425548682632398,-0.06817470150303136,0.8964310760703613,-26.107070127048075,-24.327984629218417,3.129405573584802,10.576431173427792,-5.480747480945898,35.3014247027218
7960,-0.06059918503509633,-0.04293701908697993,0.8765352271024803,-29.404684199538124,-24.32837642988001,1.6864828459797865,10.60752022988605,-5.296785147348099,35.031152141309214
7980,-0.05120743477761976,-0.03403230022973749,0.8596745696976219,-32.00865374762,-24.68901920171731,0.8813726593529669,10.484998843221447,-5.200014796624296,34.780664099844756
8000,-0.060588913260073055,-0.030280760662811303,0.8534062849781359,-32.60032536849905,-26.105924761948366,1.4735386131788448,10.650923193977928,-5.258661257912055,34.82941327616683
8020,-0.07365101670138133,-0.019696065524241455,0.8477277187881337,-34.48285732922302,-26.536584206347186,1.3020047007343452,10.58226805205581,-5.185476754599378,34.92186249630315
8039,-0.06243339671136908,-0.005567040977232315,0.8312944151127212,-34.09357001052994,-25.55625013436836,0.7270572646725159,10.623066790711047,-4.755819985828217,34.884872078462976
8060,-0.06337360771393016,0.012745185836208876,0.8407272218327576,-34.163578318033345,-25.38328405893085,-1.4689484131564772,10.747676881275455,-4.980465523060105,35.18474207602712
8080,-0.06246156348057281,0.024581662423465774,0.8399642721435995,-33.35380085710751,-26.286880923853,-0.005751003947937816,10.635899394873146,-4.577823956354547,35.053645955700894
8100,-0.04687568925464684,0.059428899562412124,0.8298412654856493,-34.38029069023764,-25.29524214081743,-1.0523252902390192,10.68494364755475,-4.783174484226495,35.12130974100516
8119,-0.04793849388900664,0.07222089960766406,0.8426053417250213,-34.44500460530385,-24.450866141382416,-2.0963627596696366,11.021443635570037,-5.001509318601182,34.99038044559718
8140,-0.060611030912291544,0.08392783447464741,0.8453159434180354,-37.8159591742076,-21.18105926821094,-3.8669781242020624,10.778946375794755,-5.019834526228798,35.07010863906234
8160,-0.05940286143848711,0.10415981033426293,0.8381287591043521,-41.49948560511477,-19.784574514714407,-6.6753451146079446,10.858842063577113,-5.25296358275502,35.16499062665016
8180,-0.07456643041875474,0.11074281795981596,0.8473901070104721,-45.51118388524314,-15.504673702333847,-10.283478061574868,10.676772581147908,-5.136445032442072,35.29618988887271
8200,-0.08688862238633058,0.1294718383138568,0.8499676742796248,-50.26695507282436,-9.85798468774507,-13.391858647458069,10.645219032459117,-4.818702672362881,35.12286119079211
8220,-0.10615562035208574,0.12943254201001564,0.8335266703877885,-54.03653199488661,-3.382327890492994,-16.482728247310373,10.849259503859031,-4.963132611908504,35.19237127115512
8240,-0.12384171157653966,0.11995074640278221,0.8324205095893151,-61.35202741971854,3.553803705545679,-19.48103947378554,11.110393051252336,-4.779407537546458,35.18142366166072
8260,-0.1350081157663293,0.11850344759457379,0.8357465084330371,-65.27052206972432,8.885438954175605,-22.619687121856906,10.852866398166007,-4.973728531946696,34.95359715192235
8280,-0.12911275618566648,0.10975445468551942,0.8367858447986983,-68.47689653865706,17.53337781979753,-26.97781849430701,10.832080995609783,-4.991197412730209,35.09073628723555
8300,-0.12143288871016591,0.10441230125392918,0.8324888614319756,-69.97102333984638,25.16881858898473,-30.75979594330266,11.146533421123136,-4.948675587209353,35.07694674233658
8320,-0.1313756322219874,0.09402380511616397,0.8446133218775873,-70.03892737364721,31.777676288813375,-32.86826587696692,11.189930848752747,-5.093501847635942,35.52380422606699
8340,-0.10914351442612613,0.06617799046366284,0.8690298648798078,-66.65179253110068,37.60134437367601,-34.66400014601495,10.878946678766466,-5.0689984185759664,35.68864606502105
8360,-0.10295281081279117,0.05619632075092649,0.8869226878246318,-61.11850331036764,42.379434067274154,-37.622076022370784,11.176472673074867,-4.696634917782628,35.55102721015144
8380,-0.08076808605822439,0.05378219710879784,0.9069135518063377,-52.50338563443323,43.936636057936106,-38.45398142687805,11.123812024797564,-4.515031236152005,35.511658016982985
8400,-0.07133817290794396,0.03723912191320124,0.9119902244858926,-43.07721558226833,46.28710789126861,-38.101689699008396,11.518629103335641,-4.684030043823867,35.56889867048825
8420,-0.05343067233926378,0.015395385792324752,0.8940356279303513,-32.330279695194626,49.06725633172362,-38.382336593994964,11.56893526192515,-4.856502137484701,35.87261710245065
8440,-0.03302177266394138,0.011673525164374261,0.904513673128208,-21.559395157099328,50.24637475092847,-36.9861306984694,11.311971125343348,-4.81154751069088,35.744270292437186
8460,-0.015027991759131113,-0.002427508266971891,0.9133641031443774,-12.464297500119134,49.03267042663428,-36.33010203924891,11.311210528103786,-4.96799927829824,35.660818173076876
8480,0.006591503933553327,0.002526095208158337,0.9257026279180623,-2.4967864845335814,43.771080482043054,-32.778519372355625,11.129770605525481,-4.879635430954206,35.712208984046626
8500,0.01233652113786236,0.003635047542832728,0.9325971026553634,6.372728489905056,40.38002786417852,-30.44187886683057,11.124071078690585,-4.8894228456734385,35.295775104310074
8520,0.032804384196653644,0.0193804359851045,0.9395091442050725,13.973305687118835,37.36753357368367,-26.924724704890288,11.34437516183785,-4.949069461895514,35.556709697191884
8540,0.04549394180686108,0.014645648433414447,0.9430942025042047,17.864682094052803,31.977501877961593,-23.12787460915387,11.621670601233474,-4.68240680300482,35.520549978965455
8560,0.04670405115523916,0.010047762592900418,0.9575048083951186,22.623347994388034,27.506623669069754,-19.08864059560777,11.38371619686203,-4.463075928500426,35.682402967772155
8580,0.04218009686929607,0.015991016934623705,0.9827774081856065,25.29343096600949,22.07333981923139,-13.929703460896453,11.481836572303914,-4.629356403940468,35.60044313122108
8600,0.033887722966292506,-0.0037543200919900113,0.9807410170897457,26.269128748896804,18.621219742918953,-10.858682176894039,11.346073554201206,-4.660088442121692,35.645804746699596
8620,0.028883873604370745,-0.014618739489935315,0.9942422000086636,26.59128013877292,12.683760260441435,-6.850777850249202,11.57216472530074,-4.658896706365143,35.80215725476529
8640,0.03960569355660542,-0.014241073728187425,1.01612015429921,27.053443756775906,8.404559513531872,-3.941021331510807,11.640014202760604,-4.49764309438331,35.62884114919287
8660,0.03565605114018588,-0.03100283244810862,1.018693844625628,27.634777929008877,4.123121011470412,-2.1517360197247464,11.636535896441975,-4.577655809225937,35.611924184897376
8680,0.03533730316249711,-0.036920978314403316,1.0280496975702405,27.93738534279571,0.1277810469153544,0.20736851703758719,11.36043238558274,-4.595538621037722,35.5918882232916
8700,0.03215492004292349,-0.04869733932897009,1.0498630196528966,29.546312653792732,-2.3077430343973537,1.135242573489499,11.327852499366639,-4.326379710651676,35.49623570733565
8720,0.027896880465800487,-0.05209015930227543,1.0584744627073284,31.190382141865914,-3.6819236396809805,1.3141924406915515,11.498463754300941,-4.359803842298515,35.75737843708261
8740,0.04632721367278196,-0.06950439040251792,1.0577048602897425,34.254424742557646,-5.194947591120187,2.7279441969176625,11.554235889678582,-4.006808899819594,35.80893892878043
8760,0.05335111455232776,-0.10435443359287934,1.0503984743633015,38.91788016935877,-5.2790873749415175,3.5965580756365885,11.566878562023751,-3.914659818281561,35.84639184017836
8780,0.05783834728998335,-0.12427902611311958,1.031526183609442,45.473078240428286,-7.579993757014291,4.013467709492305,11.649501503890741,-3.976916080806806,35.7131156479292
8800,0.07817816874240507,-0.12360027150703984,1.046808090224094,50.59392278278606,-8.341702648009951,4.265645917135427,11.993889492582426,-4.213486493810966,35.64438624388845
8820,0.08769055965553285,-0.12479636233053651,1.0601444786269385,55.82094143641466,-10.072442296838329,5.357793359548262,11.979269091315762,-4.099467254862401,35.639220900048684
8840,0.10539789712591825,-0.1329550481797067,1.0535173703719172,61.720909378821815,-11.975380224367251,5.305394837672448,12.023540254858089,-4.204243471707054,35.85753782397118
8860,0.11187745822312925,-0.12476494849398301,1.0487413200970326,67.66102012396763,-12.907108458768143,4.733383816008548,11.870913316649222,-3.9606658404352406,35.792890080049204
8880,0.1227406667118394,-0.12216613698237128,1.051696571427219,70.99492522836252,-15.714653417944112,6.225393243982439,11.609327213539919,-4.034495865547636,35.746242279854116
8900,0.13511524575924308,-0.11793077999808285,1.0321844715135824,72.61136160486338,-18.167373982028415,7.725116424890235,11.677885730827038,-3.977581703005371,36.02513247254073
8920,0.12484137429008038,-0.10296645806179189,1.0398847022127675,72.24233078744838,-22.258218590850824,8.589033411538592,11.718446126055806,-4.0526018028248405,36.025081355421705
8940,0.12792394165870158,-0.07211369596207781,1.0430585941281982,69.0198065755575,-26.57871553972779,11.26116711882653,11.920855490772492,-4.1372608853634905,36.143897782731415
8960,0.12500138823628204,-0.05834444443388122,1.048179625474722,65.70680529797315,-29.393743635751925,14.858178532136899,12.057509071446017,-4.112464566760877,36.30986112965321
8980,0.12221873313804418,-0.03173702432789843,1.0570431934434537,57.562717808779816,-34.05553253320086,19.50706592132746,12.062328940364957,-4.118073347772616,36.33422449683174
9000,0.09906704927578852,-0.016689260290432148,1.04871489640773,48.82288150137498,-37.942962711689404,22.442735983377865,11.93216397559894,-4.179784172316169,36.17014331367601
9020,0.08389579735726083,-0.00860172005663461,1.0446536594187068,38.83585166023575,-43.07504204987685,26.318511570286304,11.746497451218458,-3.99619355018111,36.14616410149715
9040,0.0736641586931824,0.007636334118435707,1.0300818133376866,28.63583334499088,-45.54690612998881,27.86372169899827,11.95737614111007,-4.010781907774383,35.92885622583859
9060,0.0509271203831363,0.015254813490663335,1.0227766031372494,18.150278633670887,-48.13381178188446,31.04146479073684,12.16289946724669,-3.9672628043265314,35.85906931624665
9080,0.028578667487680967,0.026964096804845145,1.0172484033019218,9.23619875618259,-49.93396583739143,33.658252696981194,12.209628474730977,-4.140416821888276,35.81505344107725
9100,0.012067823828986687,0.0309909940234154,1.0004636942074487,1.1791659606404448,-49.721364900354295,36.09144854028132,12.068543581512742,-4.172669024803844,35.96513607283505
9120,-0.012453346043683994,0.030971316982797533,0.9938677581996268,-5.407305343743585,-47.76949593732988,36.65888956308181,11.955274053248852,-3.8945847960387003,36.17383899036851
9140,-0.027134391098195966,0.04623966669865519,0.9796994935462272,-10.83714375946952,-43.728478693982765,37.7702364671989,12.090222645229648,-3.624250459490747,36.21904785585789
9160,-0.026561609780391966,0.05706343604940929,0.9763542000153401,-15.479870653651904,-39.11522356894222,35.942281186593235,12.531957362349985,-3.7866048932859986,36.3340185141781
9180,-0.030334792766193882,0.058999175298963896,0.9749634489949893,-18.31683346000712,-34.14436582058191,34.75523796453808,12.276528176067686,-4.028697557708583,36.47331027589993
9200,-0.031756802005083594,0.049970146170753654,0.9754058681097211,-20.114663933316194,-27.816735861091956,32.96162449566829,12.167895026837012,-4.218662077164748,36.34508186090802
9220,-0.025622710246916106,0.042190959738795476,0.9646532782585447,-21.730815266072614,-19.297995837189102,30.3293673547156,12.288326830853313,-3.778515320342026,36.23816440928535
9240,-0.021986773330376238,0.04194363289596223,0.9622326112306655,-20.487614874972927,-11.095954392950931,27.728079000232956,11.952880082093035,-3.9060392933425274,36.27977487961947
9260,-0.026533561645135675,0.044276741819874885,0.9386125287810092,-20.25585588638981,-2.232162670944101,24.539222595783613,11.718317671343462,-3.8543176121955858,36.222367184499134
9280,-0.025231806947777106,0.041758270922887,0.9397189985958543,-22.138954875506798,3.545524797527097,20.539984737484883,11.600504880392684,-3.6890428900214824,36.43676896625633
9300,-0.027357250895134,0.061341817534659185,0.9331325918724441,-24.7875808452068,11.359180582318562,15.690768053615312,11.766619836361192,-3.8074882904125804,36.28173855801369
9320,-0.013532605890222867,0.04936372552363708,0.9064101257499718,-27.084052247136746,17.167991032962142,12.789504445091671,11.742456748590573,-3.7814466144918364,36.40608943403462
9340,-0.023791871560625052,0.06297190681302797,0.9030723056618153,-31.021830794252715,23.876336534546187,9.8906577723397,11.775465284097878,-4.047138396131519,36.350875579215774
9360,-0.020762073453382,0.07125579016514275,0.9023961442732231,-35.31932520932088,29.232075962033065,7.504958430248682,11.779530310130735,-3.9205197824880345,36.24828229041191
9380,-0.06560703190181398,0.07578752307161979,0.8869126872360966,-41.46185700931608,31.145187855179117,3.329094253731217,11.721445247837574,-4.03762355596472,36.44303748341208
9400,-0.0731750789798245,0.10278005352224498,0.8723142054225812,-49.3803411199615,34.03720760807391,-0.5373549577654475,11.799219088366232,-3.989149251571392,36.27053933304743
9420,-0.08898605311418471,0.10541552186263976,0.8695690502124571,-56.87726888380862,36.049437176111496,-1.4806690281313333,12.104357359008194,-3.8837492741244892,36.30814643626908
9440,-0.08918822826066822,0.11238605382388221,0.868342351553142,-62.84000721008932,37.0934314721914,-5.221030240701934,12.367382494805081,-4.23344382946012,36.29497036643931
9460,-0.10514847630604895,0.12109665216586064,0.8528063362748747,-66.65972705483121,35.65512918564398,-6.612850020893836,12.23758273455671,-4.158799746984902,36.42694918555039
9480,-0.12207716119646,0.12372957429064521,0.8446195982479054,-70.48611478522172,34.55419352468216,-8.19805998451372,12.051368754302594,-4.283127012045344,36.329729667935
9500,-0.13365048426169077,0.11323408693233526,0.8346720363992534,-73.18368448285983,32.27594505515999,-7.781683599159152,12.016112334643951,-4.304300826945412,36.49344266796624
9520,-0.14279154692315388,0.09523941302183261,0.8314106529587467,-74.81680614615738,32.49321081058891,-8.603321950115012,12.131443982109408,-4.174918449381996,36.617135979854986
9540,-0.1341899178524518,0.08896154202013479,0.834775183435081,-73.11095168958629,28.9215209558032,-8.066839051688486,12.02322919030821,-4.049156445580886,36.50479547174754
9560,-0.13405103651445463,0.07327149129796262,0.815900303854746,-68.03910103037447,27.38131458035011,-9.87817280141634,12.043977708183373,-4.508280836658852,36.511434175237895
9580,-0.11940688731873686,0.057508144934363896,0.817953012586359,-61.06948632232326,25.29479656304465,-9.853796341271439,12.169779781617496,-4.444118125859278,36.56181555064381
9600,-0.08750439441918219,0.02860723182007871,0.8305466320729331,-54.0723262041413,26.01220654750174,-10.816233572439407,12.1833701912629,-4.424393197887848,36.35467477831694
9620,-0.060935580566858064,0.010893029161092506,0.8316785294205468,-45.70886381150785,25.260067103720974,-11.729110787643325,11.989134964545883,-4.273366482665572,36.41731113776523
9640,-0.04562984103759398,-0.003937106317922573,0.8365989335723332,-35.898569048003125,24.499106467511275,-12.641649512215556,11.807338330098197,-4.285187024064069,36.31879434517806
9660,-0.02856675109224272,-0.030246808486289103,0.8368192907149961,-25.486431534409625,25.210608826096383,-14.098828157056362,11.873191471028365,-4.2963050739813005,36.32736283110274
9680,-0.005307788568472211,-0.048580702081698124,0.8256486410759766,-15.40349380508996,25.512895622002038,-16.465432386082718,11.853824110935,-4.152643884447562,36.37507064922196
9700,0.008470759562793943,-0.06960646268198124,0.8361332409836035,-7.362167810509044,26.856919523858643,-18.234091536177324,11.832283286643177,-4.2507921630479215,36.24539122068689
9720,0.009134162088207637,-0.08317114213536657,0.8471061202492376,-2.2705544100152366,27.98754834427916,-20.218197416032904,11.962597881197166,-4.1408995406459885,36.27495221551073
9740,0.015865979627032716,-0.08934075544618189,0.860435551414482,5.017191748590018,26.862912900514665,-22.541441770215314,11.804932402652819,-4.501340459969986,36.439351080300355
9760,0.02382801968183134,-0.09946953950125208,0.860757539710581,9.875601200940434,25.33104441552615,-26.034934165833764,11.977828042613002,-4.603464516286429,36.233933011114004
9780,0.027668185799997847,-0.08743444608218023,0.8694019668714688,11.7522386831493,24.68315231071271,-30.428084340140543,11.859046575842427,-4.349383112925761,36.07305125978034
9800,0.029991820505999515,-0.07118376393051987,0.8795611530380222,12.631543275862649,23.471463167048867,-33.23023643232904,11.904947079509606,-4.486218969824115,35.988140180271316
9820,0.019476172924337863,-0.0676901921612523,0.8967743485224547,13.78508358208683,18.803806427520843,-35.63411246623588,11.874869675397747,-4.842292066160414,36.18024912243112
9840,0.014766182530672248,-0.06183261831753462,0.9051498983840865,13.710578508101666,14.999593276153343,-36.95875921725187,11.889968875951439,-4.717929373203355,36.106451910558796
9860,0.011028579683854248,-0.07270927046476773,0.9074844483423978,14.30459437889,10.299087420151285,-36.31946629175888,12.095263483764459,-4.491451202962461,35.93533732355995
9880,0.007648910525566771,-0.06959558474127898,0.8896015371428363,16.19859862304964,2.79582038300427,-36.98954176380008,12.030335729828161,-4.492434706115875,36.02781585149413
9900,0.011874602439361375,-0.06244712578454209,0.8975189870715795,19.286095732496282,-2.6078274177782026,-37.00360988681751,11.623499681381924,-4.576000657550315,35.961517347037976
9920,0.012648424283819699,-0.05138535499887861,0.9213622571212308,22.643509704113413,-11.941692438305484,-35.33641811525811,11.877980769317112,-4.281581940914161,35.8586764195765
9940,0.03263321604517738,-0.06218763593055839,0.9347587767725879,26.85469323998628,-18.379658607362245,-32.95505581453219,11.850977321695318,-4.5078628106091285,35.71911650408291
9960,0.05415963699213992,-0.07384180841482853,0.931259412004781,31.066577694045563,-23.830197664851482,-31.066974593254024,11.416882834330512,-4.693904868552784,35.690903071913496
9980,0.06376021134778229,-0.07089692597354616,0.9460924642076819,39.274571742768636,-31.542495989819678,-26.092740091123407,11.425803044531284,-4.693555707335951,35.9270926351083
