Timestamp,Acceleration_X,Acceleration_Y,Acceleration_Z,Gyro_X,Gyro_Y,Gyro_Z
2025-11-24T17:00:00,0.12237,-0.09932,-9.79393,0.17578310454263651,-0.2534539214478133,-0.015437611766815044
2025-11-24T17:00:00.009615,0.12388,-0.07545,-9.76721,0.1967195506507849,-0.19782608939654928,0.03769649384919953
2025-11-24T17:00:00.019231,0.14593,-0.05377,-9.62172,0.13865384270033512,-0.2003339529987399,-0.00099413954193597
2025-11-24T17:00:00.028846,0.14176,-0.0245,-9.64089,0.23920086464432685,-0.2130572287128534,0.053741480195708596
2025-11-24T17:00:00.038462,0.13542,-0.0,-9.53641,0.2201581007745923,-0.2209044035627451,0.05853747044726382
2025-11-24T17:00:00.048077,0.15976,-0.01493,-9.48722,0.30904597424941155,-0.181472005239512,0.056433650566909854
2025-11-24T17:00:00.057692,0.18492,-0.03593,-9.26208,0.2796637053579374,-0.1938875794064989,0.05143171146361931
2025-11-24T17:00:00.067308,0.18401,-0.01696,-9.25245,0.2664620348958523,-0.14740195651010632,0.0704496916579755
2025-11-24T17:00:00.076923,0.15713,0.016,-9.15908,0.3626781968339453,-0.1647941625062298,0.08871403868132056
2025-11-24T17:00:00.086538,0.15194,0.00727,-9.05361,0.34972663205367094,-0.14890485952899862,0.13513595706001535
2025-11-24T17:00:00.096154,0.17072,0.00477,-9.00339,0.37017473503711135,-0.10694662071227932,0.10881709007164166
2025-11-24T17:00:00.105769,0.18985,0.03017,-8.96902,0.39307136042817453,-0.09059794707592325,0.08999284142425681
2025-11-24T17:00:00.115385,0.14824,0.04548,-8.96953,0.3960729776757544,-0.07532579252219727,0.12839305202786044
2025-11-24T17:00:00.125000,0.19597,0.06333,-8.82126,0.381615193751009,-0.05191673846274853,0.14068732581183374
2025-11-24T17:00:00.134615,0.1809,0.04585,-8.72834,0.380566774469336,-0.07467286484902619,0.13938565925569635
2025-11-24T17:00:00.144231,0.19653,0.07064,-8.6158,0.44654755057758,-0.044486697304083465,0.15481978036400743
2025-11-24T17:00:00.153846,0.20551,0.09516,-8.57624,0.4136887603490583,-0.0123117270764932,0.1752287879722031
2025-11-24T17:00:00.163462,0.21516,0.10514,-8.60785,0.45922562226406677,-0.008160635983549887,0.13269249610722328
2025-11-24T17:00:00.173077,0.23466,0.12278,-8.45768,0.4814270830140607,-0.025797537140802983,0.170388291824722
2025-11-24T17:00:00.182692,0.25208,0.1192,-8.40153,0.48848851063470455,0.008819497776177746,0.18111351461115235
2025-11-24T17:00:00.192308,0.23332,0.11936,-8.43562,0.4330093806357104,0.06487057217105044,0.2203518323215637
2025-11-24T17:00:00.201923,0.26772,0.16825,-8.32716,0.5022296623685811,0.03217357396418867,0.20040778042609927
2025-11-24T17:00:00.211538,0.23143,0.1326,-8.28825,0.5042615746837529,0.043584013014952,0.2150491729881545
2025-11-24T17:00:00.221154,0.25595,0.17447,-8.23282,0.5433152365593032,0.04633971337092584,0.2173282239254087
2025-11-24T17:00:00.230769,0.27101,0.13895,-8.12815,0.5577389865636347,0.05578089742666397,0.24584498404081886
2025-11-24T17:00:00.240385,0.25868,0.18018,-8.065,0.5858782319618385,0.06665778932509263,0.24778840816291453
2025-11-24T17:00:00.250000,0.24561,0.13545,-8.11083,0.5605187724632862,0.06631605385755214,0.22845836309830175
2025-11-24T17:00:00.259615,0.24556,0.18682,-8.05118,0.6220800258396302,0.11992471449718398,0.22667899992589355
2025-11-24T17:00:00.269231,0.25818,0.16589,-8.03527,0.6273524909769799,0.11155516260217035,0.24291143463406678
2025-11-24T17:00:00.278846,0.2749,0.1795,-8.02116,0.6622079378697828,0.12022089687124742,0.26062041788942725
2025-11-24T17:00:00.288462,0.25328,0.18738,-7.87479,0.6625111015608544,0.09736807924440925,0.2208075377892594
2025-11-24T17:00:00.298077,0.27209,0.18699,-7.8735,0.7124887792246372,0.1260719386556332,0.267225790976525
2025-11-24T17:00:00.307692,0.2757,0.15028,-7.93995,0.6308951602926779,0.1901211588806951,0.2528205414622646
2025-11-24T17:00:00.317308,0.29213,0.25086,-7.77224,0.6896897177387604,0.20102929217273446,0.2562509861070595
2025-11-24T17:00:00.326923,0.28785,0.20994,-7.83869,0.7012191882445098,0.14160554353130794,0.260453913478787
2025-11-24T17:00:00.336538,0.29271,0.19577,-7.6892,0.6822184868097483,0.22123811051572642,0.2603291224372694
2025-11-24T17:00:00.346154,0.27438,0.25321,-7.77048,0.7088530838598077,0.21677495455252652,0.26198107657428205
2025-11-24T17:00:00.355769,0.28653,0.26769,-7.67192,0.7334723492225894,0.1857494581702997,0.2823387715024691
2025-11-24T17:00:00.365385,0.30628,0.23822,-7.6865,0.7390830591689755,0.25351867316306237,0.2627635076779511
2025-11-24T17:00:00.375000,0.32175,0.24035,-7.70018,0.7293306829076069,0.25187806366618765,0.2695432391573231
2025-11-24T17:00:00.384615,0.26779,0.22474,-7.64434,0.7522332424181268,0.2551875569938193,0.28025956076456826
2025-11-24T17:00:00.394231,0.32414,0.26179,-7.58941,0.7547552431872586,0.254285047237613,0.2635958551982272
2025-11-24T17:00:00.403846,0.32148,0.23808,-7.61288,0.7815167256739382,0.30595237815025156,0.24972380377045109
2025-11-24T17:00:00.413462,0.31069,0.3008,-7.64182,0.8195341855725794,0.24053551792332692,0.25336176806330807
2025-11-24T17:00:00.423077,0.30067,0.26316,-7.56331,0.7564461181665907,0.2795031350667539,0.25081376188832155
2025-11-24T17:00:00.432692,0.28922,0.28083,-7.56979,0.8062607820782374,0.36562274181498494,0.264998576318055
2025-11-24T17:00:00.442308,0.32458,0.25624,-7.59208,0.8377618806816326,0.3103785331333092,0.26620372616655713
2025-11-24T17:00:00.451923,0.33437,0.26533,-7.52655,0.8485316093639887,0.31702823758340765,0.22365312260171097
2025-11-24T17:00:00.461538,0.33074,0.288,-7.57459,0.7951810829207269,0.34155657129216027,0.2530476087979491
2025-11-24T17:00:00.471154,0.32036,0.26172,-7.57457,0.7984392635683499,0.3567219116956642,0.2507999737872308
2025-11-24T17:00:00.480769,0.30038,0.30304,-7.51484,0.8418012707024483,0.38967896396107315,0.1970506396098882
2025-11-24T17:00:00.490385,0.26805,0.27261,-7.4922,0.8574097502030336,0.3477776228779689,0.2225327957548558
2025-11-24T17:00:00.500000,0.29093,0.29729,-7.48193,0.8225736764649275,0.37281506912952833,0.23256372656484284
2025-11-24T17:00:00.509615,0.30276,0.27502,-7.52646,0.8783229834321303,0.38080640817563477,0.22058326298037811
2025-11-24T17:00:00.519231,0.26231,0.31355,-7.56691,0.8141739303738544,0.4479939049287077,0.2090251690748961
2025-11-24T17:00:00.528846,0.29424,0.26836,-7.56768,0.8193315528464229,0.4363628562604923,0.1635893617235781
2025-11-24T17:00:00.538462,0.29302,0.29759,-7.52923,0.8243394260691702,0.4529529089323992,0.17721322733172065
2025-11-24T17:00:00.548077,0.29626,0.29825,-7.62242,0.876940857197476,0.3954779949337495,0.18853831978206145
2025-11-24T17:00:00.557692,0.2564,0.26379,-7.54668,0.8539588852059904,0.4262642066755279,0.15494317514212338
2025-11-24T17:00:00.567308,0.26443,0.28723,-7.60582,0.8513401931962981,0.4709615652203271,0.14839941217762107
2025-11-24T17:00:00.576923,0.26636,0.30664,-7.57359,0.853706510596152,0.43570608886296686,0.15296920775811781
2025-11-24T17:00:00.586538,0.24895,0.28313,-7.58463,0.8245471202501575,0.46152544261941975,0.1608200477994387
2025-11-24T17:00:00.596154,0.30423,0.30005,-7.64002,0.8159644636534754,0.47522819710975245,0.12783559386477347
2025-11-24T17:00:00.605769,0.25648,0.25193,-7.61525,0.8501153211272484,0.4877607083366229,0.11854398452593126
2025-11-24T17:00:00.615385,0.26978,0.30798,-7.67558,0.8759535244396229,0.46587864283974395,0.11457964366295134
2025-11-24T17:00:00.625000,0.25469,0.28798,-7.70893,0.8320525596325087,0.49432681151555075,0.11347607197691531
2025-11-24T17:00:00.634615,0.28804,0.28363,-7.61643,0.8295350967194322,0.48437860931210824,0.11746065865921838
2025-11-24T17:00:00.644231,0.27916,0.29124,-7.63743,0.8840043792132224,0.5251205281731127,0.0967116609127342
2025-11-24T17:00:00.653846,0.26167,0.29902,-7.78599,0.9005989697411845,0.5475289849723931,0.07452608265893347
2025-11-24T17:00:00.663462,0.20105,0.29572,-7.77575,0.8546065768914055,0.5581316856453334,0.07663862918554741
2025-11-24T17:00:00.673077,0.24216,0.31275,-7.71202,0.8434230306434013,0.5756188375527654,0.05607411274099902
2025-11-24T17:00:00.682692,0.25067,0.32385,-7.79524,0.8848656991990815,0.5330488608332222,0.05097443519959679
2025-11-24T17:00:00.692308,0.25283,0.31437,-7.85463,0.840086659245289,0.5537533526837806,0.027950749838988393
2025-11-24T17:00:00.701923,0.21605,0.30002,-7.90547,0.850658467590469,0.5901890206813393,-0.0032466614745598516
2025-11-24T17:00:00.711538,0.26039,0.32843,-7.8684,0.825300229822393,0.4985443996529951,0.019124968877503465
2025-11-24T17:00:00.721154,0.19299,0.28414,-7.88616,0.869937025442148,0.566769843712229,0.023205548668666205
2025-11-24T17:00:00.730769,0.20151,0.29363,-7.91009,0.8500348614487314,0.543313316697126,-0.028024402733422552
2025-11-24T17:00:00.740385,0.2287,0.24137,-7.97039,0.9002319269994901,0.5763904476150722,0.015695396897334606
2025-11-24T17:00:00.750000,0.20615,0.29957,-7.97862,0.8066360278674161,0.5690092756754629,-0.018393326855067442
2025-11-24T17:00:00.759615,0.24031,0.28847,-8.0219,0.8285742929662092,0.5778282498528651,-0.06238627051376171
2025-11-24T17:00:00.769231,0.19904,0.32021,-8.07916,0.8507925088770222,0.58135503667237,-0.06832073903639282
2025-11-24T17:00:00.778846,0.17755,0.28659,-8.07302,0.81960033355123,0.605439009553565,-0.06951140265210336
2025-11-24T17:00:00.788462,0.17753,0.28251,-8.09657,0.8565438923611192,0.5891851072955923,-0.08181737014206497
2025-11-24T17:00:00.798077,0.15807,0.33917,-8.09535,0.7903065528528319,0.6094626916111128,-0.08086005704734608
2025-11-24T17:00:00.807692,0.14909,0.3001,-8.20646,0.7770678814106045,0.5959267905972706,-0.11182917929473347
2025-11-24T17:00:00.817308,0.18195,0.27436,-8.25457,0.8179792717419776,0.5931305986026505,-0.11855026771123844
2025-11-24T17:00:00.826923,0.17562,0.25697,-8.22219,0.8264140989510158,0.6158137702261949,-0.11957268158705671
2025-11-24T17:00:00.836538,0.1845,0.25992,-8.24154,0.7985954705364033,0.6183232046247122,-0.1420167431030778
2025-11-24T17:00:00.846154,0.13809,0.30745,-8.26723,0.760237496900698,0.5946460679921572,-0.11910231535364425
2025-11-24T17:00:00.855769,0.1815,0.2835,-8.18869,0.7436785110894766,0.6182607218374909,-0.14439213621504207
2025-11-24T17:00:00.865385,0.13648,0.29176,-8.25394,0.7578711795008441,0.6241374199618811,-0.16758075518996396
2025-11-24T17:00:00.875000,0.16821,0.28615,-8.38201,0.6934624214498714,0.6154462038857249,-0.17524728846227422
2025-11-24T17:00:00.884615,0.12253,0.2643,-8.38584,0.7810412979856948,0.5962917389438627,-0.2000334073015465
2025-11-24T17:00:00.894231,0.11093,0.26402,-8.42053,0.7750815221889099,0.5787569395478513,-0.16299106285599443
2025-11-24T17:00:00.903846,0.12508,0.28945,-8.30759,0.7338036127146179,0.6321713450417361,-0.1974510181402957
2025-11-24T17:00:00.913462,0.13515,0.26627,-8.47499,0.6696011525812309,0.6009919106194834,-0.20310431412043053
2025-11-24T17:00:00.923077,0.11218,0.26276,-8.45199,0.676640065454524,0.6026738844196303,-0.18469929355937473
2025-11-24T17:00:00.932692,0.09169,0.26225,-8.49774,0.7097857878120736,0.6018005216619323,-0.21182834238652418
2025-11-24T17:00:00.942308,0.07102,0.26726,-8.59041,0.6760566018855824,0.5790456170061311,-0.2043759610134336
2025-11-24T17:00:00.951923,0.06427,0.29064,-8.51658,0.706258477393793,0.6120838270817578,-0.2377819119624555
2025-11-24T17:00:00.961538,0.09683,0.26925,-8.55017,0.6593342532563743,0.5999612936961808,-0.22962075238012997
2025-11-24T17:00:00.971154,0.10106,0.27795,-8.58361,0.6342687072038576,0.6466394264090682,-0.23827374574566745
2025-11-24T17:00:00.980769,0.07249,0.23669,-8.61078,0.6770009995438364,0.6050272863830195,-0.24699079269475313
2025-11-24T17:00:00.990385,0.04883,0.23611,-8.7506,0.6707710467788427,0.5925832633492252,-0.26286927463062193
2025-11-24T17:00:01,0.08235,0.2786,-8.63165,0.6196480840599012,0.6042860450496975,-0.2535923260574965
2025-11-24T17:00:01.009615,0.03388,0.2607,-8.75252,0.5882894043234687,0.578431086576504,-0.2648945546946362
2025-11-24T17:00:01.019231,0.03987,0.25556,-8.64304,0.5506813986673452,0.5852528804908489,-0.2791430736420675
2025-11-24T17:00:01.028846,0.06123,0.24345,-8.7779,0.6099999039548766,0.5795543804830875,-0.2441462550798528
2025-11-24T17:00:01.038462,-0.00147,0.27672,-8.79153,0.5175789604752452,0.6136970349093761,-0.25821099085704907
2025-11-24T17:00:01.048077,0.04603,0.25062,-8.80545,0.538086928252029,0.5590963291229107,-0.263404043513433
2025-11-24T17:00:01.057692,0.02148,0.23337,-8.8567,0.5722098604577701,0.5993924908929559,-0.26822167584771295
2025-11-24T17:00:01.067308,0.03017,0.23114,-8.90626,0.4957344195572842,0.6276053891855937,-0.25933637915873503
2025-11-24T17:00:01.076923,0.02139,0.23137,-8.8507,0.48667232101507923,0.5663607385355616,-0.2826740492517772
2025-11-24T17:00:01.086538,0.02192,0.25256,-8.95055,0.49279266710304775,0.5646040646434292,-0.26773472898640654
2025-11-24T17:00:01.096154,0.0268,0.24554,-8.87174,0.41543915105588347,0.5481264111753508,-0.24959569660335468
2025-11-24T17:00:01.105769,-0.00716,0.2417,-8.98357,0.4631875196660939,0.563380414304856,-0.2631000071577356
2025-11-24T17:00:01.115385,0.03158,0.26661,-8.92547,0.40584350536134384,0.5572811867008367,-0.2646659165626249
2025-11-24T17:00:01.125000,0.0129,0.23561,-8.97571,0.3739711752260494,0.5295704196339974,-0.25578864838820614
2025-11-24T17:00:01.134615,0.01054,0.22595,-8.93332,0.37567967803082664,0.5502080653742044,-0.24830642188490648
2025-11-24T17:00:01.144231,0.01232,0.23601,-8.96165,0.42653769976931544,0.5408021369693565,-0.24911136773592626
2025-11-24T17:00:01.153846,0.00019,0.23194,-8.98283,0.34219640899594145,0.5163233706113605,-0.24198501386710822
2025-11-24T17:00:01.163462,-0.00319,0.18444,-9.13847,0.3054987670776582,0.5292798223135404,-0.25827155378209327
2025-11-24T17:00:01.173077,-0.023,0.195,-9.04366,0.34400299930468076,0.5084266284107122,-0.2355004175642485
2025-11-24T17:00:01.182692,-0.05742,0.22855,-9.08878,0.3088998901910196,0.5134304873761799,-0.21313559399626794
2025-11-24T17:00:01.192308,-0.03588,0.22831,-9.03344,0.3116042778669848,0.48537554138084743,-0.239643829208483
2025-11-24T17:00:01.201923,-0.05279,0.20366,-9.15512,0.2902885717123781,0.4881486950293412,-0.22557752263495992
2025-11-24T17:00:01.211538,-0.07001,0.19747,-9.14925,0.21830560830652554,0.47765019051274493,-0.2162180199882151
2025-11-24T17:00:01.221154,-0.04046,0.17771,-9.21695,0.2626422072949375,0.47464316274448387,-0.19512414518153687
2025-11-24T17:00:01.230769,-0.061,0.2045,-9.22311,0.21089214777575443,0.4449456873900996,-0.2124807464609197
2025-11-24T17:00:01.240385,-0.07416,0.20567,-9.22917,0.20559699335812884,0.44080838439824704,-0.2029315265244831
2025-11-24T17:00:01.250000,-0.07828,0.21003,-9.2263,0.1805815382551445,0.43862131231257295,-0.18544105849147233
2025-11-24T17:00:01.259615,-0.05583,0.18627,-9.35023,0.20251439283325645,0.49695056498007384,-0.17237534917811756
2025-11-24T17:00:01.269231,-0.05773,0.1802,-9.25979,0.13377372757883377,0.4519784916110108,-0.1839988929305494
2025-11-24T17:00:01.278846,-0.04209,0.20877,-9.40751,0.12751654767750892,0.4214788629324098,-0.15853227021592456
2025-11-24T17:00:01.288462,-0.07237,0.18405,-9.29506,0.09897674921597244,0.4236140987392997,-0.15472640524902573
2025-11-24T17:00:01.298077,-0.05475,0.18588,-9.36636,0.09660973368441772,0.38559384631385524,-0.1561963215450553
2025-11-24T17:00:01.307692,-0.05095,0.14833,-9.33725,0.0728519628404205,0.3934698190964049,-0.15538858316723236
2025-11-24T17:00:01.317308,-0.05934,0.16852,-9.57057,0.07874384532930297,0.3488466370448154,-0.13344543114653365
2025-11-24T17:00:01.326923,-0.13292,0.20144,-9.37815,0.026365292746476744,0.352721442517168,-0.09531016152338274
2025-11-24T17:00:01.336538,-0.06425,0.19895,-9.49081,0.04892664038823184,0.35917217943253904,-0.12202975610801434
2025-11-24T17:00:01.346154,-0.08517,0.16416,-9.48627,-0.01261349450416302,0.34424263301097957,-0.0849525050774224
2025-11-24T17:00:01.355769,-0.08655,0.17557,-9.54273,-0.07395850158618492,0.3422054847080518,-0.08796913215656939
2025-11-24T17:00:01.365385,-0.09061,0.16432,-9.53395,-0.01217995471796763,0.3372730097089906,-0.0910150807671499
2025-11-24T17:00:01.375000,-0.09332,0.20131,-9.61334,-0.06490966754629511,0.29693565816859846,-0.07932434183851628
2025-11-24T17:00:01.384615,-0.09746,0.10531,-9.67425,-0.050218184034707646,0.31118696964283293,-0.06144606164571236
2025-11-24T17:00:01.394231,-0.11384,0.15146,-9.6321,-0.051798754205313706,0.30666639234724247,-0.06354063128103077
2025-11-24T17:00:01.403846,-0.14745,0.08403,-9.72256,-0.09439962325261729,0.30174596012002003,-0.01876228945893904
2025-11-24T17:00:01.413462,-0.11429,0.16086,-9.75825,-0.08655244840272559,0.23809624576073962,-0.040117614587566054
2025-11-24T17:00:01.423077,-0.13082,0.17367,-9.79301,-0.15540935258533106,0.28414937606848806,0.011880630751250601
2025-11-24T17:00:01.432692,-0.09573,0.13631,-9.70491,-0.12852203185958283,0.23786778216165358,-0.013337108012039868
2025-11-24T17:00:01.442308,-0.12563,0.13765,-9.84302,-0.22131891926009375,0.2651572267470613,-0.013775360187215646
2025-11-24T17:00:01.451923,-0.12066,0.14087,-9.7635,-0.20183057283232508,0.2554427241304609,-0.008407949138557483
2025-11-24T17:00:01.461538,-0.14175,0.15055,-9.89706,-0.1906730319901757,0.20230600052056832,0.027333950481333594
2025-11-24T17:00:01.471154,-0.13734,0.07975,-9.95359,-0.2058886378761371,0.22195962962850085,0.03785706414038301
2025-11-24T17:00:01.480769,-0.12969,0.11118,-9.97172,-0.23523809457767372,0.2037664920386372,0.045154634808821696
2025-11-24T17:00:01.490385,-0.16144,0.12002,-10.03032,-0.2360987164318321,0.17977729053582553,0.06671922491476283
2025-11-24T17:00:01.500000,-0.12796,0.10154,-10.06151,-0.2571871807178292,0.13926296260928114,0.0718696915373981
2025-11-24T17:00:01.509615,-0.13829,0.0914,-10.06412,-0.28045329231153965,0.14797320277428402,0.07686011146762549
2025-11-24T17:00:01.519231,-0.16204,0.08189,-10.21104,-0.3145603420210876,0.13388577771681182,0.07121955639103021
2025-11-24T17:00:01.528846,-0.1884,0.08925,-10.04238,-0.3509193900644839,0.11401310978775397,0.11366090234470153
2025-11-24T17:00:01.538462,-0.13225,0.09484,-10.17571,-0.32553462329177757,0.11423110141132807,0.10186125487074346
2025-11-24T17:00:01.548077,-0.15051,0.10827,-10.12741,-0.3507408428820049,0.12488005330944628,0.10596016061905214
2025-11-24T17:00:01.557692,-0.15716,0.08184,-10.29453,-0.3776873302693957,0.10913648532475662,0.13120093772846894
2025-11-24T17:00:01.567308,-0.15326,0.05636,-10.27437,-0.42538351353497156,0.05232793803451839,0.13154616385451343
2025-11-24T17:00:01.576923,-0.11415,0.07168,-10.35786,-0.374451315303273,0.05285171134304189,0.13405786718105847
2025-11-24T17:00:01.586538,-0.15339,0.0848,-10.32062,-0.45155577286617776,0.04614685448858047,0.1444806244081182
2025-11-24T17:00:01.596154,-0.15255,0.04707,-10.35471,-0.49014395543022116,0.03832847757134668,0.1435594396289156
2025-11-24T17:00:01.605769,-0.18588,0.05042,-10.31586,-0.42377711249143596,-0.029665361296147618,0.14670365027638338
2025-11-24T17:00:01.615385,-0.12503,0.06172,-10.41245,-0.4790792661042779,0.0541727510538764,0.18137845559160512
2025-11-24T17:00:01.625000,-0.14144,0.02791,-10.41004,-0.4938901301367018,-0.0019984019935335075,0.16268248864424187
2025-11-24T17:00:01.634615,-0.14023,0.03111,-10.4926,-0.503731343656997,-0.012131783630612585,0.20426268914497916
2025-11-24T17:00:01.644231,-0.16238,0.02837,-10.43622,-0.5241562337613859,0.006783047604950762,0.2375895766788857
2025-11-24T17:00:01.653846,-0.14675,0.0317,-10.62158,-0.5084732287017404,-0.029632898172060523,0.2093902919544133
2025-11-24T17:00:01.663462,-0.15939,-0.02398,-10.52263,-0.55279464332566,-0.0800887960508898,0.20824186530660105
2025-11-24T17:00:01.673077,-0.15625,0.01336,-10.65406,-0.5560994242643112,-0.10053777169895617,0.2094789546804146
2025-11-24T17:00:01.682692,-0.17324,-0.00655,-10.65421,-0.5769147445223712,-0.027643920956487787,0.21743817966828435
2025-11-24T17:00:01.692308,-0.20134,-0.00677,-10.7297,-0.5930513606546101,-0.10404361456743717,0.2275521881506663
2025-11-24T17:00:01.701923,-0.15294,0.00808,-10.70686,-0.6224943670040536,-0.10410260669615458,0.22659836571445138
2025-11-24T17:00:01.711538,-0.21385,-0.00791,-10.83315,-0.599792520357513,-0.11668276541160451,0.2568489359087927
2025-11-24T17:00:01.721154,-0.18157,0.01895,-10.84061,-0.6613808263372628,-0.08973383456326087,0.24390801763695555
2025-11-24T17:00:01.730769,-0.18246,-0.02292,-10.79113,-0.6784243155488378,-0.11765805539761895,0.2534556667770654
2025-11-24T17:00:01.740385,-0.20081,-0.07951,-10.8876,-0.6860082947475288,-0.14892981773730213,0.24561180805275243
2025-11-24T17:00:01.750000,-0.16927,-0.05994,-10.94592,-0.6676367845081113,-0.1374898826221801,0.2454007977461863
2025-11-24T17:00:01.759615,-0.18709,-0.04764,-11.00349,-0.6651273501095938,-0.16065092539492046,0.27016265650885585
2025-11-24T17:00:01.769231,-0.19336,-0.06078,-11.10243,-0.6991343924530026,-0.20020357690361595,0.2630724309555541
2025-11-24T17:00:01.778846,-0.17575,-0.04515,-11.0424,-0.6473925359813039,-0.2114215061378843,0.24194417316261155
2025-11-24T17:00:01.788462,-0.19719,-0.11494,-11.07889,-0.7056231775460671,-0.1867966557214963,0.2401616683975497
2025-11-24T17:00:01.798077,-0.16137,-0.07717,-11.11701,-0.7131617781842061,-0.1929555735859339,0.2533893442654896
2025-11-24T17:00:01.807692,-0.18359,-0.09093,-11.20812,-0.7193627584836169,-0.19733251028408527,0.24691242741133862
2025-11-24T17:00:01.817308,-0.20157,-0.09706,-11.20623,-0.7109649322547209,-0.23840359824201585,0.26736245025695615
2025-11-24T17:00:01.826923,-0.2324,-0.11307,-11.29344,-0.740481067899823,-0.24129002375896405,0.24816714461059733
2025-11-24T17:00:01.836538,-0.22109,-0.12238,-11.36087,-0.7269032789839331,-0.28232253994042555,0.2696964790656482
2025-11-24T17:00:01.846154,-0.1746,-0.15386,-11.34509,-0.7480805805288567,-0.27009720666190606,0.24975417249943577
2025-11-24T17:00:01.855769,-0.19872,-0.09707,-11.41482,-0.7431453130029924,-0.285070909913541,0.25966711905198797
2025-11-24T17:00:01.865385,-0.20472,-0.16062,-11.45224,-0.8072364211301022,-0.30165467940014074,0.23569624350632223
2025-11-24T17:00:01.875000,-0.16753,-0.12931,-11.4308,-0.8427043040574301,-0.3145795406428596,0.23729845575965303
2025-11-24T17:00:01.884615,-0.22735,-0.1616,-11.53191,-0.7604985981567964,-0.3242608820036721,0.23828561398458104
2025-11-24T17:00:01.894231,-0.21469,-0.16872,-11.5297,-0.8250125995616644,-0.32587984941782205,0.25368797010050576
2025-11-24T17:00:01.903846,-0.21367,-0.13604,-11.57734,-0.799953336694455,-0.35863706148387764,0.24061597760184386
2025-11-24T17:00:01.913462,-0.19372,-0.18547,-11.72862,-0.7939645884320868,-0.34992088719941794,0.23148371682370872
2025-11-24T17:00:01.923077,-0.2199,-0.16668,-11.67737,-0.8439708894956024,-0.3832758745342816,0.23612856156204123
2025-11-24T17:00:01.932692,-0.22005,-0.19997,-11.75628,-0.819906638834955,-0.3373307801072316,0.22984851784751523
2025-11-24T17:00:01.942308,-0.241,-0.19393,-11.77517,-0.8196268625558603,-0.38836961795622704,0.21335149122473965
2025-11-24T17:00:01.951923,-0.19539,-0.2215,-11.8768,-0.8110853957295252,-0.3874589051525364,0.2277979305093471
2025-11-24T17:00:01.961538,-0.1949,-0.24196,-11.85341,-0.8421384683139336,-0.40317280253994214,0.2009298084053708
2025-11-24T17:00:01.971154,-0.22155,-0.24384,-11.85587,-0.892221738397462,-0.3702166229391592,0.1903410703664464
2025-11-24T17:00:01.980769,-0.20971,-0.22125,-11.98906,-0.8214866854067855,-0.436688185633064,0.20624468504354393
2025-11-24T17:00:01.990385,-0.23974,-0.23588,-11.97776,-0.8825079339125624,-0.471974030719409,0.17413900438725782
2025-11-24T17:00:02,-0.22418,-0.24585,-12.00939,-0.8898528030037302,-0.45777944244586427,0.16654612400938168
2025-11-24T17:00:02.009615,-0.18799,-0.26435,-12.10508,-0.8952041570232699,-0.4493170390346446,0.16992193984858914
2025-11-24T17:00:02.019231,-0.21359,-0.2634,-12.08814,-0.8613487837918595,-0.4571165663959569,0.14422353740929944
2025-11-24T17:00:02.028846,-0.1708,-0.25748,-12.12896,-0.8948784785848478,-0.5144069990926707,0.1627619011252076
2025-11-24T17:00:02.038462,-0.23339,-0.27893,-12.20808,-0.8947084835157035,-0.4569282453696667,0.13704552179462234
2025-11-24T17:00:02.048077,-0.20662,-0.28576,-12.25723,-0.8659575002146758,-0.5034393500731383,0.13485234105656627
2025-11-24T17:00:02.057692,-0.22265,-0.32501,-12.22869,-0.8605379038213831,-0.5071815105223394,0.11823925003853306
2025-11-24T17:00:02.067308,-0.20787,-0.31641,-12.34013,-0.8466374035267993,-0.4932635569352358,0.1060360824415139
2025-11-24T17:00:02.076923,-0.21971,-0.32456,-12.38406,-0.8695387413068429,-0.4907085694432413,0.10228414814850169
2025-11-24T17:00:02.086538,-0.23109,-0.33517,-12.33578,-0.8481443208029712,-0.5217365092864209,0.08084033482679855
2025-11-24T17:00:02.096154,-0.23745,-0.31919,-12.43608,-0.8669095773216386,-0.5239197416477406,0.1054505244774698
2025-11-24T17:00:02.105769,-0.15893,-0.2944,-12.44788,-0.8951214284167254,-0.548714761666198,0.0709469359618687
2025-11-24T17:00:02.115385,-0.22187,-0.30991,-12.448,-0.9060492839293123,-0.5612118427092531,0.06713862753401707
2025-11-24T17:00:02.125000,-0.26065,-0.3321,-12.4715,-0.888238024379785,-0.5560858106961457,0.06809000650927918
2025-11-24T17:00:02.134615,-0.23319,-0.36847,-12.46204,-0.8692034635575349,-0.5033135118340696,0.022513351087325256
2025-11-24T17:00:02.144231,-0.20648,-0.34251,-12.54287,-0.8233089836787928,-0.5544097710154555,0.010398148084606618
2025-11-24T17:00:02.153846,-0.22976,-0.3274,-12.59688,-0.8919803593619112,-0.5399980637829628,0.003435331566700439
2025-11-24T17:00:02.163462,-0.19219,-0.38719,-12.64369,-0.8639568292931147,-0.5695738896884831,-0.006424207910740729
2025-11-24T17:00:02.173077,-0.19888,-0.38655,-12.7025,-0.8658756442727573,-0.5712738403799256,-0.009283755357208236
2025-11-24T17:00:02.182692,-0.22141,-0.42803,-12.60203,-0.8555577813337423,-0.6017506052453253,-0.015365529668707679
2025-11-24T17:00:02.192308,-0.22715,-0.41117,-12.68321,-0.8475723764070927,-0.5713305635806154,-0.06355215045409392
2025-11-24T17:00:02.201923,-0.23703,-0.34595,-12.66112,-0.8188620592776364,-0.5886721550284311,-0.04105101667153263
2025-11-24T17:00:02.211538,-0.23006,-0.35011,-12.70191,-0.8492920493190828,-0.6141551838380246,-0.057716293034200485
2025-11-24T17:00:02.221154,-0.24454,-0.37708,-12.74148,-0.807492635464295,-0.569790834114506,-0.06918781860878362
2025-11-24T17:00:02.230769,-0.1899,-0.38877,-12.85926,-0.8041292114627767,-0.5978054630041174,-0.07532265092954368
2025-11-24T17:00:02.240385,-0.18096,-0.41154,-12.80238,-0.7631665084513949,-0.6190651440897351,-0.08760994339650896
2025-11-24T17:00:02.250000,-0.23658,-0.38691,-12.77205,-0.813691346835678,-0.6165255154951581,-0.10561615622348405
2025-11-24T17:00:02.259615,-0.23365,-0.41061,-12.73247,-0.772440489964792,-0.5898223270054953,-0.0986470565202707
2025-11-24T17:00:02.269231,-0.24383,-0.36992,-12.7562,-0.7607867520163006,-0.6165618183435997,-0.1442064331826299
2025-11-24T17:00:02.278846,-0.22606,-0.39256,-12.77003,-0.7587255181696954,-0.6517408492797225,-0.1333051066746733
2025-11-24T17:00:02.288462,-0.26711,-0.39368,-12.81216,-0.7716854605303792,-0.5701830095974292,-0.1271772556709212
2025-11-24T17:00:02.298077,-0.2259,-0.41314,-12.84102,-0.8180503066425338,-0.6389913936268292,-0.1301092342813465
2025-11-24T17:00:02.307692,-0.17507,-0.4308,-12.86424,-0.7689290620427046,-0.5976674074602846,-0.1753134364409248
2025-11-24T17:00:02.317308,-0.20575,-0.3957,-12.79645,-0.7653343819152971,-0.5971457285468634,-0.15071598769379313
2025-11-24T17:00:02.326923,-0.17944,-0.42898,-12.80485,-0.7531563470595066,-0.5806221729194576,-0.19393173623657434
2025-11-24T17:00:02.336538,-0.20387,-0.44841,-12.84332,-0.7513553418043737,-0.6219726880906324,-0.15981595988076636
2025-11-24T17:00:02.346154,-0.15632,-0.39777,-12.79219,-0.7563579790393651,-0.6188869459731065,-0.1824045346588526
2025-11-24T17:00:02.355769,-0.18485,-0.40641,-12.90422,-0.7164508511595895,-0.5853722610116854,-0.19740546504681863
2025-11-24T17:00:02.365385,-0.19365,-0.42299,-12.78813,-0.6531617218237711,-0.5876746993609163,-0.19192513119555643
2025-11-24T17:00:02.375000,-0.132,-0.41312,-12.8486,-0.694590078679585,-0.5858258720842787,-0.20887943408235457
2025-11-24T17:00:02.384615,-0.18645,-0.37083,-12.75868,-0.6661649483499045,-0.603615315018156,-0.2280387859461223
2025-11-24T17:00:02.394231,-0.20116,-0.4686,-12.81345,-0.6270620681894479,-0.6052522593236016,-0.23470384929363827
2025-11-24T17:00:02.403846,-0.16934,-0.42208,-12.78376,-0.6655905604930732,-0.6009097056117144,-0.2238578497229699
2025-11-24T17:00:02.413462,-0.17066,-0.41031,-12.78067,-0.6397933724181205,-0.5735204281930927,-0.19504298737131914
2025-11-24T17:00:02.423077,-0.14493,-0.42312,-12.71424,-0.6518790793564805,-0.6209345662515462,-0.21541673932862454
2025-11-24T17:00:02.432692,-0.18094,-0.43213,-12.6451,-0.6518499323579722,-0.6212064885490068,-0.2554308558915473
2025-11-24T17:00:02.442308,-0.14252,-0.38288,-12.68166,-0.5740314605980766,-0.5745246906446901,-0.25453742184745143
2025-11-24T17:00:02.451923,-0.13754,-0.36467,-12.63158,-0.6283293517593209,-0.5920132388155238,-0.2745806084444291
2025-11-24T17:00:02.461538,-0.1638,-0.38808,-12.57754,-0.613499987236826,-0.6022309198554743,-0.27283475559365916
2025-11-24T17:00:02.471154,-0.1429,-0.37866,-12.64187,-0.5801076498559697,-0.5815053095209667,-0.25643424567851886
2025-11-24T17:00:02.480769,-0.15838,-0.4155,-12.4928,-0.5856092767241062,-0.5759041988854665,-0.2726830864816609
2025-11-24T17:00:02.490385,-0.09031,-0.40318,-12.46407,-0.5753306836932611,-0.5607140748065843,-0.26044728122762945
2025-11-24T17:00:02.500000,-0.14665,-0.38666,-12.49388,-0.5509131783920101,-0.5689508071455212,-0.27037803013855194
2025-11-24T17:00:02.509615,-0.13685,-0.37287,-12.44535,-0.48693813466015795,-0.567021869256217,-0.2820321171528937
2025-11-24T17:00:02.519231,-0.1442,-0.39063,-12.46423,-0.44978653260343104,-0.5043418598293447,-0.29306835761202943
2025-11-24T17:00:02.528846,-0.12478,-0.35346,-12.39349,-0.4894819520449397,-0.5666485433292153,-0.2397668749207486
2025-11-24T17:00:02.538462,-0.11283,-0.36812,-12.36226,-0.42624849871225995,-0.5935323733964597,-0.2458027470729206
2025-11-24T17:00:02.548077,-0.0921,-0.35224,-12.21188,-0.4567008289681318,-0.556731931585234,-0.22137878405343717
2025-11-24T17:00:02.557692,-0.1143,-0.3329,-12.24493,-0.4167183028646701,-0.5464180829034987,-0.2644461796097988
2025-11-24T17:00:02.567308,-0.10033,-0.34662,-12.21923,-0.43988911948122167,-0.5338604389353995,-0.2316147910505335
2025-11-24T17:00:02.576923,-0.11936,-0.37083,-12.13286,-0.36926611662852304,-0.5324350285352958,-0.2639820965616935
2025-11-24T17:00:02.586538,-0.10188,-0.37148,-12.12576,-0.3887199055371023,-0.5123701998555933,-0.23141634711458176
2025-11-24T17:00:02.596154,-0.02443,-0.3526,-12.14291,-0.3523528289791468,-0.5147057994606121,-0.24625321655286034
2025-11-24T17:00:02.605769,-0.05283,-0.3356,-12.00092,-0.34345252245860175,-0.5034166607928624,-0.23985396685042315
2025-11-24T17:00:02.615385,-0.0833,-0.32796,-11.82626,-0.3479079989730929,-0.5173274585300328,-0.24028000172083494
2025-11-24T17:00:02.625000,-0.08835,-0.32837,-11.75994,-0.29021456975209353,-0.4894816029790893,-0.25390596172407986
2025-11-24T17:00:02.634615,-0.07495,-0.30664,-11.79633,-0.23880310410779737,-0.48771183911756705,-0.2138185413325733
2025-11-24T17:00:02.644231,-0.04963,-0.30285,-11.68276,-0.2953831877989495,-0.4943056930316016,-0.2301574411251182
2025-11-24T17:00:02.653846,-0.04219,-0.2859,-11.66394,-0.1935687077521595,-0.483036800183175,-0.21956591055939065
2025-11-24T17:00:02.663462,-0.05137,-0.29804,-11.66411,-0.2317043264411608,-0.44044186525532825,-0.1830398345065785
2025-11-24T17:00:02.673077,-0.05575,-0.25839,-11.50605,-0.14386295238583738,-0.4535208390709981,-0.20149634228056817
2025-11-24T17:00:02.682692,0.00496,-0.31853,-11.37465,-0.2246826923274624,-0.4588069177765134,-0.20306644047566225
2025-11-24T17:00:02.692308,-0.00787,-0.2575,-11.39401,-0.20228802362927276,-0.46000630803848386,-0.19125125957136146
2025-11-24T17:00:02.701923,-0.01774,-0.25402,-11.4021,-0.13794872968252941,-0.4357383774541287,-0.1898145045311197
2025-11-24T17:00:02.711538,-0.00797,-0.23497,-11.18921,-0.13386937162184306,-0.45721360670236777,-0.15819053474838407
2025-11-24T17:00:02.721154,-0.0074,-0.2023,-11.22213,-0.16367121766549664,-0.4055635545493239,-0.1596862819173432
2025-11-24T17:00:02.730769,-0.04874,-0.21051,-11.16744,-0.10570673881166257,-0.44145520341903616,-0.15168900875177999
2025-11-24T17:00:02.740385,0.01912,-0.21539,-11.05763,-0.11027374186535613,-0.41700488592784757,-0.1289688361480934
2025-11-24T17:00:02.750000,0.00225,-0.21874,-11.00462,-0.06198693918090541,-0.42412373488088206,-0.15682638540502528
2025-11-24T17:00:02.759615,0.01049,-0.18755,-10.83828,-0.0781523532458021,-0.35748147898613214,-0.13310509194239475
2025-11-24T17:00:02.769231,0.02464,-0.19585,-10.73668,-0.06292156299534837,-0.4294454183031379,-0.13954413515177744
2025-11-24T17:00:02.778846,0.059,-0.19047,-10.79487,-0.013599081932764217,-0.4010218587697843,-0.0879989772867785
2025-11-24T17:00:02.788462,0.02787,-0.14877,-10.65326,-0.026669154569248954,-0.35265599267021824,-0.14790338960420427
2025-11-24T17:00:02.798077,0.02953,-0.15677,-10.50654,0.006900682796535181,-0.3358112964604454,-0.09283685544038159
2025-11-24T17:00:02.807692,0.07794,-0.1442,-10.48303,0.03038164442116609,-0.3390001875367642,-0.06666093091774622
2025-11-24T17:00:02.817308,0.08716,-0.14211,-10.30529,0.07315547559734231,-0.29607747977539284,-0.07418452172431819
2025-11-24T17:00:02.826923,0.0598,-0.14929,-10.28613,0.04277243491277464,-0.2906985495536715,-0.0625121087528305
2025-11-24T17:00:02.836538,0.09712,-0.16338,-10.23333,0.030734899061769745,-0.28218692785754557,-0.05688010578957
2025-11-24T17:00:02.846154,0.08691,-0.10252,-10.13287,0.08096076254518615,-0.2684557245004054,-0.02947442227597944
2025-11-24T17:00:02.855769,0.1056,-0.08884,-10.01714,0.13225040420769313,-0.2786475746674263,-0.051850241418247546
2025-11-24T17:00:02.865385,0.08116,-0.08789,-9.97318,0.12480465508576012,-0.2607345624225077,-0.03086213356424013
2025-11-24T17:00:02.875000,0.1298,-0.1038,-9.95078,0.1661466181436002,-0.21758059853524708,0.010471975511965976
2025-11-24T17:00:02.884615,0.14392,-0.08162,-9.83701,0.1667037272408368,-0.21329476802404984,-0.008255756427783577
2025-11-24T17:00:02.894231,0.13926,-0.06335,-9.7496,0.21340454923400026,-0.21423951474815434,0.02410299697004169
2025-11-24T17:00:02.903846,0.14429,-0.08093,-9.5612,0.16989506177810842,-0.2241671220664233,0.01481365655922707
2025-11-24T17:00:02.913462,0.06422,-0.045,-9.59228,0.24197314562819464,-0.17714987187987327,0.06120380994553556
2025-11-24T17:00:02.923077,0.15135,-0.02805,-9.54975,0.27969145609304413,-0.1951150694694265,0.010363939631267527
2025-11-24T17:00:02.932692,0.15202,-0.02236,-9.39443,0.24800186193043347,-0.20029101789914086,0.06379126056161714
2025-11-24T17:00:02.942308,0.1559,-0.03583,-9.32463,0.310080779962919,-0.15756151808596527,0.0471219699416697
2025-11-24T17:00:02.951923,0.15246,-0.00892,-9.25982,0.34984845603546016,-0.10630503767924623,0.06299155069835334
2025-11-24T17:00:02.961538,0.17232,-0.00651,-9.1567,0.3594947162783076,-0.08411387437183912,0.0849526796103476
2025-11-24T17:00:02.971154,0.18549,-0.00807,-9.11192,0.3658831449393825,-0.12938509717469404,0.10166857052132328
2025-11-24T17:00:02.980769,0.17791,-0.00022,-9.03129,0.36882803898627253,-0.1014795513633323,0.1085900227359572
2025-11-24T17:00:02.990385,0.17975,0.03473,-8.91041,0.4276969474584901,-0.12886237106372175,0.10047720877391196
2025-11-24T17:00:03,0.21934,0.03078,-8.80596,0.33896493188587395,-0.06424836229271447,0.11836857893610583
2025-11-24T17:00:03.009615,0.17824,0.09573,-8.79853,0.4177852226364142,-0.05685828917392007,0.12726801279202493
2025-11-24T17:00:03.019231,0.22643,0.06669,-8.74668,0.40817718510418544,-0.09416784352795245,0.11936411474144339
2025-11-24T17:00:03.028846,0.21471,0.07915,-8.6819,0.44286246239491917,-0.05065818153913541,0.15662986133125073
2025-11-24T17:00:03.038462,0.20031,0.08158,-8.64683,0.45945914731798365,-0.02773921593364668,0.1427234269172103
2025-11-24T17:00:03.048077,0.21569,0.07825,-8.56777,0.44892748154559947,-0.013119814520166575,0.17736437284494333
2025-11-24T17:00:03.057692,0.20803,0.11614,-8.56097,0.4753967959154951,-0.01684556887439887,0.1729258260241966
2025-11-24T17:00:03.067308,0.24474,0.11916,-8.42549,0.5345940008200127,2.356194490192345e-05,0.16057482903953352
2025-11-24T17:00:03.076923,0.24285,0.12923,-8.37948,0.5032894262903921,0.05324091976623662,0.21594260703225043
2025-11-24T17:00:03.086538,0.22925,0.13381,-8.25818,0.5393538627560517,0.02057621015053675,0.1866835583859671
2025-11-24T17:00:03.096154,0.22269,0.09771,-8.3656,0.5253390433954624,0.05505466592490913,0.1849808151677214
2025-11-24T17:00:03.105769,0.25495,0.15297,-8.13218,0.5093069724854181,0.0642661646510848,0.19499917960709406
2025-11-24T17:00:03.115385,0.27209,0.14486,-8.13799,0.5942849593699197,0.05420119992068391,0.22577893363064006
2025-11-24T17:00:03.125000,0.25452,0.15751,-8.0971,0.5851643922977728,0.0647297241004145,0.21169150857316782
2025-11-24T17:00:03.134615,0.26885,0.18401,-8.08373,0.5908618451079831,0.07346038461766573,0.2436497089076604
2025-11-24T17:00:03.144231,0.25648,0.16609,-8.06505,0.6202320712276185,0.10274421693932738,0.2574447913154236
2025-11-24T17:00:03.153846,0.26869,0.15366,-8.06181,0.6191115698478381,0.14482567600123747,0.22269772936916926
2025-11-24T17:00:03.163462,0.26467,0.19511,-7.92804,0.6289616845473186,0.11461315398458963,0.226849169527963
2025-11-24T17:00:03.173077,0.27936,0.23395,-7.97942,0.6260447157684604,0.12480343335528372,0.2642904962405209
2025-11-24T17:00:03.182692,0.24608,0.17361,-7.75717,0.6756609357441552,0.14926335015735825,0.25567258399294857
2025-11-24T17:00:03.192308,0.29177,0.21219,-7.80503,0.6786292172030219,0.15635776450086483,0.23178304079042575
2025-11-24T17:00:03.201923,0.27671,0.20437,-7.8594,0.7054521352793716,0.16698175819067948,0.2497402098654198
2025-11-24T17:00:03.211538,0.29072,0.24237,-7.75541,0.6444921478303397,0.2225031251575719,0.2730618229293436
2025-11-24T17:00:03.221154,0.27879,0.2235,-7.77872,0.6997321677218107,0.2286369102807808,0.29886250166280026
2025-11-24T17:00:03.230769,0.29387,0.20303,-7.76798,0.6862659053451232,0.19685184660808602,0.25794727160707276
2025-11-24T17:00:03.240385,0.26767,0.19374,-7.69322,0.7376422898714543,0.26157563658904376,0.2501699099272608
2025-11-24T17:00:03.250000,0.31438,0.26848,-7.74155,0.7444728104320593,0.27524173916508454,0.26432505375971044
2025-11-24T17:00:03.259615,0.25781,0.2441,-7.6272,0.7205480115786462,0.21913481423414805,0.25731598601662636
2025-11-24T17:00:03.269231,0.27218,0.23435,-7.56931,0.7732923851726904,0.2823481962804299,0.24252920752788001
2025-11-24T17:00:03.278846,0.29857,0.25022,-7.57941,0.7706976041737504,0.28151899035280736,0.2648617425046987
2025-11-24T17:00:03.288462,0.32382,0.25821,-7.63337,0.770201058001558,0.29496378517969524,0.2574060450060293
2025-11-24T17:00:03.298077,0.30063,0.2463,-7.60707,0.7554359215955364,0.2845839630522346,0.2789523091548245
2025-11-24T17:00:03.307692,0.29042,0.26192,-7.56473,0.782972853868877,0.27746179797362136,0.2749294997619028
2025-11-24T17:00:03.317308,0.267,0.28465,-7.53827,0.7988103205673239,0.31436137448636026,0.25121379135287863
2025-11-24T17:00:03.326923,0.2916,0.24864,-7.51327,0.8031558413389394,0.35105517668028907,0.26132937063158734
2025-11-24T17:00:03.336538,0.29476,0.29874,-7.50654,0.7982608909187962,0.31088328235298596,0.23123727633332714
2025-11-24T17:00:03.346154,0.32852,0.26765,-7.549,0.8680691740766637,0.3575980669801654,0.211267219032008
2025-11-24T17:00:03.355769,0.3065,0.28825,-7.54484,0.7998945190986627,0.36313128430776304,0.24144256553558838
2025-11-24T17:00:03.365385,0.26265,0.31574,-7.48771,0.817421289980115,0.3293280964209872,0.24030879965349286
2025-11-24T17:00:03.375000,0.33275,0.26833,-7.58131,0.8411804570875139,0.39716468112287684,0.2602956121156311
2025-11-24T17:00:03.384615,0.28312,0.29049,-7.5614,0.8587529555953684,0.36759810546239213,0.1824926737860783
2025-11-24T17:00:03.394231,0.27204,0.30223,-7.59228,0.8617817999792794,0.3515255429137015,0.210530341021816
2025-11-24T17:00:03.403846,0.31757,0.31394,-7.60744,0.8693066125163277,0.4378301545626439,0.23350986955234895
2025-11-24T17:00:03.413462,0.28534,0.28106,-7.56038,0.8555501018850336,0.420086613788094,0.17490014247405256
2025-11-24T17:00:03.423077,0.27707,0.32798,-7.57282,0.7965724594004168,0.4645925097139494,0.1952332282597865
2025-11-24T17:00:03.432692,0.28671,0.26176,-7.62905,0.8396585299797749,0.41479442643019676,0.1747661011874994
2025-11-24T17:00:03.442308,0.29698,0.30659,-7.53233,0.8669006761424535,0.42998961196390983,0.1596424741531181
2025-11-24T17:00:03.451923,0.29753,0.2816,-7.62138,0.839259722245694,0.43001404657343767,0.15880262171705847
2025-11-24T17:00:03.461538,0.24758,0.30085,-7.63832,0.8685172000956506,0.431165963879754,0.16079055173508
2025-11-24T17:00:03.471154,0.31231,0.32084,-7.64897,0.926262291062509,0.4738340281032593,0.1689756223281578
2025-11-24T17:00:03.480769,0.28838,0.30053,-7.67954,0.8624075005161193,0.47007598515786514,0.1246847509661481
2025-11-24T17:00:03.490385,0.25881,0.32669,-7.67985,0.8525935141321551,0.5055998931541822,0.14932391308240248
2025-11-24T17:00:03.500000,0.24683,0.31071,-7.63027,0.8776220592045294,0.4994193332070198,0.11621536623792042
2025-11-24T17:00:03.509615,0.24048,0.31996,-7.62666,0.8766349009796015,0.5223845500376865,0.11221873678377861
2025-11-24T17:00:03.519231,0.25884,0.31763,-7.65135,0.8680964012129948,0.5408621762956252,0.09293407027971766
2025-11-24T17:00:03.528846,0.23979,0.2648,-7.69302,0.8483916339579788,0.5291457810269873,0.08604909544645044
2025-11-24T17:00:03.538462,0.23371,0.3397,-7.73151,0.8686142404020615,0.5348327618616856,0.058296964076339
2025-11-24T17:00:03.548077,0.26135,0.2764,-7.75624,0.8660939849621818,0.5280704836748336,0.09373517640638307
2025-11-24T17:00:03.557692,0.24841,0.31099,-7.75168,0.896960656382477,0.5259275684192349,0.06087952777051501
2025-11-24T17:00:03.567308,0.2291,0.31265,-7.80164,0.8101027753606524,0.5245176914494739,0.04638875712290689
2025-11-24T17:00:03.576923,0.24744,0.27232,-7.80759,0.8116657177058134,0.5664928599599375,0.03010570786642579
2025-11-24T17:00:03.586538,0.25575,0.29986,-7.86412,0.8975997959545574,0.5775092036656004,0.013052444811039593
2025-11-24T17:00:03.596154,0.20206,0.29265,-7.89175,0.8493388241430362,0.5471373330882455,0.039399411600370395
2025-11-24T17:00:03.605769,0.20733,0.28577,-7.87611,0.8635810599051603,0.5965695953607802,0.014412405364193576
2025-11-24T17:00:03.615385,0.2336,0.30838,-7.96929,0.8046564754298041,0.5806307250327924,-0.014473491888013376
2025-11-24T17:00:03.625000,0.22438,0.3058,-7.85711,0.8479127156112316,0.546819159565607,-0.019382404942172627
2025-11-24T17:00:03.634615,0.2097,0.3017,-8.09379,0.8297628621868174,0.6002953497150125,-0.03628033369413133
2025-11-24T17:00:03.644231,0.22351,0.30304,-8.12351,0.8761051935516212,0.5723369204273153,-0.0310260199810024
2025-11-24T17:00:03.653846,0.17351,0.2704,-8.08249,0.8659194520369823,0.6247116332857872,-0.02752296963932458
2025-11-24T17:00:03.663462,0.16063,0.30448,-8.04401,0.8507370074068088,0.5959723436907478,-0.05190417209213417
2025-11-24T17:00:03.673077,0.16775,0.27107,-8.15024,0.8037544892723735,0.5985035947049151,-0.06446862284431615
2025-11-24T17:00:03.682692,0.18234,0.28483,-8.06606,0.8452823298955509,0.5607004612384188,-0.0674985144257783
2025-11-24T17:00:03.692308,0.15872,0.28068,-8.13285,0.7798953147988354,0.6232883172807858,-0.08034658118140935
2025-11-24T17:00:03.701923,0.1596,0.26233,-8.18993,0.794159018110759,0.6348369864083071,-0.1100709346062744
2025-11-24T17:00:03.711538,0.1445,0.29997,-8.27634,0.8149500782922162,0.5869233351179327,-0.11860000959492027
2025-11-24T17:00:03.721154,0.1462,0.31843,-8.14813,0.7569498201887164,0.6161933793385037,-0.13254868097685896
2025-11-24T17:00:03.730769,0.13308,0.27858,-8.2154,0.8018428301426641,0.6204385436781295,-0.1471256708895156
2025-11-24T17:00:03.740385,0.15507,0.29716,-8.2983,0.8010865789777749,0.5990278916122143,-0.14372350057860306
2025-11-24T17:00:03.750000,0.15813,0.26584,-8.25075,0.7679687818882573,0.5995356078916193,-0.17110509854851608
2025-11-24T17:00:03.759615,0.12711,0.29067,-8.3791,0.7736833389251371,0.5971567241211511,-0.163250593315766
2025-11-24T17:00:03.769231,0.12704,0.31076,-8.39564,0.7665404044284252,0.616285532723009,-0.13625349138006732
2025-11-24T17:00:03.778846,0.11402,0.29095,-8.42805,0.7776743833256726,0.6114946039262845,-0.18013944635561432
2025-11-24T17:00:03.788462,0.13071,0.25262,-8.34616,0.7300464424338498,0.6313400447190112,-0.18834511183386568
2025-11-24T17:00:03.798077,0.1163,0.274,-8.37656,0.7113770044911167,0.6329979329754807,-0.2125245542251447
2025-11-24T17:00:03.807692,0.14084,0.26274,-8.49536,0.7011827108631431,0.5684575770989075,-0.19967736013413967
2025-11-24T17:00:03.817308,0.08149,0.26248,-8.47635,0.7216976599569349,0.6036189802095853,-0.20840941691479248
2025-11-24T17:00:03.826923,0.10509,0.30403,-8.49555,0.6534483048869486,0.6061615758638906,-0.18477155019040728
2025-11-24T17:00:03.836538,0.10118,0.25279,-8.57882,0.6709619857990109,0.6269730563975963,-0.21544396646495564
2025-11-24T17:00:03.846154,0.07956,0.24643,-8.57169,0.6315735697729281,0.6039265072237867,-0.24547410157477006
2025-11-24T17:00:03.855769,0.09293,0.27347,-8.55837,0.6717390063819988,0.6267196345902066,-0.24501909423877516
2025-11-24T17:00:03.865385,0.04701,0.24071,-8.66631,0.6245501903299777,0.591455955185362,-0.2420202695179985
2025-11-24T17:00:03.875000,0.11269,0.23391,-8.63369,0.6206539173078256,0.5838180453127845,-0.24520392460656135
2025-11-24T17:00:03.884615,0.03805,0.21228,-8.73518,0.6128793481548168,0.6073134931702069,-0.2221924565507169
2025-11-24T17:00:03.894231,0.07789,0.22529,-8.72373,0.558993354697043,0.567160971997601,-0.23543933104042866
2025-11-24T17:00:03.903846,0.03171,0.23664,-8.69548,0.5477696658762431,0.5954595659565118,-0.25939083343139724
2025-11-24T17:00:03.913462,0.07183,0.23395,-8.7988,0.5868004639385923,0.5847125265544315,-0.2701806334001514
2025-11-24T17:00:03.923077,0.03584,0.25444,-8.73624,0.6106097219955233,0.5656826781211618,-0.26924286799305486
2025-11-24T17:00:03.932692,0.04147,0.24681,-8.79001,0.510255558933877,0.5734678937826077,-0.2854033951360459
2025-11-24T17:00:03.942308,0.03418,0.2709,-8.83907,0.4961583600325936,0.5996965272486533,-0.2654577724442547
2025-11-24T17:00:03.951923,0.05,0.2496,-8.86906,0.5465648650935915,0.5461618685693059,-0.25322441065117607
2025-11-24T17:00:03.961538,0.01647,0.23101,-8.83998,0.459232778114,0.6325235524847885,-0.27719301726881423
2025-11-24T17:00:03.971154,-0.04146,0.237,-8.84126,0.5120684324279235,0.5577641193048635,-0.23791734951241023
2025-11-24T17:00:03.980769,-0.00229,0.27713,-8.88889,0.4753161617040529,0.5587654146967326,-0.26886064088686806
2025-11-24T17:00:03.990385,0.01168,0.23472,-8.96571,0.4576466228897875,0.5794374434232038,-0.276648474542192
2025-11-24T17:00:04,-0.00565,0.24486,-8.95216,0.44778062569411403,0.572868722250398,-0.26361173769442037
2025-11-24T17:00:04.009615,0.01378,0.25472,-8.87215,0.37805768913666893,0.5247117720622957,-0.2641089819983135
2025-11-24T17:00:04.019231,0.01397,0.21386,-9.0482,0.47849405720608423,0.5742875003993442,-0.2750481821510384
2025-11-24T17:00:04.028846,-0.01394,0.23828,-9.02612,0.4177799866486583,0.5473911039614856,-0.25329474742003144
2025-11-24T17:00:04.038462,-0.04535,0.22934,-8.96909,0.3302799989950249,0.5299325754537862,-0.25622498070120475
2025-11-24T17:00:04.048077,0.00761,0.21128,-9.10264,0.38901346991728775,0.485705059543624,-0.22506125424222
2025-11-24T17:00:04.057692,-0.00285,0.24505,-9.2104,0.35479122847710814,0.49355240892644087,-0.2385414792529234
2025-11-24T17:00:04.067308,-0.03487,0.19605,-9.1209,0.2965033401128795,0.5023024425983893,-0.2579259785901984
2025-11-24T17:00:04.076923,0.00899,0.20555,-9.11231,0.26632659734589753,0.4801646863660932,-0.2302803123044586
2025-11-24T17:00:04.086538,-0.04438,0.20223,-9.14245,0.26357334045087644,0.4748679611521408,-0.22303492698065458
2025-11-24T17:00:04.096154,-0.0643,0.17974,-9.20569,0.2378292103851845,0.4902317454915965,-0.24013636112339584
2025-11-24T17:00:04.105769,-0.04875,0.22573,-9.20566,0.26090717548552994,0.43653442212596333,-0.1847387380004698
2025-11-24T17:00:04.115385,-0.02808,0.19715,-9.17809,0.223946337916046,0.46533287838264537,-0.1979637958745316
2025-11-24T17:00:04.125000,-0.07231,0.1743,-9.24566,0.20239571044412083,0.4599008901516634,-0.19785558546090798
2025-11-24T17:00:04.134615,-0.01839,0.1841,-9.26828,0.20032173569397596,0.43711247517422386,-0.18697049051499492
2025-11-24T17:00:04.144231,-0.07913,0.17863,-9.31004,0.18954118597025738,0.4283463844731571,-0.19849629582931508
2025-11-24T17:00:04.153846,-0.04581,0.21961,-9.29802,0.1801551543188823,0.40748690738502175,-0.1758169639301252
2025-11-24T17:00:04.163462,-0.05765,0.20166,-9.31226,0.11761564389679548,0.434359392812128,-0.16880423099561198
2025-11-24T17:00:04.173077,-0.07518,0.21058,-9.37189,0.13369815482222241,0.41211709135763747,-0.14900678675731507
2025-11-24T17:00:04.182692,-0.05397,0.1878,-9.42816,0.05828980822640582,0.38500776475103554,-0.15524494256979324
2025-11-24T17:00:04.192308,-0.10899,0.18998,-9.41721,0.0972642321539156,0.3797822489705645,-0.14525956485328329
2025-11-24T17:00:04.201923,-0.05519,0.15971,-9.48516,0.09055815356897778,0.37673123890515325,-0.14697941229819847
2025-11-24T17:00:04.211538,-0.08689,0.18887,-9.43609,0.09551925196777167,0.3833535416859953,-0.12701738351143854
2025-11-24T17:00:04.221154,-0.09967,0.165,-9.46028,0.01230230229853243,0.3349155934883219,-0.1299470931938362
2025-11-24T17:00:04.230769,-0.07698,0.17907,-9.53222,0.02105582662898479,0.3674555120625042,-0.11605008355775656
2025-11-24T17:00:04.240385,-0.07383,0.16344,-9.53297,0.013879032744784107,0.35943502601788946,-0.08557593668623477
2025-11-24T17:00:04.250000,-0.08264,0.14158,-9.59453,-0.040467902168441316,0.33488697008858914,-0.09805085204778943
2025-11-24T17:00:04.259615,-0.06098,0.19041,-9.66059,-0.038527968704849626,0.3336238753089209,-0.07703900771595491
2025-11-24T17:00:04.269231,-0.08223,0.14869,-9.61029,-0.07053050040234285,0.3071721887644704,-0.062204581738629104
2025-11-24T17:00:04.278846,-0.08099,0.19614,-9.53696,-0.09455251409509201,0.2805903006578212,-0.05837620202437954
2025-11-24T17:00:04.288462,-0.12021,0.15291,-9.73741,-0.10413629155071806,0.2648142695490444,-0.0588516297126228
2025-11-24T17:00:04.298077,-0.10998,0.14819,-9.70996,-0.12381383166940294,0.24281456886058111,-0.038931139762060314
2025-11-24T17:00:04.307692,-0.10349,0.15454,-9.69615,-0.1390325791480179,0.2760309770528364,-0.0038053413681232366
2025-11-24T17:00:04.317308,-0.11768,0.15273,-9.77265,-0.16796856734975707,0.26167075703327747,0.004587772471792294
2025-11-24T17:00:04.326923,-0.11382,0.14861,-9.68572,-0.17132937335739737,0.23658339436511094,-0.0049434705733487384
2025-11-24T17:00:04.336538,-0.11381,0.13191,-9.80753,-0.2015106539804345,0.2085012212334474,-0.0028712411524558713
2025-11-24T17:00:04.346154,-0.10787,0.13756,-9.89644,-0.2012340192939934,0.21117768364138068,-0.0013369222070276565
2025-11-24T17:00:04.355769,-0.12916,0.1081,-9.77437,-0.23393276283010717,0.18785502337990564,0.03199764477558764
2025-11-24T17:00:04.365385,-0.13645,0.09452,-9.96281,-0.2629207618435558,0.16909639911239582,0.03929015398919555
2025-11-24T17:00:04.375000,-0.1483,0.14955,-10.00408,-0.27938445267761824,0.1771400980360621,0.05222042575259554
2025-11-24T17:00:04.384615,-0.15181,0.12115,-9.95058,-0.20770919081889236,0.16812617058121218,0.059371912362642304
2025-11-24T17:00:04.394231,-0.11272,0.10664,-10.01136,-0.3043639539980116,0.12930271763399992,0.09612732467916649
2025-11-24T17:00:04.403846,-0.14001,0.07033,-10.05317,-0.278863471895898,0.16747306837511589,0.09822765390101647
2025-11-24T17:00:04.413462,-0.1247,0.12135,-10.15278,-0.35191457680397104,0.1543864151107372,0.10726112904348871
2025-11-24T17:00:04.423077,-0.16846,0.09054,-10.0918,-0.3524003019348011,0.09509112270225745,0.13046074359269813
2025-11-24T17:00:04.432692,-0.18332,0.05914,-10.19117,-0.37040895822272896,0.0709738140323494,0.11362041070605526
2025-11-24T17:00:04.442308,-0.16755,0.07339,-10.16812,-0.37395215113720265,0.05111057088125234,0.10844585853974247
2025-11-24T17:00:04.451923,-0.12561,0.09045,-10.27706,-0.41780826098254054,0.10083988819247638,0.1328795954030371
2025-11-24T17:00:04.461538,-0.12912,0.07432,-10.30814,-0.4111674577116274,0.055379122632854876,0.13190482901579825
2025-11-24T17:00:04.471154,-0.14576,0.08745,-10.28268,-0.4137119732281099,0.05686544502385325,0.1453960496007892
2025-11-24T17:00:04.480769,-0.17033,-0.00953,-10.34842,-0.412143794895193,0.05115874196860739,0.16850316169964294
2025-11-24T17:00:04.490385,-0.15876,0.07502,-10.39008,-0.48109634312080773,0.00337651397090823,0.1822465823615471
2025-11-24T17:00:04.500000,-0.16393,0.03563,-10.42679,-0.47253463047514954,0.021783628927066426,0.18124790496355594
2025-11-24T17:00:04.509615,-0.16669,0.0479,-10.49378,-0.5538235149197107,0.01578318695870992,0.17307540074109248
2025-11-24T17:00:04.519231,-0.21169,0.02786,-10.50049,-0.502984866335919,0.008072147790473775,0.20078669140670724
2025-11-24T17:00:04.528846,-0.1805,0.03934,-10.47096,-0.529957708195015,-0.018252827850281896,0.15762749153169067
2025-11-24T17:00:04.538462,-0.16888,0.03638,-10.50129,-0.5164938892792803,-0.008062024880812207,0.22414600358247416
2025-11-24T17:00:04.548077,-0.13648,0.03721,-10.58541,-0.5638123832947247,-0.039203236592446226,0.2355276447005796
2025-11-24T17:00:04.557692,-0.16529,0.01265,-10.65696,-0.5331666705577318,-0.0661118503350688,0.22416066434819093
2025-11-24T17:00:04.567308,-0.14218,0.01705,-10.6866,-0.577318788244208,-0.07370787230559854,0.22944779025125733
2025-11-24T17:00:04.576923,-0.17974,0.00522,-10.76148,-0.622048435380169,-0.08552340227574974,0.2312484464405399
2025-11-24T17:00:04.586538,-0.17857,-0.02459,-10.7293,-0.5855508081941644,-0.1027398536161974,0.22936261818376003
2025-11-24T17:00:04.596154,-0.25314,-0.01938,-10.76415,-0.6010315295935037,-0.13647008674023983,0.2513144968507187
2025-11-24T17:00:04.605769,-0.1675,-0.00219,-10.79101,-0.6140539547414089,-0.12058200549348504,0.23654796418129548
2025-11-24T17:00:04.615385,-0.16743,-0.07444,-10.8626,-0.6308447202772952,-0.1706043635861189,0.21374122324670997
2025-11-24T17:00:04.625000,-0.14468,-0.01024,-10.8964,-0.6910727166380408,-0.1425003738388054,0.25324378380587326
2025-11-24T17:00:04.634615,-0.19126,-0.05028,-10.97395,-0.6699854740825201,-0.17845363283111304,0.2794097599517722
2025-11-24T17:00:04.644231,-0.1812,-0.03507,-10.92112,-0.6370987585859665,-0.1837519288413922,0.2654111721532265
2025-11-24T17:00:04.653846,-0.19874,-0.06621,-11.06307,-0.6723104271791017,-0.2078554494102095,0.25590139665788497
2025-11-24T17:00:04.663462,-0.20967,-0.09898,-11.00461,-0.6948956858316092,-0.1907966013012169,0.27311453187275386
2025-11-24T17:00:04.673077,-0.20192,-0.10907,-11.20252,-0.676252427827656,-0.2237388182679839,0.2498609866496578
2025-11-24T17:00:04.682692,-0.19605,-0.09861,-11.20008,-0.7064747236881151,-0.22407008176001242,0.2602856637388948
2025-11-24T17:00:04.692308,-0.16351,-0.12169,-11.18176,-0.7408088407333475,-0.24384815284361216,0.26760540008883377
2025-11-24T17:00:04.701923,-0.19203,-0.08516,-11.19616,-0.7397338924470442,-0.29845357101905795,0.26951775735024397
2025-11-24T17:00:04.711538,-0.20933,-0.13947,-11.26282,-0.7758295703063146,-0.25102250326686004,0.23833256334145966
2025-11-24T17:00:04.721154,-0.1921,-0.15417,-11.33756,-0.7324893797878662,-0.2681803115444407,0.2763416456596914
2025-11-24T17:00:04.730769,-0.19198,-0.10786,-11.39689,-0.7728401703634986,-0.30293924172960857,0.24503986365687389
2025-11-24T17:00:04.740385,-0.21123,-0.13791,-11.44965,-0.7656525554379356,-0.2995215379883533,0.25357871248933095
2025-11-24T17:00:04.750000,-0.1762,-0.16158,-11.47432,-0.7419893814393966,-0.31225127142069914,0.26173411248512485
2025-11-24T17:00:04.759615,-0.23816,-0.16352,-11.49405,-0.8085129549450107,-0.3115505217260234,0.2515106718586429
2025-11-24T17:00:04.769231,-0.20597,-0.16171,-11.57529,-0.7701040176951472,-0.2876332277883939,0.22772584841123972
2025-11-24T17:00:04.778846,-0.18967,-0.16767,-11.62139,-0.7832063789227939,-0.31930170346705544,0.2396855425776057
2025-11-24T17:00:04.788462,-0.23099,-0.18218,-11.65416,-0.785632386583066,-0.37219390644874356,0.2127493526328016
2025-11-24T17:00:04.798077,-0.19822,-0.23369,-11.64168,-0.7989632114097986,-0.3713263032775772,0.22094768772819454
2025-11-24T17:00:04.807692,-0.18077,-0.20812,-11.71088,-0.7887547806148838,-0.39739942790727006,0.22685335831816777
2025-11-24T17:00:04.817308,-0.19871,-0.22625,-11.82675,-0.831342210626947,-0.42352770494132597,0.19544511123097863
2025-11-24T17:00:04.826923,-0.2427,-0.21093,-11.89214,-0.8608742287682423,-0.3760851180160649,0.21546822654155837
2025-11-24T17:00:04.836538,-0.22455,-0.2073,-11.92358,-0.8354486212910393,-0.40012650486351126,0.20355146747479147
2025-11-24T17:00:04.846154,-0.18638,-0.22365,-11.84036,-0.8038288402985083,-0.3742612489477309,0.1976644719078146
2025-11-24T17:00:04.855769,-0.20605,-0.23563,-11.97369,-0.884856448954046,-0.39417685197638774,0.19833520193935603
2025-11-24T17:00:04.865385,-0.21317,-0.24202,-11.98634,-0.832085197289521,-0.41156940703836165,0.21032596296640746
2025-11-24T17:00:04.875000,-0.20506,-0.28453,-12.02971,-0.9135222601875764,-0.41986984389499626,0.1714707450268089
2025-11-24T17:00:04.884615,-0.20032,-0.23807,-11.94982,-0.8184393405328034,-0.418226965470094,0.1784232641021283
2025-11-24T17:00:04.894231,-0.22972,-0.24671,-12.08407,-0.8451151273532098,-0.47621570440053085,0.15557341353501855
2025-11-24T17:00:04.903846,-0.22211,-0.25524,-12.19852,-0.8630379134419397,-0.44729734402423676,0.1712230828059509
2025-11-24T17:00:04.913462,-0.21415,-0.27149,-12.20661,-0.8233255643066867,-0.47660212029692234,0.15634711799242765
2025-11-24T17:00:04.923077,-0.22852,-0.30134,-12.22351,-0.8490227450155,-0.5209228367891412,0.14236703068395307
2025-11-24T17:00:04.932692,-0.22089,-0.29751,-12.26041,-0.8199425926175461,-0.4834043665236451,0.10682706565851773
2025-11-24T17:00:04.942308,-0.19278,-0.30317,-12.21823,-0.8799683053179854,-0.49142328177193295,0.09226002412259746
2025-11-24T17:00:04.951923,-0.23854,-0.32206,-12.24722,-0.8896646565103651,-0.5079581820394768,0.11237389655428091
2025-11-24T17:00:04.961538,-0.18103,-0.28116,-12.36452,-0.8586250229611972,-0.49021516486370253,0.08652783926027248
2025-11-24T17:00:04.971154,-0.18228,-0.31002,-12.3969,-0.8613288870383868,-0.500623610390896,0.08191563217895226
2025-11-24T17:00:04.980769,-0.25437,-0.29191,-12.46637,-0.8667259686843288,-0.5122466305445521,0.07407369331681654
2025-11-24T17:00:04.990385,-0.22307,-0.31128,-12.37781,-0.8884979039054068,-0.5517017181480611,0.06305316082094875
2025-11-24T17:00:05,-0.21347,-0.3318,-12.4289,-0.8549676855136431,-0.5047001759247791,0.04565536977121887
2025-11-24T17:00:05.009615,-0.23553,-0.34882,-12.50275,-0.8692415117352283,-0.542878380647529,0.05578648248027036
2025-11-24T17:00:05.019231,-0.23504,-0.3467,-12.59705,-0.9094340009477049,-0.6200290894356115,0.008970643289400455
2025-11-24T17:00:05.028846,-0.22479,-0.36455,-12.57947,-0.8567568225298624,-0.5832696628618077,0.0013390166021300495
2025-11-24T17:00:05.038462,-0.20498,-0.37885,-12.72637,-0.8606426235765027,-0.5483934465509059,0.021628992755339728
2025-11-24T17:00:05.048077,-0.22962,-0.38508,-12.6051,-0.8373723231925874,-0.5461763548020976,0.0037540286881146035
2025-11-24T17:00:05.057692,-0.1824,-0.36455,-12.60573,-0.895051964312496,-0.5627575062948192,0.005566553116310715
2025-11-24T17:00:05.067308,-0.21257,-0.40093,-12.61242,-0.811336374075962,-0.5738464556973651,-0.02550362369476714
2025-11-24T17:00:05.076923,-0.21976,-0.38392,-12.67359,-0.8349861090392608,-0.5513350244722172,-0.03949191405072609
2025-11-24T17:00:05.086538,-0.18795,-0.41337,-12.64735,-0.8229501439845827,-0.5735480043952742,-0.030405380898993216
2025-11-24T17:00:05.096154,-0.20354,-0.36473,-12.64684,-0.8235145834646777,-0.5960648461411034,-0.06545421027291734
2025-11-24T17:00:05.105769,-0.20769,-0.3957,-12.82296,-0.8445519096035913,-0.5506962339659872,-0.03554555007904171
2025-11-24T17:00:05.115385,-0.22061,-0.40143,-12.71195,-0.8350442285033522,-0.5636622849790531,-0.0867678220324217
2025-11-24T17:00:05.125000,-0.1765,-0.39554,-12.67849,-0.7930612060112545,-0.5854858819459902,-0.08701077186429931
2025-11-24T17:00:05.134615,-0.19522,-0.41212,-12.88268,-0.8177452230892852,-0.591421746732023,-0.11329595399810952
2025-11-24T17:00:05.144231,-0.21409,-0.43416,-12.71701,-0.8518484330744788,-0.5991244083198495,-0.11025524137528499
2025-11-24T17:00:05.153846,-0.24001,-0.41922,-12.87519,-0.7909668109088615,-0.5908457880788648,-0.12759526202677385
2025-11-24T17:00:05.163462,-0.19932,-0.38303,-12.84484,-0.7794507794383524,-0.6188084061567667,-0.1195786157065135
2025-11-24T17:00:05.173077,-0.22786,-0.4087,-12.86817,-0.7706084178489736,-0.6620121119277093,-0.13596010153280708
2025-11-24T17:00:05.182692,-0.23738,-0.39406,-12.91212,-0.748258429579635,-0.5975029974447468,-0.1728668338954792
2025-11-24T17:00:05.192308,-0.20659,-0.36833,-12.85689,-0.739473663855572,-0.6094391296662107,-0.17969909978533616
2025-11-24T17:00:05.201923,-0.1932,-0.41481,-12.79693,-0.7798152041861689,-0.6075438766314701,-0.1717479033120256
2025-11-24T17:00:05.211538,-0.17088,-0.42473,-12.7603,-0.7698957999153844,-0.596750586004212,-0.20113645538880692
2025-11-24T17:00:05.221154,-0.18845,-0.39644,-12.87564,-0.7357241730235125,-0.6198323908289117,-0.19661483089566523
2025-11-24T17:00:05.230769,-0.17541,-0.42127,-12.70789,-0.6874686117326724,-0.6112535739565841,-0.1947722868043348
2025-11-24T17:00:05.240385,-0.21335,-0.44378,-12.77734,-0.7707211661186524,-0.595675812250834,-0.18645108052960144
2025-11-24T17:00:05.250000,-0.18646,-0.44975,-12.77885,-0.7364147998085266,-0.6335908213223831,-0.21273399373538404
2025-11-24T17:00:05.259615,-0.18057,-0.437,-12.83275,-0.6665115707393505,-0.6558353917049012,-0.21223744756319168
2025-11-24T17:00:05.269231,-0.16271,-0.41732,-12.82327,-0.6448010711079427,-0.6199994188383277,-0.2315526573291625
2025-11-24T17:00:05.278846,-0.17441,-0.42856,-12.83036,-0.663553935788921,-0.6211668695749867,-0.22352623716509099
2025-11-24T17:00:05.288462,-0.15729,-0.42835,-12.779,-0.6005986879390091,-0.6375900687704029,-0.2325455751406221
2025-11-24T17:00:05.298077,-0.17997,-0.44276,-12.78825,-0.6568321492407152,-0.6222180813834628,-0.21125011480533848
2025-11-24T17:00:05.307692,-0.1591,-0.42735,-12.82921,-0.6140335343891606,-0.599691989392598,-0.2266322251019401
2025-11-24T17:00:05.317308,-0.15421,-0.41428,-12.66715,-0.5879453999279006,-0.6187921745947232,-0.24801215937302024
2025-11-24T17:00:05.326923,-0.18361,-0.45007,-12.67296,-0.6259317929658564,-0.6201413141065149,-0.23882439712467168
2025-11-24T17:00:05.336538,-0.15109,-0.42777,-12.65752,-0.5789449115082911,-0.5797620746640748,-0.24340745720748358
2025-11-24T17:00:05.346154,-0.15686,-0.36502,-12.61858,-0.5630240180715987,-0.5634526709358886,-0.25289087823112
2025-11-24T17:00:05.355769,-0.18425,-0.38309,-12.5832,-0.5789953515236738,-0.5698028768863448,-0.23425145995152136
2025-11-24T17:00:05.365385,-0.12259,-0.37592,-12.59811,-0.5495512979766789,-0.612526791645914,-0.25917633246632715
2025-11-24T17:00:05.375000,-0.14447,-0.43924,-12.45068,-0.5346892957971716,-0.5601810512530252,-0.21686623527240584
2025-11-24T17:00:05.384615,-0.14962,-0.39686,-12.4593,-0.5483227607162001,-0.6007372670816175,-0.24080394956228365
2025-11-24T17:00:05.394231,-0.13533,-0.38044,-12.44536,-0.508388056634243,-0.569437404940977,-0.26628453491092446
2025-11-24T17:00:05.403846,-0.12012,-0.38666,-12.41846,-0.5199522591921071,-0.5856246356215238,-0.29339979563698315
2025-11-24T17:00:05.413462,-0.0877,-0.36354,-12.42938,-0.5125920312035218,-0.5385059818054329,-0.2672631410225177
2025-11-24T17:00:05.423077,-0.11604,-0.36795,-12.31139,-0.4886511753209904,-0.5016109431487491,-0.27247591589944914
2025-11-24T17:00:05.432692,-0.09801,-0.35907,-12.22726,-0.46696423763448447,-0.5598389667196344,-0.2707518796643292
2025-11-24T17:00:05.442308,-0.07462,-0.34447,-12.15425,-0.4245239388783643,-0.5370491554787932,-0.251524809025584
2025-11-24T17:00:05.451923,-0.08594,-0.39403,-12.18566,-0.4365188886956206,-0.5608247286811607,-0.24789818937286498
2025-11-24T17:00:05.461538,-0.06965,-0.34648,-12.08541,-0.4216291357810065,-0.5486765389555793,-0.2650347046335713
2025-11-24T17:00:05.471154,-0.09487,-0.37054,-12.11753,-0.3414462664834343,-0.5636837525288526,-0.2476821176114681
2025-11-24T17:00:05.480769,-0.06412,-0.33189,-12.04439,-0.37533480097063254,-0.5191261948571382,-0.24626997171367948
2025-11-24T17:00:05.490385,-0.07482,-0.3077,-11.98938,-0.3108331914034537,-0.4958113885772972,-0.23535503163755733
2025-11-24T17:00:05.500000,-0.04619,-0.32864,-11.87225,-0.3260514152832931,-0.4992002943858945,-0.2398981236804986
2025-11-24T17:00:05.509615,-0.08167,-0.35177,-11.79914,-0.31140094700912746,-0.48001930043940205,-0.22953488218093185
2025-11-24T17:00:05.519231,-0.07103,-0.33996,-11.80648,-0.297630997342593,-0.4846898015177388,-0.2368108107666458
2025-11-24T17:00:05.528846,-0.02383,-0.30592,-11.7318,-0.23128736728285937,-0.5033924007162597,-0.2401152426394467
2025-11-24T17:00:05.538462,-0.0468,-0.30984,-11.5519,-0.2727014124388068,-0.4979801347058253,-0.23891986663475576
2025-11-24T17:00:05.548077,-0.04366,-0.25721,-11.62683,-0.30259471373526486,-0.49007187333211377,-0.2175467391477584
2025-11-24T17:00:05.557692,-0.02847,-0.28702,-11.60129,-0.24927054176370814,-0.4755179217655835,-0.19636053642364962
2025-11-24T17:00:05.567308,-0.03728,-0.23598,-11.46539,-0.18684255788082377,-0.47912097947340054,-0.18984836391860838
2025-11-24T17:00:05.576923,0.00974,-0.26463,-11.4097,-0.1751067894574887,-0.44507449268889676,-0.1932559447502021
2025-11-24T17:00:05.586538,-0.03523,-0.27794,-11.30226,-0.1537059112353846,-0.4318450714917049,-0.18460382404929063
2025-11-24T17:00:05.596154,-0.00656,-0.20238,-11.22967,-0.17912872618578443,-0.40693346347921433,-0.18013543209833474
2025-11-24T17:00:05.605769,0.01013,-0.24399,-11.18765,-0.15105074184432565,-0.46361425266820655,-0.1611898830679363
2025-11-24T17:00:05.615385,0.00789,-0.19906,-11.08414,-0.14815681141159384,-0.4434124156422226,-0.15715852156167978
2025-11-24T17:00:05.625000,0.00076,-0.19018,-10.99899,-0.09017645006156663,-0.4135522756015524,-0.14850046674131154
2025-11-24T17:00:05.634615,0.00629,-0.21345,-10.97427,-0.07090923685002562,-0.36896923612275884,-0.1334241381296593
2025-11-24T17:00:05.644231,0.03905,-0.18713,-10.93454,-0.02436828701634483,-0.39315164557376625,-0.12535338660258713
2025-11-24T17:00:05.653846,0.01683,-0.17178,-10.84857,-0.03438176453381189,-0.3981605659940648,-0.11632602011249688
2025-11-24T17:00:05.663462,0.05728,-0.15411,-10.63199,-0.013843777093893821,-0.33909792597487587,-0.11132512820675751
2025-11-24T17:00:05.673077,0.0208,-0.17743,-10.53197,-0.011764217290142579,-0.3339736392910206,-0.10485955599274452
2025-11-24T17:00:05.682692,0.04712,-0.18394,-10.53005,-0.04985812261002122,-0.309780583331576,-0.07751897326025335
2025-11-24T17:00:05.692308,0.06587,-0.1292,-10.38907,0.027648807878393373,-0.30128938198769833,-0.09358961594676674
2025-11-24T17:00:05.701923,0.04703,-0.13074,-10.42367,0.05629838754988029,-0.3130000176698047,-0.09386136371130226
2025-11-24T17:00:05.711538,0.09202,-0.16987,-10.33716,0.07421890471058247,-0.28316047251430804,-0.05923123882493156
2025-11-24T17:00:05.721154,0.0855,-0.10123,-10.1933,0.10076204650783743,-0.2749240892412216,-0.06941575860909407
2025-11-24T17:00:05.730769,0.07202,-0.14011,-10.16779,0.08740905599960441,-0.2747368154124826,-0.03446327140988003
2025-11-24T17:00:05.740385,0.0692,-0.1096,-10.09991,0.1585432657902121,-0.2715386740911282,-0.035856393218821905
2025-11-24T17:00:05.750000,0.07507,-0.10421,-10.0172,0.13725775383166486,-0.25009276637432265,-0.024709324352184522
2025-11-24T17:00:05.759615,0.11416,-0.08788,-9.91542,0.16162586631508447,-0.2225333193536314,-0.00033772121026090274
2025-11-24T17:00:05.769231,0.09672,-0.07285,-9.83274,0.20869704717552115,-0.2535554996102794,-0.008805360609236592
2025-11-24T17:00:05.778846,0.09922,-0.08078,-9.68086,0.19401184684924086,-0.2023241519447891,0.014556395027483108
2025-11-24T17:00:05.788462,0.1285,-0.03151,-9.73706,0.18810792158851963,-0.24431398122096945,0.019481888709536304
2025-11-24T17:00:05.798077,0.18521,-0.03082,-9.6262,0.215023342115225,-0.21207844806833495,0.03836617668318975
2025-11-24T17:00:05.807692,0.15168,-0.01916,-9.63389,0.22248061041022116,-0.1691822693115939,0.05212460717666105
2025-11-24T17:00:05.817308,0.16779,0.00346,-9.41963,0.28572331398793654,-0.18373936247077785,0.0390896156581414
2025-11-24T17:00:05.826923,0.1631,0.01313,-9.35211,0.25693271171288845,-0.16486973526284113,0.06617433312229021
2025-11-24T17:00:05.836538,0.18073,0.00184,-9.23219,0.27706194304198944,-0.17627441472707292,0.07158136314496863
2025-11-24T17:00:05.846154,0.14435,0.01144,-9.17851,0.2815730955596192,-0.18173485182486235,0.0551253517596149
2025-11-24T17:00:05.855769,0.16864,0.00593,-9.06245,0.3338760753858341,-0.12082251186440986,0.0919723938618688
2025-11-24T17:00:05.865385,0.18842,0.03507,-9.03369,0.3713495161566287,-0.10391498380156519,0.12387945604927791
2025-11-24T17:00:05.875000,0.18866,0.03049,-8.99588,0.38968507261345514,-0.12560035069174433,0.09065955719851866
2025-11-24T17:00:05.884615,0.1909,0.0111,-8.89706,0.3692950890941062,-0.056164520796252324,0.12449503367645633
2025-11-24T17:00:05.894231,0.18702,0.06427,-8.78282,0.43796262505287026,-0.06170105424942874,0.14919022086169967
2025-11-24T17:00:05.903846,0.20066,0.04386,-8.69579,0.3804618801812911,-0.06540150132950712,0.14785940730705402
2025-11-24T17:00:05.913462,0.19569,0.10324,-8.78984,0.4270637420058665,-0.05145457527682042,0.15904696781233765
2025-11-24T17:00:05.923077,0.16796,0.11964,-8.66118,0.45814892864851153,-0.059826047034011225,0.16160596956161175
2025-11-24T17:00:05.932692,0.1976,0.10656,-8.52425,0.46521332332888377,-0.05465254206524964,0.1893038211919862
2025-11-24T17:00:05.942308,0.23594,0.0794,-8.45693,0.461621086662429,0.007289367620954318,0.18367356355797768
2025-11-24T17:00:05.951923,0.26238,0.11059,-8.42858,0.5179388473670065,-0.02339404422788159,0.19793168181629495
2025-11-24T17:00:05.961538,0.27216,0.09688,-8.38747,0.5077159303393001,0.03894894212043066,0.19165774675415093
2025-11-24T17:00:05.971154,0.24232,0.11046,-8.2865,0.5452673873276589,0.06932500148799037,0.20657542493679687
2025-11-24T17:00:05.980769,0.2626,0.11563,-8.28253,0.5072940842590931,0.024864833188537216,0.1836569829300837
2025-11-24T17:00:05.990385,0.26708,0.13917,-8.24332,0.5704517903022363,0.07044044141293994,0.21884124985396258
2025-11-24T17:00:06,0.2391,0.15145,-8.1507,0.6097330431122466,0.05731800889889538,0.23240821772849013
2025-11-24T17:00:06.009615,0.22284,0.15555,-8.04748,0.560600104806429,0.08474568356106107,0.21666342801332408
2025-11-24T17:00:06.019231,0.2611,0.17071,-7.99178,0.6082353760811102,0.050975482397147984,0.22343914523541647
2025-11-24T17:00:06.028846,0.22875,0.15145,-7.95157,0.6137183279262504,0.09276215534839621,0.23306987204792118
2025-11-24T17:00:06.038462,0.26094,0.20144,-7.96622,0.5950057803509933,0.12381592606450532,0.24227421492416368
2025-11-24T17:00:06.048077,0.28266,0.20697,-8.04809,0.6398200759556761,0.13412104809998066,0.22702003726173323
2025-11-24T17:00:06.057692,0.24507,0.18031,-7.90135,0.6251875845728061,0.10853748832547218,0.24554129675097183
2025-11-24T17:00:06.067308,0.27692,0.20772,-7.84048,0.6163059530752573,0.1325675305327805,0.24760061073539996
2025-11-24T17:00:06.076923,0.30369,0.19261,-7.90637,0.680548381248515,0.17163759850329957,0.28206946719888637
2025-11-24T17:00:06.086538,0.28854,0.19499,-7.8566,0.6921663399473403,0.16927477176194963,0.26813004606198326
2025-11-24T17:00:06.096154,0.294,0.21656,-7.70707,0.6543249837702253,0.1686070087901366,0.23408635180428267
2025-11-24T17:00:06.105769,0.30374,0.24234,-7.76338,0.6922509884160621,0.1876853773766118,0.2638342671740496
2025-11-24T17:00:06.115385,0.32212,0.22415,-7.68337,0.66864645748039,0.19528087574836595,0.25583629587678564
2025-11-24T17:00:06.125000,0.29215,0.24002,-7.64161,0.7180349119886995,0.2332182250343407,0.2820441599247324
2025-11-24T17:00:06.134615,0.31519,0.24536,-7.68003,0.7334318575839431,0.23991243538036494,0.27841020988915505
2025-11-24T17:00:06.144231,0.2906,0.21782,-7.58092,0.7521252065374284,0.25877368500789205,0.24349332740668173
2025-11-24T17:00:06.153846,0.28205,0.1924,-7.65319,0.7989780467084405,0.26822987889519734,0.2739428651357504
2025-11-24T17:00:06.163462,0.30016,0.22529,-7.638,0.7254033430247693,0.3025505569051894,0.2700581112866614
2025-11-24T17:00:06.173077,0.28244,0.24609,-7.65601,0.7303811965843823,0.289186745355594,0.26764083027264923
2025-11-24T17:00:06.182692,0.2836,0.24628,-7.592,0.7545494688684485,0.2839376676302211,0.25611397776077793
2025-11-24T17:00:06.192308,0.28322,0.24733,-7.58411,0.7655319531866228,0.3484565559569947,0.23530179909537152
2025-11-24T17:00:06.201923,0.24959,0.23386,-7.56882,0.7790421978604605,0.31879451078642584,0.2347010567668351
2025-11-24T17:00:06.211538,0.29753,0.27817,-7.53808,0.7926925924732334,0.347075825985742,0.2263801995579521
2025-11-24T17:00:06.221154,0.26988,0.29801,-7.56845,0.7927826514626363,0.290625420258013,0.2257148800470919
2025-11-24T17:00:06.230769,0.29256,0.30759,-7.49926,0.836820624616032,0.3505994712125933,0.2184413949223307
2025-11-24T17:00:06.240385,0.32306,0.29452,-7.56493,0.7702302050000664,0.369356175617926,0.23180223941219769
2025-11-24T17:00:06.250000,0.28281,0.2708,-7.62281,0.8143009903433996,0.33048786770893746,0.2535909297940949
2025-11-24T17:00:06.259615,0.28138,0.29916,-7.48937,0.7776419202015855,0.38048369679694105,0.21572199741479833
2025-11-24T17:00:06.269231,0.31829,0.25409,-7.5033,0.8052767654459628,0.3996613746178547,0.20515909024880344
2025-11-24T17:00:06.278846,0.30056,0.311,-7.61658,0.8694966788718698,0.4050991224353683,0.19840292071433338
2025-11-24T17:00:06.288462,0.3076,0.31287,-7.61555,0.8739073004245846,0.3586864543017091,0.22087228950450838
2025-11-24T17:00:06.298077,0.27923,0.27999,-7.4848,0.8529059280682622,0.4222913136992132,0.19620206052756856
2025-11-24T17:00:06.307692,0.29938,0.30479,-7.56164,0.8576422280593992,0.44064100732298084,0.19132979938770117
2025-11-24T17:00:06.317308,0.26861,0.30676,-7.61335,0.8305487839489903,0.45927065175876824,0.1757403439759626
2025-11-24T17:00:06.326923,0.26657,0.30469,-7.655,0.8592671295930059,0.4296759762973264,0.15335684538498576
2025-11-24T17:00:06.336538,0.28959,0.33915,-7.59599,0.8713640066385786,0.4562740959660192,0.16674107728682946
2025-11-24T17:00:06.346154,0.26312,0.307,-7.62366,0.8548158418687195,0.47928678575234007,0.12873408936370015
2025-11-24T17:00:06.355769,0.28769,0.28092,-7.58721,0.8879109496779612,0.4906963521384774,0.14754769150264785
2025-11-24T17:00:06.365385,0.31728,0.28199,-7.64617,0.8990039133377867,0.5060065548698968,0.1506329100213982
2025-11-24T17:00:06.375000,0.23267,0.32879,-7.66942,0.8602127489817365,0.49234429201821045,0.13254449218665418
2025-11-24T17:00:06.384615,0.24816,0.27485,-7.74218,0.8948650395496075,0.5064500430328286,0.11550379550188235
2025-11-24T17:00:06.394231,0.28226,0.31097,-7.77863,0.8767799378404423,0.4813141602114566,0.10291299027799525
2025-11-24T17:00:06.403846,0.25347,0.27602,-7.68649,0.8381873919532687,0.514278542859724,0.11568897493551894
2025-11-24T17:00:06.413462,0.27598,0.31867,-7.74419,0.8795960265885351,0.5019114888459425,0.0904616368613425
2025-11-24T17:00:06.423077,0.2288,0.30457,-7.67194,0.8738757099651236,0.5374860113905674,0.09945811102367247
2025-11-24T17:00:06.432692,0.25175,0.32702,-7.76993,0.925533267033951,0.529462383753299,0.06511579093095564
2025-11-24T17:00:06.442308,0.23811,0.27689,-7.86928,0.858185549055545,0.5343198095945244,0.06730094315445254
2025-11-24T17:00:06.451923,0.2398,0.27619,-7.87044,0.8465194192693645,0.5462674609890517,0.04521153254243671
2025-11-24T17:00:06.461538,0.23938,0.2996,-7.80662,0.8590446001133767,0.536729585692753,0.06242588948778198
2025-11-24T17:00:06.471154,0.20401,0.29362,-7.91341,0.8423491295546492,0.5604623983284467,0.026447148688395275
2025-11-24T17:00:06.480769,0.20247,0.32816,-7.89056,0.9264881366677171,0.5875179687940872,0.03499315337078551
2025-11-24T17:00:06.490385,0.24738,0.30091,-7.92412,0.8330323874745783,0.5591808030587072,-0.014430731321339516
2025-11-24T17:00:06.500000,0.22061,0.30309,-7.88439,0.8810160264679576,0.5921291286778562,-0.018730698999477945
2025-11-24T17:00:06.509615,0.21213,0.29504,-7.9909,0.8139625710014379,0.5661104583208256,-0.0349968185622147
2025-11-24T17:00:06.519231,0.20429,0.3268,-7.99832,0.8424896285594348,0.5595181752031178,-0.017230937573239218
2025-11-24T17:00:06.528846,0.20739,0.25458,-8.08937,0.8846826141605474,0.5778217921346327,-0.050080652089650485
2025-11-24T17:00:06.538462,0.17215,0.2937,-8.042,0.8939105189816918,0.6220973045992249,-0.047619912377263686
2025-11-24T17:00:06.548077,0.17023,0.26862,-8.03558,0.7896780597891888,0.5637947554692795,-0.05618197408877226
2025-11-24T17:00:06.557692,0.21117,0.26182,-8.10205,0.8166805722455687,0.5834421013919049,-0.058006017690031546
2025-11-24T17:00:06.567308,0.18292,0.33095,-8.13305,0.8396927384331139,0.6391184535963743,-0.08096146067688696
2025-11-24T17:00:06.576923,0.19165,0.31732,-8.16632,0.8149603757348031,0.5638560165260245,-0.09366501417045288
2025-11-24T17:00:06.586538,0.15723,0.30988,-8.14681,0.7937797580643007,0.6121477061323808,-0.09849311848024479
2025-11-24T17:00:06.596154,0.19153,0.27173,-8.23452,0.7733670852646758,0.6019211239132453,-0.12286123096366444
2025-11-24T17:00:06.605769,0.16551,0.29677,-8.2957,0.7834418238388878,0.6233286343865069,-0.1538034751405711
2025-11-24T17:00:06.615385,0.16281,0.29464,-8.36647,0.7636993574720288,0.5827694514981863,-0.13356655699662207
2025-11-24T17:00:06.625000,0.15869,0.28395,-8.3343,0.8058398086626563,0.6435514153635147,-0.1490947513516156
2025-11-24T17:00:06.634615,0.12629,0.29484,-8.39384,0.7591646430094972,0.5969324493122697,-0.15424329811207368
2025-11-24T17:00:06.644231,0.0994,0.30236,-8.30872,0.7567693531440601,0.5552737089951928,-0.18500210818459575
2025-11-24T17:00:06.653846,0.10969,0.29262,-8.43584,0.7182764655571755,0.6052423109468652,-0.2054208896366026
2025-11-24T17:00:06.663462,0.15825,0.3016,-8.41811,0.761292024834753,0.6127302970366965,-0.1481089893900892
2025-11-24T17:00:06.673077,0.1461,0.29592,-8.4104,0.703928811908231,0.6073070354519745,-0.19999413739337663
2025-11-24T17:00:06.682692,0.10758,0.26676,-8.48736,0.7326623419167388,0.6420012139218934,-0.19775383276551672
2025-11-24T17:00:06.692308,0.10292,0.28196,-8.46101,0.6802787278790818,0.6094260396968209,-0.18582974331589144
2025-11-24T17:00:06.701923,0.12413,0.24474,-8.49653,0.6745111128329413,0.6103226153335704,-0.23323358393175825
2025-11-24T17:00:06.711538,0.09447,0.23382,-8.53409,0.7010718824556416,0.5655432263139273,-0.2123475778389925
2025-11-24T17:00:06.721154,0.06632,0.28554,-8.5805,0.6287763305807568,0.6016811411410959,-0.22269476230944088
2025-11-24T17:00:06.730769,0.11208,0.24403,-8.64183,0.63980611332166,0.6107940287645339,-0.2281024904638201
2025-11-24T17:00:06.740385,0.09081,0.26605,-8.73209,0.6584525129182668,0.6014207380166984,-0.24003321216460297
2025-11-24T17:00:06.750000,0.02545,0.24382,-8.68047,0.639239928512313,0.5826511181749011,-0.22765149738510476
2025-11-24T17:00:06.759615,0.06405,0.25648,-8.63731,0.5961662497706443,0.5820618950194277,-0.22946611620840326
2025-11-24T17:00:06.769231,0.06776,0.28005,-8.77688,0.5923804560901433,0.6033138966563367,-0.22674916216182373
2025-11-24T17:00:06.778846,0.06912,0.27665,-8.73284,0.5671306032686163,0.6324919620253274,-0.25158572101647864
2025-11-24T17:00:06.788462,0.05718,0.24676,-8.74387,0.6259185284635412,0.5936418055405598,-0.2860252559485315
2025-11-24T17:00:06.798077,0.0361,0.2578,-8.7543,0.5530117622846081,0.5956808737056647,-0.27188582007934986
2025-11-24T17:00:06.807692,0.04122,0.24075,-8.78094,0.5376111514979354,0.5947579435972101,-0.258732495237545
2025-11-24T17:00:06.817308,0.0442,0.25336,-8.78137,0.5244674259670165,0.5797952359198627,-0.2847944497600251
2025-11-24T17:00:06.826923,0.02776,0.22144,-8.88917,0.5173290293263596,0.579104958200699,-0.24941697488795045
2025-11-24T17:00:06.836538,0.02055,0.25752,-8.77527,0.54774069341066,0.5561034385215909,-0.2843102954255219
2025-11-24T17:00:06.846154,0.04795,0.24505,-8.81054,0.5056662156657579,0.5519149973826548,-0.260942256603495
2025-11-24T17:00:06.855769,-0.00105,0.21983,-8.84019,0.5073890301704015,0.5759048970171674,-0.2763524667010538
2025-11-24T17:00:06.865385,0.00592,0.25627,-8.90321,0.4676262410197659,0.5524742008749939,-0.26399989892006387
2025-11-24T17:00:06.875000,-0.03262,0.22293,-8.92059,0.4559051333621476,0.5551335590562576,-0.23608824445632015
2025-11-24T17:00:06.884615,0.01398,0.20239,-9.05361,0.4409830918563717,0.5106760087506824,-0.2470052789275447
2025-11-24T17:00:06.894231,0.01495,0.22585,-9.02449,0.39435906435029594,0.5426382233424546,-0.24622005529707244
2025-11-24T17:00:06.903846,0.00464,0.22931,-9.09348,0.42581565705776536,0.5656812818577601,-0.2552545776370959
2025-11-24T17:00:06.913462,0.00737,0.23756,-9.02429,0.3687044696752313,0.5494814848065992,-0.24266080535348042
2025-11-24T17:00:06.923077,-0.00675,0.21695,-9.08922,0.38245836231264746,0.5044549571648739,-0.25094797770779986
2025-11-24T17:00:06.932692,-0.01322,0.23979,-9.09248,0.3210657077420461,0.5306502548422063,-0.24325072664065447
2025-11-24T17:00:06.942308,-0.01503,0.22366,-9.04066,0.2928823055137668,0.5174595799544088,-0.24878917995600808
2025-11-24T17:00:06.951923,-0.03423,0.19866,-9.12168,0.31119953601344735,0.5193064873688692,-0.25385395091237045
2025-11-24T17:00:06.961538,-0.00941,0.20724,-9.10204,0.27163553986461386,0.47686583954689865,-0.25061863407794854
2025-11-24T17:00:06.971154,-0.04437,0.23769,-9.17441,0.34215312483049193,0.4651623597147255,-0.22750576239256323
2025-11-24T17:00:06.980769,-0.0708,0.17013,-9.10313,0.22141613409942984,0.48924441273374325,-0.22519669179217475
2025-11-24T17:00:06.990385,-0.02863,0.22913,-9.22184,0.24416266117482152,0.4931127604878635,-0.21398330041396157
2025-11-24T17:00:07,-0.01262,0.18798,-9.25165,0.21911579014530133,0.47096488134590586,-0.20737129507570629
2025-11-24T17:00:07.009615,-0.07276,0.21625,-9.28713,0.15055943165988925,0.4185728897278393,-0.19308891674078626
2025-11-24T17:00:07.019231,-0.05945,0.18741,-9.23892,0.1870853331797762,0.4696630402568433,-0.21584783565386712
2025-11-24T17:00:07.028846,-0.0749,0.21162,-9.25991,0.15249168567477217,0.4693874527679534,-0.19157658894393317
2025-11-24T17:00:07.038462,-0.07251,0.20551,-9.24227,0.1660879750807332,0.45349657899439544,-0.18346377498188793
2025-11-24T17:00:07.048077,-0.06761,0.15216,-9.40308,0.10948206051665149,0.39344102116374696,-0.17296160527386245
2025-11-24T17:00:07.057692,-0.09693,0.15109,-9.36328,0.1653470828132616,0.3943780884391427,-0.17338170602481748
2025-11-24T17:00:07.067308,-0.08114,0.17501,-9.4151,0.10554704118510508,0.3724611163572239,-0.16293172166142664
2025-11-24T17:00:07.076923,-0.10832,0.15798,-9.36547,0.05316464887792447,0.4015255607919099,-0.12687793170420417
2025-11-24T17:00:07.086538,-0.09371,0.15698,-9.40382,0.03346197601801088,0.38122546172903865,-0.1481688541834326
2025-11-24T17:00:07.096154,-0.10934,0.19106,-9.50031,0.05650712892841882,0.37332697419913824,-0.1275774596684035
2025-11-24T17:00:07.105769,-0.11,0.16115,-9.47403,-0.014221989942800994,0.3721675519770385,-0.1107168809624375
2025-11-24T17:00:07.115385,-0.12636,0.15537,-9.5322,0.02836613820096304,0.35776142979815206,-0.11528528027953265
2025-11-24T17:00:07.125000,-0.07064,0.1554,-9.61685,-0.0180978426127048,0.34598324987399354,-0.12002297653407125
2025-11-24T17:00:07.134615,-0.08785,0.14065,-9.55426,-0.0225924145024406,0.3589821130769969,-0.07835044811590346
2025-11-24T17:00:07.144231,-0.13932,0.14852,-9.65329,-0.08462909556702784,0.32691116447282553,-0.06006899686588884
2025-11-24T17:00:07.153846,-0.11578,0.13851,-9.56262,-0.06589228791516792,0.33234332723673266,-0.05519027800778909
2025-11-24T17:00:07.163462,-0.12007,0.18653,-9.60595,-0.026142414200997062,0.29198485721239137,-0.04928024409468589
2025-11-24T17:00:07.173077,-0.12323,0.17646,-9.67939,-0.054957800151423444,0.2937963344430363,-0.044828956370399554
2025-11-24T17:00:07.182692,-0.14105,0.14741,-9.71586,-0.08780332587762993,0.2678385760769002,-0.03745249681977072
2025-11-24T17:00:07.192308,-0.09966,0.16621,-9.69412,-0.14429038351965082,0.27675162350098487,-0.02921279742110549
2025-11-24T17:00:07.201923,-0.12525,0.15201,-9.75355,-0.13196643913839365,0.27109832752085,-0.01613783786271517
2025-11-24T17:00:07.211538,-0.11049,0.13107,-9.85927,-0.16452189114291868,0.25077815717158086,0.008314050424800188
2025-11-24T17:00:07.221154,-0.1118,0.13005,-9.86177,-0.22425107240344422,0.23872822948288677,0.0009719738604356422
2025-11-24T17:00:07.230769,-0.09725,0.12357,-9.86829,-0.21209834482180773,0.20229291055117835,0.03628452248433611
2025-11-24T17:00:07.240385,-0.16343,0.15631,-9.93376,-0.30168085933892064,0.2108429294908482,0.038257617203715705
2025-11-24T17:00:07.250000,-0.09468,0.13823,-9.93326,-0.23166610373054214,0.2221938528141185,0.07590838342651299
2025-11-24T17:00:07.259615,-0.10636,0.10593,-9.99055,-0.23890398413856262,0.1513806090729526,0.02676200608545505
2025-11-24T17:00:07.269231,-0.12251,0.08921,-9.98136,-0.2395647657933677,0.1792676543942432,0.08410776571945715
2025-11-24T17:00:07.278846,-0.0885,0.08628,-9.99263,-0.27811908896992243,0.15508123068595617,0.0905576299702022
2025-11-24T17:00:07.288462,-0.13422,0.10247,-10.11218,-0.2927084707202682,0.16542527356375095,0.08446712901244278
2025-11-24T17:00:07.298077,-0.12401,0.10574,-10.08236,-0.35955405747287544,0.13944255698931135,0.0819681665894373
2025-11-24T17:00:07.307692,-0.15728,0.09677,-10.19371,-0.3199851744021364,0.12372132921904723,0.12957132380588182
2025-11-24T17:00:07.317308,-0.12187,0.06759,-10.1471,-0.34689378814475896,0.11760447378958272,0.12279857364351784
2025-11-24T17:00:07.326923,-0.14321,0.08434,-10.26054,-0.35829497695048673,0.0907977872752766,0.1189024751542909
2025-11-24T17:00:07.336538,-0.15756,0.09069,-10.23487,-0.3741610670486664,0.07574100635124673,0.11973901146477178
2025-11-24T17:00:07.346154,-0.10814,0.02822,-10.32364,-0.42891012582155125,0.0848233507127748,0.15900246191641182
2025-11-24T17:00:07.355769,-0.15849,0.04223,-10.3735,-0.4292705363120881,0.07056523245445755,0.14330060730084485
2025-11-24T17:00:07.365385,-0.15411,0.03623,-10.33858,-0.4405745102784798,0.028438394831995607,0.1426876476675444
2025-11-24T17:00:07.375000,-0.16009,0.04173,-10.40548,-0.4658393729315741,0.07451194549199232,0.17335308262508478
2025-11-24T17:00:07.384615,-0.17309,0.04187,-10.37762,-0.4555164485377285,0.02687545248683468,0.1743327359342292
2025-11-24T17:00:07.394231,-0.14916,0.02486,-10.54801,-0.4734175925437335,-0.03174753909377685,0.18570355601097224
2025-11-24T17:00:07.403846,-0.14681,0.03423,-10.53386,-0.5235019098248131,-0.034162551179761406,0.1688862614704557
2025-11-24T17:00:07.413462,-0.15625,-0.02808,-10.57345,-0.4939555799836516,-0.02971772117370745,0.21115988128301036
2025-11-24T17:00:07.423077,-0.21229,0.02381,-10.56164,-0.539263105634948,-0.0368728729751834,0.21167091368799432
2025-11-24T17:00:07.432692,-0.14664,-0.00216,-10.72225,-0.5464020258743804,-0.017379639625509136,0.20526660253072632
2025-11-24T17:00:07.442308,-0.17551,0.04181,-10.67001,-0.5678858072359543,-0.0663284456952413,0.1919661464329783
2025-11-24T17:00:07.451923,-0.19452,-0.03048,-10.62244,-0.5840341170741814,-0.03216711624595629,0.22151003281318712
2025-11-24T17:00:07.461538,-0.1598,-0.03164,-10.73487,-0.624204789671008,-0.08500451588913183,0.21940673653160878
2025-11-24T17:00:07.471154,-0.16226,-0.03039,-10.77448,-0.6163616290783959,-0.0568492134618097,0.22549235056746258
2025-11-24T17:00:07.480769,-0.19601,0.00508,-10.80155,-0.6210583100955127,-0.11996363533950344,0.22875890879549518
2025-11-24T17:00:07.490385,-0.12732,-0.0547,-10.85483,-0.5787822468220052,-0.11146178748718867,0.2549411165034377
2025-11-24T17:00:07.500000,-0.20256,-0.03077,-10.86176,-0.6146896036549853,-0.19258765817961349,0.23654883684592148
2025-11-24T17:00:07.509615,-0.21462,-0.01895,-10.99194,-0.6640014382091323,-0.17387319074217908,0.26195821276108094
2025-11-24T17:00:07.519231,-0.20461,-0.0432,-10.9962,-0.6622828124946936,-0.17761098786825016,0.2604924852552561
2025-11-24T17:00:07.528846,-0.15467,-0.08327,-10.99597,-0.6522295414702809,-0.16777099607843132,0.28873697400735515
2025-11-24T17:00:07.538462,-0.18814,-0.06423,-11.06113,-0.6441498887640236,-0.17536352739045705,0.2653033108054533
2025-11-24T17:00:07.548077,-0.19359,-0.07292,-11.16,-0.6526197970910268,-0.1958207060860078,0.255653734437027
2025-11-24T17:00:07.557692,-0.1889,-0.08536,-11.03577,-0.6943347370100181,-0.1886083074850664,0.2593147370760103
2025-11-24T17:00:07.567308,-0.20108,-0.10172,-11.12701,-0.7483668145261838,-0.226103564871511,0.27360549299133985
2025-11-24T17:00:07.576923,-0.20443,-0.08039,-11.22483,-0.7073447703202342,-0.23948797130627994,0.26500049618023225
2025-11-24T17:00:07.586538,-0.2049,-0.09718,-11.21844,-0.7643168549613844,-0.2086815137451784,0.24468538728579384
2025-11-24T17:00:07.596154,-0.17936,-0.08981,-11.3231,-0.7092703920839596,-0.26438212602625066,0.25945104729059104
2025-11-24T17:00:07.605769,-0.17453,-0.0998,-11.27041,-0.7575023914298977,-0.2653172734394692,0.2710037306753919
2025-11-24T17:00:07.615385,-0.21743,-0.14119,-11.41644,-0.7855761869811517,-0.3010525408082027,0.26435036103386433
2025-11-24T17:00:07.625000,-0.19292,-0.14523,-11.46081,-0.7975227911781277,-0.30140038492812515,0.2583790660640161
2025-11-24T17:00:07.634615,-0.1833,-0.10576,-11.5519,-0.7734693615588426,-0.32935235649759,0.2622959339713418
2025-11-24T17:00:07.644231,-0.22203,-0.19322,-11.46822,-0.7879130083166469,-0.3031040008109968,0.2505702884576683
2025-11-24T17:00:07.653846,-0.21175,-0.13152,-11.52654,-0.7713458194579411,-0.363385055181003,0.23449772590897772
2025-11-24T17:00:07.663462,-0.22373,-0.13347,-11.55709,-0.8455488416723305,-0.36833044561652895,0.25271791610224736
2025-11-24T17:00:07.673077,-0.23004,-0.1731,-11.65836,-0.8052846194275969,-0.3499800538610605,0.24132074155379918
2025-11-24T17:00:07.682692,-0.2034,-0.16978,-11.74098,-0.7911132440331037,-0.3294605669112136,0.2219769083880956
2025-11-24T17:00:07.692308,-0.22135,-0.12826,-11.62041,-0.8581221936036977,-0.3769099606205574,0.22846639161286092
2025-11-24T17:00:07.701923,-0.19516,-0.21436,-11.75914,-0.8417524014833924,-0.38487634145836036,0.2118880326469424
2025-11-24T17:00:07.711538,-0.20949,-0.1828,-11.82604,-0.8411947687873803,-0.3722309074288858,0.2143747777651839
2025-11-24T17:00:07.721154,-0.20173,-0.20133,-11.80989,-0.8255920488733265,-0.4237724001024556,0.21671107550190352
2025-11-24T17:00:07.730769,-0.21687,-0.23155,-11.88823,-0.8533155568437052,-0.3821028387440162,0.23288085288993018
2025-11-24T17:00:07.740385,-0.22472,-0.20849,-11.94322,-0.8679929031883515,-0.40704376828794037,0.21430723352313175
2025-11-24T17:00:07.750000,-0.21479,-0.22188,-12.02545,-0.8219441362037332,-0.45555624204467393,0.1738225761938713
2025-11-24T17:00:07.759615,-0.21398,-0.25541,-11.92444,-0.8631159296595038,-0.4491350011936616,0.17184965600741686
2025-11-24T17:00:07.769231,-0.22886,-0.22718,-11.99471,-0.8114307963884949,-0.44214425940772345,0.16356911590425496
2025-11-24T17:00:07.778846,-0.20702,-0.26943,-12.02898,-0.8468533007552711,-0.4026429205790366,0.14953474885604337
2025-11-24T17:00:07.788462,-0.20137,-0.26818,-12.16473,-0.8496007980637604,-0.4772786099149954,0.16213166273231244
2025-11-24T17:00:07.798077,-0.21384,-0.26904,-12.15725,-0.8650110081613193,-0.463184901672216,0.15566015639884268
2025-11-24T17:00:07.807692,-0.18337,-0.24648,-12.1867,-0.8457434458839278,-0.49646990130407465,0.1294851045408333
2025-11-24T17:00:07.817308,-0.23087,-0.26221,-12.29793,-0.8344145137092327,-0.5081444086706647,0.13420761643087958
2025-11-24T17:00:07.826923,-0.20832,-0.27754,-12.20807,-0.8543192956965272,-0.5061463557429816,0.13506439856068359
2025-11-24T17:00:07.836538,-0.22736,-0.30892,-12.24464,-0.8563803550102073,-0.5067910803686683,0.12962630167731964
2025-11-24T17:00:07.846154,-0.21487,-0.28832,-12.337,-0.8804280250429607,-0.5346556109426082,0.11039748570932252
2025-11-24T17:00:07.855769,-0.23647,-0.35223,-12.35746,-0.8614868393356924,-0.513021905798288,0.0850432621985261
2025-11-24T17:00:07.865385,-0.1978,-0.3408,-12.46663,-0.8081192086657608,-0.5025375384486329,0.06431101961286106
2025-11-24T17:00:07.875000,-0.21673,-0.30924,-12.52769,-0.8359811212458228,-0.5119286315548388,0.06606612270866656
2025-11-24T17:00:07.884615,-0.19648,-0.32058,-12.42023,-0.8607098187527045,-0.5241551865638346,0.06363767158744164
2025-11-24T17:00:07.894231,-0.24564,-0.312,-12.45503,-0.8578340397441934,-0.4792049298104215,0.04022425420486291
2025-11-24T17:00:07.903846,-0.23009,-0.31744,-12.54742,-0.8666374804912528,-0.5214010570041876,0.02127486545011008
2025-11-24T17:00:07.913462,-0.23789,-0.35759,-12.58849,-0.8714734387826787,-0.5281504197545749,0.03319284624735336
2025-11-24T17:00:07.923077,-0.2304,-0.3822,-12.55189,-0.8574807851035897,-0.5494870698602056,0.030410616886749196
2025-11-24T17:00:07.932692,-0.23325,-0.39498,-12.63474,-0.8547901855287152,-0.5866234875524401,-0.0013643238762839674
2025-11-24T17:00:07.942308,-0.22134,-0.36028,-12.68012,-0.846140857354607,-0.5635488385776735,-0.011735244824559473
2025-11-24T17:00:07.951923,-0.21871,-0.36522,-12.72631,-0.8351873455020158,-0.6302537517925699,-0.031048709261278326
2025-11-24T17:00:07.961538,-0.21852,-0.33394,-12.6389,-0.8169175879579894,-0.5422416845364014,-0.032006196888922415
2025-11-24T17:00:07.971154,-0.22805,-0.38885,-12.72613,-0.8458816759606858,-0.5578292200859628,-0.04212474322735954
2025-11-24T17:00:07.980769,-0.21231,-0.36991,-12.74537,-0.8243923095455056,-0.599447817830244,-0.062462541402073864
2025-11-24T17:00:07.990385,-0.19757,-0.34686,-12.75306,-0.8365033237580194,-0.5531508650259921,-0.07974269726021933
2025-11-24T17:00:08,-0.23203,-0.37929,-12.86698,-0.8441173226198447,-0.5895703014615074,-0.08419223965525366
2025-11-24T17:00:08.009615,-0.21276,-0.35328,-12.90103,-0.8207199622663843,-0.6115319539722772,-0.09878092327389866
2025-11-24T17:00:08.019231,-0.21294,-0.37824,-12.75793,-0.8072790071638508,-0.5933726757699023,-0.0950806507267455
2025-11-24T17:00:08.028846,-0.20065,-0.4204,-12.78265,-0.7846366762448032,-0.6041705042532155,-0.11032069122223477
2025-11-24T17:00:08.038462,-0.20974,-0.43424,-12.74145,-0.8171579197959891,-0.6234403354586345,-0.11054077724091126
2025-11-24T17:00:08.048077,-0.2071,-0.40859,-12.71617,-0.7510647444839167,-0.576469860096038,-0.12668105856457923
2025-11-24T17:00:08.057692,-0.22481,-0.39513,-12.77552,-0.7774535991752953,-0.5562058893486829,-0.14108386461788683
2025-11-24T17:00:08.067308,-0.20262,-0.42293,-12.85592,-0.7561448743376965,-0.6446699968811179,-0.17450779245820422
2025-11-24T17:00:08.076923,-0.21945,-0.39297,-12.81582,-0.7691215718591996,-0.6039357574688222,-0.14319588754572518
2025-11-24T17:00:08.086538,-0.18852,-0.4119,-12.79573,-0.7483195161034547,-0.5803317501319257,-0.16281862432589742
2025-11-24T17:00:08.096154,-0.19859,-0.42336,-12.75236,-0.7731171541157902,-0.6163677377307778,-0.17318622914859413
2025-11-24T17:00:08.105769,-0.1933,-0.42394,-12.78726,-0.7294327846688485,-0.619018718331632,-0.16789020206634256
2025-11-24T17:00:08.115385,-0.20935,-0.42744,-12.80512,-0.7308805352833778,-0.6138378829800121,-0.20672587231831874
2025-11-24T17:00:08.125000,-0.17276,-0.42496,-12.81973,-0.7039286373753059,-0.6485123392293834,-0.2099435613272955
2025-11-24T17:00:08.134615,-0.17216,-0.42587,-12.80003,-0.6924565882019471,-0.6450646158249939,-0.1871619531339387
2025-11-24T17:00:08.144231,-0.16582,-0.41249,-12.76072,-0.6389004619728003,-0.5749728911966023,-0.21617333955936407
2025-11-24T17:00:08.153846,-0.13541,-0.44849,-12.78334,-0.6593979577740721,-0.6252338357979839,-0.20622635908639797
2025-11-24T17:00:08.163462,-0.17778,-0.43228,-12.74448,-0.6879279823917974,-0.5780874312467862,-0.2210237840835815
2025-11-24T17:00:08.173077,-0.14931,-0.4418,-12.73993,-0.6635315955744955,-0.6469218206820411,-0.22629921628065958
2025-11-24T17:00:08.182692,-0.17236,-0.4552,-12.70104,-0.653879226679266,-0.5924300234409,-0.21452993753568622
2025-11-24T17:00:08.192308,-0.15838,-0.41949,-12.6846,-0.575748864582039,-0.6096079030048787,-0.23976146440006743
2025-11-24T17:00:08.201923,-0.1552,-0.46987,-12.70773,-0.6508144285127639,-0.6000002145385002,-0.22846621707993572
2025-11-24T17:00:08.211538,-0.15333,-0.44239,-12.70155,-0.5964891356822632,-0.5945340178541791,-0.23540983497606996
2025-11-24T17:00:08.221154,-0.14143,-0.42409,-12.63148,-0.6333635794537734,-0.5902881553828525,-0.26104767449031546
2025-11-24T17:00:08.230769,-0.15653,-0.4418,-12.56753,-0.6408625611178922,-0.583595515833155,-0.2650949184927651
2025-11-24T17:00:08.240385,-0.14535,-0.40624,-12.58711,-0.5507613347470867,-0.5913927742664398,-0.260589525561667
2025-11-24T17:00:08.250000,-0.13106,-0.38259,-12.48046,-0.5753565145661906,-0.5948722626632157,-0.2663026863351452
2025-11-24T17:00:08.259615,-0.10227,-0.40217,-12.4835,-0.5626009502609153,-0.5806462584631351,-0.26382239893513604
2025-11-24T17:00:08.269231,-0.14942,-0.41852,-12.40662,-0.5249178954469561,-0.5701931325070907,-0.24025661430885822
2025-11-24T17:00:08.278846,-0.16391,-0.37141,-12.40005,-0.5108322157187359,-0.5970380417320155,-0.2635979495933296
2025-11-24T17:00:08.288462,-0.13256,-0.37409,-12.43404,-0.49823826890219525,-0.5894231702055641,-0.2554203839160354
2025-11-24T17:00:08.298077,-0.11606,-0.40637,-12.44357,-0.47840434728253173,-0.5681202049544971,-0.25240061524423474
2025-11-24T17:00:08.307692,-0.10922,-0.36062,-12.2916,-0.49826706683485317,-0.5463198208666115,-0.2733861051043642
2025-11-24T17:00:08.317308,-0.10562,-0.37081,-12.20761,-0.4554270876800263,-0.5212347271264726,-0.2661812114192064
2025-11-24T17:00:08.326923,-0.07843,-0.36421,-12.28631,-0.4241099467797913,-0.49675770609772846,-0.2748577667296458
2025-11-24T17:00:08.336538,-0.07709,-0.36664,-12.27863,-0.40168298949043973,-0.537449010410425,-0.23862734945212152
2025-11-24T17:00:08.346154,-0.09201,-0.36504,-12.08669,-0.4350983652174224,-0.5547261992088421,-0.2628889968511695
2025-11-24T17:00:08.355769,-0.09473,-0.3642,-12.16154,-0.3615882387160748,-0.5673405663776311,-0.2602121853773858
2025-11-24T17:00:08.365385,-0.08646,-0.34089,-11.96812,-0.370465855956344,-0.5210012020725557,-0.2473779067228455
2025-11-24T17:00:08.375000,-0.08078,-0.34699,-11.95585,-0.3932935408419534,-0.5062337967385064,-0.24588128688926036
2025-11-24T17:00:08.384615,-0.07219,-0.33643,-11.92903,-0.34877403134793244,-0.5415634495890765,-0.24410140011807652
2025-11-24T17:00:08.394231,-0.09305,-0.31018,-11.90005,-0.30784309332893706,-0.5131444279117781,-0.24292539726808274
2025-11-24T17:00:08.403846,-0.06466,-0.31864,-11.7652,-0.3088710922583617,-0.5129049687384044,-0.24001034835140184
2025-11-24T17:00:08.413462,-0.0577,-0.33244,-11.74847,-0.30059509001125495,-0.4845534913031581,-0.22178422403867543
2025-11-24T17:00:08.423077,-0.04666,-0.31657,-11.53902,-0.2804834865075991,-0.49982302786300614,-0.21995093019238057
2025-11-24T17:00:08.432692,-0.04157,-0.2714,-11.53075,-0.22561714160898017,-0.44844402534279704,-0.2177313949826194
2025-11-24T17:00:08.442308,-0.01658,-0.24894,-11.57087,-0.23180887166335526,-0.4828296296009633,-0.1914832138289515
2025-11-24T17:00:08.451923,-0.03413,-0.27429,-11.52908,-0.2324740166412903,-0.45589221792568285,-0.20562701302126316
2025-11-24T17:00:08.461538,-0.02567,-0.27227,-11.4334,-0.16866355745790124,-0.454803656071214,-0.20116106453126004
2025-11-24T17:00:08.471154,0.00059,-0.26383,-11.27303,-0.1937830341843044,-0.4139987308242125,-0.18541418042099161
2025-11-24T17:00:08.480769,-0.00826,-0.24116,-11.21045,-0.13716071352525397,-0.44264499437012067,-0.17528236958023932
2025-11-24T17:00:08.490385,0.00752,-0.23768,-11.16639,-0.1389428692244654,-0.3981696417061752,-0.14704224415127026
2025-11-24T17:00:08.500000,0.02337,-0.18012,-11.06796,-0.09742026458904389,-0.39562844231527144,-0.16686569379542188
2025-11-24T17:00:08.509615,0.02524,-0.2227,-11.04501,-0.09516390293206561,-0.4052774950849221,-0.1709733261899905
2025-11-24T17:00:08.519231,0.02866,-0.21295,-10.95093,-0.06929498182485606,-0.38180124584927155,-0.15876457353936496
2025-11-24T17:00:08.528846,0.02661,-0.18989,-10.81029,-0.037123153189919385,-0.372983667935271,-0.12221912433185572
2025-11-24T17:00:08.538462,0.05108,-0.16925,-10.72197,0.008344593686710089,-0.34428190291914945,-0.14504628561868954
2025-11-24T17:00:08.548077,0.04787,-0.19009,-10.80234,-0.025504670892318337,-0.37059937364412154,-0.1054784497455017
2025-11-24T17:00:08.557692,0.04119,-0.18702,-10.70803,-0.007649952644416346,-0.35632292942865834,-0.11085388930871905
2025-11-24T17:00:08.567308,0.0552,-0.16152,-10.61598,0.0004710643651132695,-0.3352133466587121,-0.10637136019082201
2025-11-24T17:00:08.576923,0.04078,-0.14857,-10.48794,0.07080957854973674,-0.3425395407268835,-0.0885250195233296
2025-11-24T17:00:08.586538,0.05284,-0.1437,-10.39068,0.05758172814887172,-0.31531816398230356,-0.06257267167787471
2025-11-24T17:00:08.596154,0.04132,-0.09553,-10.23709,0.06841969920498091,-0.32870047602197006,-0.058580405546862876
2025-11-24T17:00:08.605769,0.07227,-0.11008,-10.14687,0.034027811761507445,-0.2809810798773427,-0.06123190974649266
2025-11-24T17:00:08.615385,0.11945,-0.08615,-10.1121,0.14753477606618307,-0.29537795181119353,-0.03343282901950258
2025-11-24T17:00:08.625000,0.08845,-0.07917,-10.01891,0.14287788855601177,-0.23877901856411982,-0.04674881854759332
2025-11-24T17:00:08.634615,0.12213,-0.12287,-9.92805,0.12484776471828438,-0.2615649900806066,-0.008979020869810029
2025-11-24T17:00:08.644231,0.11307,-0.09565,-9.9565,0.1816336227282467,-0.2461029437042636,-0.002860420111093507
2025-11-24T17:00:08.653846,0.10585,-0.07588,-9.78764,0.16944598856157028,-0.23323166406958104,0.02162497849806014
2025-11-24T17:00:08.663462,0.15328,-0.06057,-9.72199,0.16852550191406845,-0.2506144452877438,0.017069669150354943
2025-11-24T17:00:08.673077,0.14477,-0.04726,-9.56746,0.2029528195413574,-0.23008972235014086,0.018228916839529576
2025-11-24T17:00:08.682692,0.10463,-0.05966,-9.48602,0.2589820773205802,-0.21297450010630886,0.032455968237161355
2025-11-24T17:00:08.692308,0.16696,-0.02219,-9.54238,0.2333990411448473,-0.18385664859651185,0.04003540957979713
2025-11-24T17:00:08.701923,0.13103,-0.04164,-9.39375,0.29130121174438517,-0.173719950833854,0.06465467494257875
2025-11-24T17:00:08.711538,0.15529,0.00029,-9.35423,0.30829932239540836,-0.15704682048955218,0.07792615857474362
2025-11-24T17:00:08.721154,0.17843,0.02497,-9.24607,0.30305966944799617,-0.16967096150215236,0.07681822356557763
2025-11-24T17:00:08.730769,0.16521,0.0129,-9.16891,0.29771267875158636,-0.15981404001858918,0.08373985031313673
2025-11-24T17:00:08.740385,0.19963,0.0233,-9.08758,0.34821465332266827,-0.13326444050310182,0.10269011173251556
2025-11-24T17:00:08.750000,0.19841,0.0722,-9.07222,0.3586663830153111,-0.0949860538812874,0.11547813916187802
2025-11-24T17:00:08.759615,0.15748,0.03906,-8.91167,0.39409656683079597,-0.0995069802427283,0.10857169677881126
2025-11-24T17:00:08.769231,0.18529,0.03251,-8.83056,0.38651782361986103,-0.08227080668173312,0.1329631966742076
2025-11-24T17:00:08.778846,0.20598,0.0371,-8.71632,0.3954275549183669,-0.0802121908290058,0.14067877369849893
2025-11-24T17:00:08.788462,0.19432,0.05425,-8.74338,0.4249766772863317,-0.06410664155745252,0.16144539927042828
2025-11-24T17:00:08.798077,0.20685,0.0815,-8.65285,0.4352711528133698,-0.08580893814137601,0.1504198053197297
2025-11-24T17:00:08.807692,0.23239,0.06939,-8.69871,0.42407120047039704,-0.02710374155299554,0.18183154306542285
2025-11-24T17:00:08.817308,0.22782,0.11018,-8.50938,0.4687041563657976,-0.03816703461553719,0.15255992804852514
2025-11-24T17:00:08.826923,0.20802,0.08824,-8.45029,0.47574306923909077,-0.007166321908688718,0.1888318841622469
2025-11-24T17:00:08.836538,0.23473,0.08595,-8.52209,0.4692319439316007,0.017364978859792383,0.21745737829005632
2025-11-24T17:00:08.846154,0.22364,0.10566,-8.35007,0.5127084446646298,0.019677191052834473,0.18635491288781655
2025-11-24T17:00:08.855769,0.21609,0.13344,-8.26387,0.5469840931799205,0.020414941727652472,0.20109299669043226
2025-11-24T17:00:08.865385,0.22213,0.12873,-8.28031,0.530817980983323,0.046645844121725656,0.18149417092101233
2025-11-24T17:00:08.875000,0.25466,0.15192,-8.24394,0.541815126067214,0.0578972836776323,0.2117684775931808
2025-11-24T17:00:08.884615,0.25238,0.15964,-8.18501,0.5778792134670233,0.08353564679065341,0.23532326664517103
2025-11-24T17:00:08.894231,0.25691,0.19701,-8.11691,0.6075672640434469,0.06759258767246079,0.23176541296498063
2025-11-24T17:00:08.903846,0.23756,0.20207,-8.15335,0.575019840553481,0.06294861559875428,0.23710228075172887
2025-11-24T17:00:08.913462,0.26032,0.18002,-7.94789,0.59158982193899,0.11368987481028464,0.23676787566704674
2025-11-24T17:00:08.923077,0.24659,0.19803,-7.90957,0.6323617604631286,0.06308510034626025,0.23126886679278824
2025-11-24T17:00:08.932692,0.25197,0.1907,-7.90304,0.5823779741469639,0.1522628730098357,0.25076977959117125
2025-11-24T17:00:08.942308,0.27017,0.17967,-7.94536,0.6388896409314379,0.10799975238293272,0.2632244491334028
2025-11-24T17:00:08.951923,0.24861,0.21794,-7.77887,0.6212820613056182,0.1269009700503305,0.25732715612383916
2025-11-24T17:00:08.961538,0.29227,0.17511,-7.81167,0.6466823615086673,0.18943297555663374,0.23590638114826235
2025-11-24T17:00:08.971154,0.33105,0.27429,-7.76591,0.6963650785288632,0.19272239759786747,0.274125426575509
2025-11-24T17:00:08.980769,0.29273,0.2075,-7.69497,0.6460039520284172,0.1781185296147301,0.24806102859207607
2025-11-24T17:00:08.990385,0.26474,0.21283,-7.72461,0.6657113372773111,0.21364680093417707,0.2663281681422243
2025-11-24T17:00:09,0.28204,0.22441,-7.67761,0.7213393438615004,0.22913956510535513,0.2495810358376379
2025-11-24T17:00:09.009615,0.25802,0.22486,-7.67968,0.7465775029770392,0.23667450055206504,0.24764249863744783
2025-11-24T17:00:09.019231,0.28305,0.19724,-7.62976,0.7026494855665192,0.26711967495800376,0.2551222816797947
2025-11-24T17:00:09.028846,0.30203,0.27662,-7.71037,0.7582244341414478,0.24517565027267904,0.2835053495745021
2025-11-24T17:00:09.038462,0.30476,0.23154,-7.66613,0.7248598474956982,0.23303601266043247,0.23148668388343713
2025-11-24T17:00:09.048077,0.27323,0.23201,-7.54534,0.7721837520318237,0.2918200981310031,0.25822495349106506
2025-11-24T17:00:09.057692,0.30054,0.24447,-7.49701,0.7919515256728367,0.24638114918703152,0.2577493512698966
2025-11-24T17:00:09.067308,0.31819,0.27035,-7.61413,0.7672486590388845,0.32868494259162734,0.2674556508390127
2025-11-24T17:00:09.076923,0.33048,0.29137,-7.54037,0.7658153946571467,0.28653628835351547,0.2561701773626921
2025-11-24T17:00:09.086538,0.28148,0.27583,-7.5106,0.7883901813341422,0.33062766858202225,0.2616503366810291
2025-11-24T17:00:09.096154,0.27814,0.3106,-7.59078,0.7888481557298656,0.3343073462440018,0.2663203141605903
2025-11-24T17:00:09.105769,0.29625,0.30269,-7.58213,0.829738078511439,0.33267389259706037,0.243525092399068
2025-11-24T17:00:09.115385,0.23614,0.27867,-7.53145,0.7700975599769148,0.3509176447352319,0.22882680210339776
2025-11-24T17:00:09.125000,0.28344,0.26322,-7.6082,0.8334877438764237,0.4004001724902239,0.22852032228674754
2025-11-24T17:00:09.134615,0.28781,0.30518,-7.63358,0.8276775427965345,0.3516182198969824,0.22503559790221567
2025-11-24T17:00:09.144231,0.28303,0.29058,-7.54257,0.8494112553069939,0.3757800344628163,0.24495189906257336
2025-11-24T17:00:09.153846,0.25934,0.29868,-7.48893,0.8286769183262265,0.37262762076786415,0.21284656747213768
2025-11-24T17:00:09.163462,0.28472,0.30588,-7.59345,0.8407968337179255,0.3761496951983887,0.19204171918958968
2025-11-24T17:00:09.173077,0.27254,0.2998,-7.56326,0.859159617311083,0.41438113246332453,0.221187845033269
2025-11-24T17:00:09.182692,0.30148,0.29112,-7.71461,0.8501786765790958,0.4122293160285407,0.1946462740323408
2025-11-24T17:00:09.192308,0.26605,0.2806,-7.62382,0.8448402379960208,0.413430277086838,0.21318725574212696
2025-11-24T17:00:09.201923,0.27669,0.32983,-7.58863,0.8627961853405384,0.45133237072192245,0.16322214444895852
2025-11-24T17:00:09.211538,0.27543,0.3143,-7.53884,0.8799730177069658,0.3969348212603892,0.17108328193286618
2025-11-24T17:00:09.221154,0.28902,0.31648,-7.6916,0.8794934012285178,0.45869416950683456,0.15418081532485226
2025-11-24T17:00:09.230769,0.22417,0.29161,-7.57717,0.8170111376058964,0.468715850071786,0.14002794042043024
2025-11-24T17:00:09.240385,0.26553,0.31882,-7.58969,0.9113407731555088,0.4458574473913415,0.13609484095106103
2025-11-24T17:00:09.250000,0.28464,0.28685,-7.58405,0.8661439013787887,0.47619720391045967,0.15376560149580282
2025-11-24T17:00:09.259615,0.25916,0.29185,-7.73016,0.8526031134430412,0.46653663196774586,0.1290187525647004
2025-11-24T17:00:09.269231,0.23266,0.33735,-7.67728,0.8547807607507545,0.46722132463330324,0.11669550631514407
2025-11-24T17:00:09.278846,0.26639,0.34733,-7.63756,0.8629164385260009,0.4884305657035383,0.10020633367400243
2025-11-24T17:00:09.288462,0.26311,0.3244,-7.69786,0.8985386085592051,0.5436784395766433,0.11634713859644599
2025-11-24T17:00:09.298077,0.24735,0.26969,-7.72573,0.9151756105879906,0.5494479744849609,0.07766383558816888
2025-11-24T17:00:09.307692,0.22581,0.3188,-7.74153,0.8811940500516611,0.5289646158506303,0.08687568338019495
2025-11-24T17:00:09.317308,0.23031,0.28601,-7.76434,0.892108815594858,0.5395828499539134,0.033617135788513185
2025-11-24T17:00:09.326923,0.23484,0.3207,-7.81615,0.8791209479661422,0.5399305195409105,0.07022838390882263
2025-11-24T17:00:09.336538,0.21948,0.33511,-7.90032,0.9365997016891462,0.5437664041709437,0.016065232165832204
2025-11-24T17:00:09.346154,0.19435,0.30331,-7.8882,0.8543212155587043,0.5758270553325284,0.0420132166881571
2025-11-24T17:00:09.355769,0.21302,0.26934,-7.85222,0.894377220023675,0.5612165550982335,0.03595762231543758
2025-11-24T17:00:09.365385,0.22272,0.29824,-7.92321,0.855683445039886,0.5737099709498593,0.00750718471160321
2025-11-24T17:00:09.375000,0.20925,0.28173,-8.02301,0.855613457336881,0.5704210725074012,0.004667534018608435
2025-11-24T17:00:09.384615,0.21323,0.30048,-7.89077,0.88360853853887,0.5514325883774036,-0.01611322872026205
2025-11-24T17:00:09.394231,0.21167,0.29214,-8.00277,0.8458247782270708,0.5956023338893249,-0.03054867243058195
2025-11-24T17:00:09.403846,0.2231,0.33025,-7.90803,0.8277840078809062,0.5692431497952302,-0.03907128970099546
2025-11-24T17:00:09.413462,0.24433,0.25323,-7.96474,0.8272745462722491,0.5320929440019049,-0.0286244469302582
2025-11-24T17:00:09.423077,0.20991,0.28393,-8.05793,0.8207998983461258,0.5774058801738825,-0.047012712330494866
2025-11-24T17:00:09.432692,0.16212,0.2878,-8.11988,0.8133513566973894,0.6033844079581172,-0.08292303622320339
2025-11-24T17:00:09.442308,0.13194,0.28077,-8.15181,0.798533860413808,0.578277148536478,-0.06968488837975159
2025-11-24T17:00:09.451923,0.178,0.29074,-8.06302,0.7969304264300008,0.6265855933036534,-0.06861657234460587
2025-11-24T17:00:09.461538,0.17607,0.2993,-8.13209,0.8785067666023654,0.6236225478325427,-0.07296924896615453
2025-11-24T17:00:09.471154,0.14611,0.32708,-8.19554,0.7834845844055617,0.6272985603030932,-0.12181071728688904
2025-11-24T17:00:09.480769,0.16944,0.28808,-8.08858,0.8147755453670168,0.5645061516723924,-0.16075424888663853
2025-11-24T17:00:09.490385,0.14327,0.24835,-8.27933,0.7880960933551812,0.6442329664364186,-0.12173444639857689
2025-11-24T17:00:09.500000,0.16123,0.28182,-8.35068,0.8002008243823877,0.6140923519849528,-0.14081822550573328
2025-11-24T17:00:09.509615,0.14121,0.27477,-8.23835,0.724508687250197,0.5739742137986111,-0.14743686309514617
2025-11-24T17:00:09.519231,0.15018,0.30048,-8.32465,0.735387673543728,0.612182089118645,-0.16228315731138557
2025-11-24T17:00:09.528846,0.10185,0.27447,-8.28171,0.7517991790331559,0.646943637297691,-0.16434334396043968
2025-11-24T17:00:09.538462,0.12242,0.30288,-8.37711,0.7480294423817733,0.626299010240476,-0.17466644288721053
2025-11-24T17:00:09.548077,0.12267,0.24724,-8.27984,0.705709745876966,0.6260394797807044,-0.18050910709118673
2025-11-24T17:00:09.557692,0.09159,0.22784,-8.43692,0.725218512656983,0.604534929001032,-0.17108415459749216
2025-11-24T17:00:09.567308,0.15217,0.28289,-8.43841,0.7293928166289779,0.5686310628265557,-0.21019820486516147
2025-11-24T17:00:09.576923,0.09814,0.29416,-8.4327,0.7275879716494905,0.6399820425102611,-0.23422370921641464
2025-11-24T17:00:09.586538,0.1312,0.2551,-8.45307,0.679360859225458,0.5961199985454665,-0.20782961853727996
2025-11-24T17:00:09.596154,0.08456,0.27603,-8.50223,0.651673828636446,0.5854898962032699,-0.22575816421254133
2025-11-24T17:00:09.605769,0.0877,0.25867,-8.61141,0.6409000856968101,0.5911433667163297,-0.20538109612965713
2025-11-24T17:00:09.615385,0.11045,0.30291,-8.54479,0.6416716957591168,0.6179497041647855,-0.23104075225955256
2025-11-24T17:00:09.625000,0.08734,0.27985,-8.65405,0.6735183695544069,0.5936409328759337,-0.2517447205113353
2025-11-24T17:00:09.634615,0.07962,0.26364,-8.5949,0.6217503331439284,0.6027885525514863,-0.22566182203783125
2025-11-24T17:00:09.644231,0.07564,0.25945,-8.69569,0.5974993322533175,0.5908946572979206,-0.22601280775040727
2025-11-24T17:00:09.653846,0.03757,0.28562,-8.68577,0.5459965858891421,0.6053651821262056,-0.24182775970150353
2025-11-24T17:00:09.663462,0.0517,0.25527,-8.75203,0.5305263364653148,0.584773438545326,-0.2533409986452093
2025-11-24T17:00:09.673077,0.035,0.25396,-8.78604,0.5558994095320328,0.6190375678875536,-0.25735455779309546
2025-11-24T17:00:09.682692,0.05276,0.24963,-8.68878,0.49282984261611523,0.5688647624133978,-0.2452180617735025
2025-11-24T17:00:09.692308,0.03265,0.25539,-8.82164,0.5797046533316842,0.5699906743138593,-0.23566831823829035
2025-11-24T17:00:09.701923,0.03742,0.29145,-8.78707,0.5180999412569656,0.5669913259943071,-0.2467005444401465
2025-11-24T17:00:09.711538,0.03157,0.23579,-8.90335,0.49992862028275176,0.5624944851765438,-0.22922910049598247
2025-11-24T17:00:09.721154,0.02726,0.25473,-8.83229,0.5287178262943982,0.5974661709975296,-0.2362369465085901
2025-11-24T17:00:09.730769,0.02221,0.21841,-8.83081,0.48755790107754116,0.5572454074511708,-0.290003210379677
2025-11-24T17:00:09.740385,0.00483,0.24142,-8.912,0.5044938780071934,0.5718049440713073,-0.2872400051079196
2025-11-24T17:00:09.750000,-0.00817,0.19941,-8.93294,0.4709441119278071,0.5667665275866501,-0.24723496425710717
2025-11-24T17:00:09.759615,-0.00528,0.26206,-8.89874,0.44947202427222166,0.5674854287055466,-0.24779661121039892
2025-11-24T17:00:09.769231,0.02459,0.24819,-8.9588,0.4107389793802627,0.5542174357318858,-0.25752123673666094
2025-11-24T17:00:09.778846,0.00587,0.22836,-8.94623,0.4241584669329967,0.523787096624589,-0.2576545798915133
2025-11-24T17:00:09.788462,0.00541,0.19989,-9.04689,0.375882136224058,0.5485538423091642,-0.27566410884406717
2025-11-24T17:00:09.798077,0.01662,0.26573,-8.97297,0.36182071657244047,0.5507845476261382,-0.2492230688080539
2025-11-24T17:00:09.807692,-0.03915,0.25723,-9.06323,0.3401199907848438,0.5408321566324908,-0.2617503440471684
2025-11-24T17:00:09.817308,-0.00987,0.19538,-9.0681,0.32687381442683283,0.49913833519744877,-0.23554300359799715
2025-11-24T17:00:09.826923,-0.04601,0.2014,-9.08505,0.3498720179803621,0.5434573063604156,-0.23409211139081426
2025-11-24T17:00:09.836538,-0.03557,0.2,-9.12741,0.320849461447724,0.4983248372330942,-0.23017960680661856
2025-11-24T17:00:09.846154,-0.02349,0.1993,-9.14677,0.30987273671608123,0.47937125968813654,-0.2379559212888793
2025-11-24T17:00:09.855769,-0.00512,0.20125,-9.12397,0.2519609668056574,0.484885976525663,-0.22935144807654725
2025-11-24T17:00:09.865385,-0.0572,0.21093,-9.25802,0.20577850760033625,0.48451387232913784,-0.21968878173873105
2025-11-24T17:00:09.875000,-0.04753,0.17987,-9.17464,0.307652328841694,0.4714794044093938,-0.22273507941516194
2025-11-24T17:00:09.884615,-0.02651,0.22124,-9.28208,0.2668294267033971,0.4704877083284106,-0.1835976417355159
2025-11-24T17:00:09.894231,-0.08336,0.19742,-9.22373,0.19131897834633882,0.4603665439960955,-0.22369134531232965
2025-11-24T17:00:09.903846,-0.05017,0.19599,-9.21194,0.16978091724502797,0.4849561387615932,-0.19093413324627406
2025-11-24T17:00:09.913462,-0.06736,0.22216,-9.26673,0.15508402321275933,0.4297227511212799,-0.16948159327831097
2025-11-24T17:00:09.923077,-0.08254,0.21604,-9.33108,0.1771411452336133,0.40751937050910875,-0.19401324311264245
2025-11-24T17:00:09.932692,-0.0656,0.1905,-9.35276,0.13119587627363816,0.428508176494817,-0.15838653522338303
2025-11-24T17:00:09.942308,-0.0602,0.17809,-9.38576,0.10305296568400518,0.38652201241006584,-0.16457599634973052
2025-11-24T17:00:09.951923,-0.09382,0.19194,-9.39419,0.06358566077573222,0.34546855227758044,-0.15449724351823885
2025-11-24T17:00:09.961538,-0.0714,0.1751,-9.43982,0.05818735739931375,0.41710716222201444,-0.14546097584896342
2025-11-24T17:00:09.971154,-0.07888,0.19978,-9.46923,0.06494911198739019,0.3354110924629631,-0.12553559897649536
2025-11-24T17:00:09.980769,-0.11045,0.14937,-9.43065,0.03976418541403721,0.364051072823564,-0.1167443755341999
2025-11-24T17:00:09.990385,-0.05775,0.16308,-9.51642,0.013159782560037244,0.3687676505941535,-0.13159590573819524
2025-11-24T17:00:10,-0.07016,0.16038,-9.61028,0.0503876555050763,0.3409697915976398,-0.08545934869220155
2025-11-24T17:00:10.009615,-0.11223,0.16121,-9.45639,-0.04536669231293901,0.32761697562233205,-0.0891358847615276
2025-11-24T17:00:10.019231,-0.10977,0.16367,-9.52147,-0.04451793869769416,0.34676376111548535,-0.10182111229794759
2025-11-24T17:00:10.028846,-0.08556,0.15088,-9.52687,-0.026674216024079735,0.28958328416164714,-0.10078613205151495
2025-11-24T17:00:10.038462,-0.11376,0.13091,-9.59955,-0.0507862887062318,0.3067257335418103,-0.07770345456218913
2025-11-24T17:00:10.048077,-0.14346,0.15261,-9.68075,-0.05873661251491637,0.28176386004686216,-0.07066035289869123
2025-11-24T17:00:10.057692,-0.08844,0.16773,-9.70347,-0.10430663568571272,0.3050016973066903,-0.0535247103026109
2025-11-24T17:00:10.067308,-0.11193,0.10198,-9.73657,-0.1361381251165105,0.2701186742117056,-0.03300347802351197
2025-11-24T17:00:10.076923,-0.07661,0.1448,-9.73751,-0.12575987378537662,0.28793290082096135,-0.05136242189231513
2025-11-24T17:00:10.086538,-0.11018,0.14208,-9.75743,-0.1503623839873391,0.2500147501567585,-0.021081657501914305
2025-11-24T17:00:10.096154,-0.11604,0.15461,-9.78719,-0.1732234046616616,0.27305641240866246,-0.0073055991829978646
2025-11-24T17:00:10.105769,-0.06484,0.11908,-9.80977,-0.2074767129625267,0.24668693087198093,0.008255407361933179
2025-11-24T17:00:10.115385,-0.12819,0.12687,-9.93166,-0.19785593452675837,0.19857169405300124,0.021765652035770883
2025-11-24T17:00:10.125000,-0.14617,0.13463,-9.89439,-0.21289159696683913,0.18265673473576577,0.025622829682678355
2025-11-24T17:00:10.134615,-0.12487,0.10948,-9.9518,-0.27700713970347685,0.1804550018843749,0.04926348893386674
2025-11-24T17:00:10.144231,-0.10902,0.10812,-9.94304,-0.23221954763634953,0.2208438406377009,0.04313232180453586
2025-11-24T17:00:10.153846,-0.15728,0.10291,-10.14054,-0.2988926958588597,0.17146812703293093,0.07903217372173242
2025-11-24T17:00:10.163462,-0.15433,0.07788,-9.99364,-0.29986397158759454,0.13964326985329073,0.08290540839775826
2025-11-24T17:00:10.173077,-0.12933,0.11155,-10.11654,-0.34397804109637725,0.11902237927390291,0.10610711734207007
2025-11-24T17:00:10.182692,-0.20438,0.10338,-10.09432,-0.28019777610904767,0.12745284315981112,0.06906006050753763
2025-11-24T17:00:10.192308,-0.16437,0.09153,-10.21321,-0.3799339180825628,0.15012275028104027,0.0817520948280404
2025-11-24T17:00:10.201923,-0.12865,0.06762,-10.13693,-0.3681412519256127,0.09394932830560276,0.13640568409084122
2025-11-24T17:00:10.211538,-0.1583,0.08715,-10.1232,-0.3789226743139573,0.09686891507833888,0.10868200158753731
2025-11-24T17:00:10.221154,-0.18107,0.07873,-10.24083,-0.42000179078644706,0.07019557171888514,0.1331859006867621
2025-11-24T17:00:10.230769,-0.11197,0.05815,-10.25175,-0.39313331961662035,0.10208343528452235,0.14291471500322886
