Timestamp,Acceleration_X,Acceleration_Y,Acceleration_Z,Gyro_X,Gyro_Y,Gyro_Z
2025-11-22T17:45:00,0.06004,0.20798,-10.37101,0.05031,-0.27903,0.01496
2025-11-22T17:45:00.009615,0.05998,0.28747,-10.24444,0.08056,-0.31570,0.03819
2025-11-22T17:45:00.019231,0.03995,0.27606,-10.32939,0.13987,-0.26483,0.00234
2025-11-22T17:45:00.028846,0.05719,0.29842,-10.26797,0.21065,-0.28073,0.00218
2025-11-22T17:45:00.038462,0.08484,0.27563,-10.32532,0.00943,-0.20481,0.06903
2025-11-22T17:45:00.048077,0.06266,0.28296,-10.26582,0.13453,-0.23258,0.06992
2025-11-22T17:45:00.057692,0.07931,0.21794,-10.28583,0.04695,-0.29064,0.02636
2025-11-22T17:45:00.067308,0.09406,0.20667,-10.27932,0.09758,-0.20238,0.07984
2025-11-22T17:45:00.076923,0.05573,0.30589,-10.26453,0.00315,-0.32005,0.00250
2025-11-22T17:45:00.086538,0.09487,0.25190,-10.23908,0.14246,-0.25948,0.07552
2025-11-22T17:45:00.096154,0.06720,0.21840,-10.21437,0.07197,-0.23387,0.08095
2025-11-22T17:45:00.105769,0.08014,0.24639,-10.23407,-0.00719,-0.33277,-0.00498
2025-11-22T17:45:00.115385,0.06031,0.24511,-10.15617,0.09203,-0.17638,0.01873
2025-11-22T17:45:00.125,0.08163,0.29060,-10.29822,0.15334,-0.20772,0.03997
2025-11-22T17:45:00.134615,0.08017,0.26289,-10.20117,0.24095,-0.23729,0.02277
2025-11-22T17:45:00.144231,0.14102,0.28342,-10.17452,0.23708,-0.29973,0.04623
2025-11-22T17:45:00.153846,0.06306,0.27170,-10.19327,0.03742,-0.28341,0.09816
2025-11-22T17:45:00.163462,0.19582,0.25900,-10.22113,-0.00322,-0.18920,0.04610
2025-11-22T17:45:00.173077,0.10814,0.28103,-10.15301,0.14047,-0.27588,0.00727
2025-11-22T17:45:00.182692,0.12467,0.30493,-10.14328,0.22582,-0.23361,0.03600
2025-11-22T17:45:00.192308,0.18390,0.19703,-10.09652,0.09917,-0.12855,0.11872
2025-11-22T17:45:00.201923,0.10411,0.24326,-10.14958,0.08183,-0.27815,0.11232
2025-11-22T17:45:00.211538,0.12381,0.23225,-10.04967,0.18811,-0.21222,0.16319
2025-11-22T17:45:00.221154,0.13638,0.16709,-10.17126,0.29333,-0.05740,0.10306
2025-11-22T17:45:00.230769,0.10110,0.17540,-10.05832,0.15504,-0.17285,0.10800
2025-11-22T17:45:00.240385,0.14035,0.23194,-10.18041,0.18402,-0.22581,0.05933
2025-11-22T17:45:00.25,0.16833,0.14799,-10.06356,0.15818,-0.18385,0.17448
2025-11-22T17:45:00.259615,0.13932,0.16794,-10.06326,0.21355,-0.14253,0.07415
2025-11-22T17:45:00.269231,0.22249,0.26548,-10.08150,0.18082,-0.25117,0.10281
2025-11-22T17:45:00.278846,0.12798,0.15874,-10.13278,0.19378,-0.21679,0.10982
2025-11-22T17:45:00.288462,0.09990,0.12062,-9.90534,0.11912,-0.21275,0.23202
2025-11-22T17:45:00.298077,0.14424,0.18725,-9.91159,0.14409,-0.14657,0.18288
2025-11-22T17:45:00.307692,0.15381,0.11277,-9.99599,0.19830,-0.10644,0.12002
2025-11-22T17:45:00.317308,0.16490,0.17592,-9.96733,0.22057,-0.16637,0.16733
2025-11-22T17:45:00.326923,0.20973,0.17128,-9.99391,0.14615,-0.02553,0.16830
2025-11-22T17:45:00.336538,0.19252,0.16792,-9.99691,0.19431,-0.08339,0.16138
2025-11-22T17:45:00.346154,0.15918,0.14966,-9.85333,0.05077,-0.11126,0.17110
2025-11-22T17:45:00.355769,0.11594,0.15041,-9.82594,0.12602,-0.02693,0.14929
2025-11-22T17:45:00.365385,0.16038,0.18295,-9.86849,0.35743,0.00240,0.19104
2025-11-22T17:45:00.375,0.19690,0.11268,-9.87951,0.18995,-0.00328,0.11346
2025-11-22T17:45:00.384615,0.17567,0.16491,-9.83045,0.36863,-0.01383,0.09698
2025-11-22T17:45:00.394231,0.15938,0.17197,-9.82120,0.19449,-0.12830,0.18035
2025-11-22T17:45:00.403846,0.18551,0.15114,-9.80768,0.08508,-0.02832,0.18534
2025-11-22T17:45:00.413462,0.11534,0.07464,-9.79358,0.13662,0.06149,0.20310
2025-11-22T17:45:00.423077,0.20259,0.13433,-9.79645,0.26541,-0.01505,0.14436
2025-11-22T17:45:00.432692,0.19048,0.12486,-9.84599,0.24173,0.07765,0.15310
2025-11-22T17:45:00.442308,0.20497,0.07856,-9.71157,0.31174,0.04085,0.22063
2025-11-22T17:45:00.451923,0.12004,0.13548,-9.78588,0.26040,0.08161,0.11536
2025-11-22T17:45:00.461538,0.15669,0.08208,-9.72178,0.27307,-0.10090,0.08241
2025-11-22T17:45:00.471154,0.19451,0.08574,-9.72611,0.30763,0.02214,0.22674
2025-11-22T17:45:00.480769,0.18671,0.08364,-9.73779,0.29138,-0.00439,0.19658
2025-11-22T17:45:00.490385,0.14183,-0.01532,-9.81992,0.20771,0.07482,0.19032
2025-11-22T17:45:00.5,0.22033,0.03435,-9.62077,0.26171,-0.02810,0.17684
2025-11-22T17:45:00.509615,0.16939,0.06241,-9.58771,0.15838,0.06619,0.15640
2025-11-22T17:45:00.519231,0.12468,0.06056,-9.68940,0.21743,-0.02802,0.17747
2025-11-22T17:45:00.528846,0.18879,0.03109,-9.57863,0.23026,-0.04835,0.26518
2025-11-22T17:45:00.538462,0.18962,0.00457,-9.61285,0.39008,0.20857,0.21679
2025-11-22T17:45:00.548077,0.15178,0.01637,-9.61735,0.27453,0.01298,0.13522
2025-11-22T17:45:00.557692,0.16227,-0.01542,-9.50511,0.32882,0.01208,0.23334
2025-11-22T17:45:00.567308,0.18033,0.01438,-9.60501,0.32450,0.00757,0.21739
2025-11-22T17:45:00.576923,0.21636,-0.01338,-9.54526,0.24448,0.08362,0.17909
2025-11-22T17:45:00.586538,0.19178,0.01977,-9.54240,0.22663,0.13532,0.20348
2025-11-22T17:45:00.596154,0.16004,-0.10981,-9.62211,0.34016,0.17415,0.18366
2025-11-22T17:45:00.605769,0.15196,0.06015,-9.51245,0.20332,0.15192,0.14217
2025-11-22T17:45:00.615385,0.16370,-0.01144,-9.50401,0.28688,0.07900,0.26556
2025-11-22T17:45:00.625,0.13752,0.00402,-9.51810,0.33577,0.10395,0.29373
2025-11-22T17:45:00.634615,0.20883,-0.07014,-9.54312,0.20330,0.17426,0.14286
2025-11-22T17:45:00.644231,0.19391,-0.15762,-9.52318,0.11365,0.09233,0.23357
2025-11-22T17:45:00.653846,0.15216,-0.05980,-9.52232,0.27799,0.20404,0.24032
2025-11-22T17:45:00.663462,0.21531,-0.07740,-9.47558,0.17237,0.09278,0.15860
2025-11-22T17:45:00.673077,0.16148,-0.07776,-9.48712,0.28455,0.22407,0.21245
2025-11-22T17:45:00.682692,0.15415,-0.14351,-9.44115,0.23611,0.11649,0.22939
2025-11-22T17:45:00.692308,0.18288,-0.10135,-9.40880,0.04511,0.10557,0.20453
2025-11-22T17:45:00.701923,0.20216,-0.14387,-9.45838,0.22613,0.30620,0.15728
2025-11-22T17:45:00.711538,0.08937,-0.15347,-9.42755,0.16888,0.25709,0.22951
2025-11-22T17:45:00.721154,0.11816,-0.05655,-9.42796,0.15625,0.24473,0.25447
2025-11-22T17:45:00.730769,0.14806,-0.15407,-9.37536,0.09646,0.24459,0.17475
2025-11-22T17:45:00.740385,0.13549,-0.14228,-9.30548,0.16042,0.22193,0.22713
2025-11-22T17:45:00.75,0.10845,-0.13908,-9.30118,0.11340,0.05698,0.29270
2025-11-22T17:45:00.759615,0.06245,-0.13977,-9.37527,0.16775,0.15395,0.23946
2025-11-22T17:45:00.769231,0.13752,-0.04984,-9.34438,0.15208,0.22780,0.23943
2025-11-22T17:45:00.778846,0.10072,-0.06246,-9.35411,0.28693,0.16615,0.23608
2025-11-22T17:45:00.788462,0.11355,-0.09215,-9.35441,0.04608,0.24768,0.15951
2025-11-22T17:45:00.798077,0.05275,-0.20939,-9.30734,0.12211,0.07468,0.24165
2025-11-22T17:45:00.807692,0.06001,-0.11527,-9.30761,0.31953,0.28874,0.21943
2025-11-22T17:45:00.817308,0.11378,-0.10240,-9.34519,0.11617,0.23070,0.23709
2025-11-22T17:45:00.826923,0.07771,-0.14350,-9.32589,0.20707,0.11132,0.15358
2025-11-22T17:45:00.836538,0.05688,-0.19609,-9.31857,0.21198,0.25630,0.14062
2025-11-22T17:45:00.846154,0.05177,-0.19913,-9.27593,0.11208,0.32307,0.18859
2025-11-22T17:45:00.855769,0.07588,-0.17418,-9.36044,0.01155,0.32982,0.16871
2025-11-22T17:45:00.865385,0.10520,-0.25984,-9.37071,0.04968,0.38795,0.19725
2025-11-22T17:45:00.875,0.03282,-0.15336,-9.28965,0.14588,0.27616,0.19376
2025-11-22T17:45:00.884615,0.08561,-0.23853,-9.40207,0.17068,0.37584,0.12544
2025-11-22T17:45:00.894231,0.08426,-0.10410,-9.26149,0.06753,0.23334,0.17354
2025-11-22T17:45:00.903846,0.11268,-0.10666,-9.22857,0.02199,0.35864,0.20134
2025-11-22T17:45:00.913462,0.06511,-0.15033,-9.25205,0.10312,0.17662,0.16981
2025-11-22T17:45:00.923077,0.09129,-0.11243,-9.21494,0.08988,0.39845,0.16239
2025-11-22T17:45:00.932692,0.04749,-0.18063,-9.34750,0.06111,0.30052,0.24772
2025-11-22T17:45:00.942308,0.03776,-0.18252,-9.29245,-0.01847,0.29747,0.11649
2025-11-22T17:45:00.951923,0.03671,-0.25678,-9.28885,0.11956,0.38388,0.20094
2025-11-22T17:45:00.961538,-0.01288,-0.17235,-9.26463,0.13248,0.38817,0.13879
2025-11-22T17:45:00.971154,0.02079,-0.19482,-9.31385,0.05254,0.27708,0.10966
2025-11-22T17:45:00.980769,0.01621,-0.17620,-9.34376,-0.00642,0.41392,0.07853
2025-11-22T17:45:00.990385,0.00437,-0.18607,-9.29497,0.10466,0.12683,0.15192
2025-11-22T17:45:01,-0.01329,-0.21738,-9.33659,-0.01079,0.41425,0.21939
2025-11-22T17:45:01.009615,-0.00623,-0.11685,-9.29979,0.01359,0.34004,0.28179
2025-11-22T17:45:01.019231,0.01638,-0.20100,-9.32333,0.06038,0.31650,0.13202
2025-11-22T17:45:01.028846,-0.00532,-0.26331,-9.26970,-0.07960,0.21297,0.11035
2025-11-22T17:45:01.038462,0.00149,-0.23861,-9.32802,-0.05943,0.31001,0.12232
2025-11-22T17:45:01.048077,-0.02690,-0.25947,-9.41071,-0.02697,0.29687,0.09826
2025-11-22T17:45:01.057692,-0.00569,-0.22690,-9.37695,-0.11023,0.33137,0.16066
2025-11-22T17:45:01.067308,-0.09054,-0.21422,-9.35226,-0.06985,0.31238,0.07776
2025-11-22T17:45:01.076923,-0.07056,-0.15997,-9.40763,-0.02152,0.31514,0.08086
2025-11-22T17:45:01.086538,0.01189,-0.18615,-9.40161,-0.05139,0.23063,0.04549
2025-11-22T17:45:01.096154,-0.07377,-0.13544,-9.28723,0.03683,0.34077,0.14605
2025-11-22T17:45:01.105769,-0.08625,-0.16776,-9.38147,-0.08272,0.43295,0.06415
2025-11-22T17:45:01.115385,-0.06305,-0.16967,-9.33869,0.00318,0.41374,0.08285
2025-11-22T17:45:01.125,-0.07298,-0.12948,-9.32644,-0.07081,0.35743,0.08661
2025-11-22T17:45:01.134615,-0.08598,-0.15062,-9.52531,-0.06598,0.03671,-0.02941
2025-11-22T17:45:01.144231,-0.11507,-0.18931,-9.31970,-0.13373,0.44555,0.05133
2025-11-22T17:45:01.153846,-0.08109,-0.19749,-9.40356,-0.10931,0.18922,0.03329
2025-11-22T17:45:01.163462,-0.08873,-0.16508,-9.41362,-0.09807,0.32388,-0.00926
2025-11-22T17:45:01.173077,-0.10680,-0.20662,-9.39674,-0.08801,0.16927,0.04685
2025-11-22T17:45:01.182692,-0.08005,-0.20210,-9.41336,-0.14827,0.23809,0.07355
2025-11-22T17:45:01.192308,-0.06405,-0.14612,-9.42363,-0.07993,0.27559,0.03122
2025-11-22T17:45:01.201923,-0.12976,-0.15393,-9.42127,-0.13978,0.28592,0.05285
2025-11-22T17:45:01.211538,-0.10081,-0.18218,-9.39289,-0.18130,0.14101,-0.03821
2025-11-22T17:45:01.221154,-0.12458,-0.14152,-9.44640,-0.12856,0.27352,0.02924
2025-11-22T17:45:01.230769,-0.13137,-0.21034,-9.48827,-0.15864,0.31890,0.06287
2025-11-22T17:45:01.240385,-0.10985,-0.13917,-9.50315,-0.09509,0.20077,0.03854
2025-11-22T17:45:01.25,-0.09904,-0.08486,-9.51128,-0.22312,0.17355,-0.03382
2025-11-22T17:45:01.259615,-0.11887,-0.15707,-9.54016,-0.16755,0.39854,-0.08095
2025-11-22T17:45:01.269231,-0.12327,-0.09711,-9.52158,-0.19129,0.32264,-0.04001
2025-11-22T17:45:01.278846,-0.14089,-0.13902,-9.53518,-0.08449,0.20873,-0.03208
2025-11-22T17:45:01.288462,-0.19022,-0.12681,-9.56096,-0.09824,0.40388,-0.05655
2025-11-22T17:45:01.298077,-0.15019,-0.06700,-9.58380,-0.18759,0.17156,-0.10206
2025-11-22T17:45:01.307692,-0.15703,-0.10202,-9.60129,-0.14421,0.20551,-0.06981
2025-11-22T17:45:01.317308,-0.13683,-0.03298,-9.55464,-0.12509,0.22843,-0.01188
2025-11-22T17:45:01.326923,-0.13344,-0.11979,-9.67169,-0.11708,0.23667,0.02786
2025-11-22T17:45:01.336538,-0.16432,-0.05499,-9.64341,-0.13289,0.14481,-0.03354
2025-11-22T17:45:01.346154,-0.15951,-0.08246,-9.67471,-0.22885,0.14329,0.03289
2025-11-22T17:45:01.355769,-0.22487,-0.08154,-9.69179,-0.26745,0.25087,-0.06838
2025-11-22T17:45:01.365385,-0.16302,-0.04252,-9.69429,-0.10238,-0.01640,-0.16457
2025-11-22T17:45:01.375,-0.14546,-0.01315,-9.72966,-0.15439,0.20979,-0.05954
2025-11-22T17:45:01.384615,-0.18488,0.00281,-9.72099,-0.22842,0.23236,-0.19544
2025-11-22T17:45:01.394231,-0.18065,-0.02823,-9.81805,-0.30004,0.06046,0.04593
2025-11-22T17:45:01.403846,-0.18220,-0.05689,-9.85433,-0.24157,0.04224,-0.08512
2025-11-22T17:45:01.413462,-0.16822,0.01092,-9.75435,-0.32790,0.16319,-0.12470
2025-11-22T17:45:01.423077,-0.21518,-0.00913,-9.77329,-0.19439,0.08468,-0.01179
2025-11-22T17:45:01.432692,-0.15243,0.08818,-9.70990,-0.32483,0.02080,-0.01771
2025-11-22T17:45:01.442308,-0.19039,0.03498,-9.82942,-0.28574,0.02951,-0.13101
2025-11-22T17:45:01.451923,-0.16759,0.06102,-9.86513,-0.25429,0.01774,-0.23129
2025-11-22T17:45:01.461538,-0.24454,-0.01485,-9.79079,-0.24520,0.14896,-0.08133
2025-11-22T17:45:01.471154,-0.16168,0.06955,-9.90218,-0.20348,0.08915,-0.13239
2025-11-22T17:45:01.480769,-0.17499,0.06093,-9.92924,-0.24109,0.08032,-0.07690
2025-11-22T17:45:01.490385,-0.20764,0.12265,-9.93236,-0.16985,0.03598,-0.13117
2025-11-22T17:45:01.5,-0.22421,0.10146,-9.84609,-0.29856,0.04318,-0.14943
2025-11-22T17:45:01.509615,-0.17825,0.13981,-9.96206,-0.17234,0.01968,-0.07582
2025-11-22T17:45:01.519231,-0.18005,0.04422,-9.92074,-0.19603,0.04523,-0.04106
2025-11-22T17:45:01.528846,-0.16470,0.06014,-9.96844,-0.28253,0.10792,-0.10187
2025-11-22T17:45:01.538462,-0.24015,0.01192,-9.94544,-0.23505,0.00291,-0.18835
2025-11-22T17:45:01.548077,-0.14927,0.10663,-10.02264,-0.26537,-0.17277,-0.11097
2025-11-22T17:45:01.557692,-0.19263,0.06085,-10.06424,-0.23222,-0.17870,-0.09480
2025-11-22T17:45:01.567308,-0.24583,0.07456,-9.96941,-0.42838,-0.06613,-0.18601
2025-11-22T17:45:01.576923,-0.15774,0.14424,-9.95413,-0.24582,-0.02444,-0.20259
2025-11-22T17:45:01.586538,-0.18496,0.12788,-10.13874,-0.21303,0.00808,-0.11485
2025-11-22T17:45:01.596154,-0.14399,0.06072,-10.12875,-0.16487,-0.04955,-0.10989
2025-11-22T17:45:01.605769,-0.14446,0.25126,-10.09987,-0.27901,-0.04723,-0.10936
2025-11-22T17:45:01.615385,-0.09268,0.16281,-10.13969,-0.15572,-0.09343,-0.14460
2025-11-22T17:45:01.625,-0.14901,0.23307,-10.09338,-0.24259,-0.12981,-0.15295
2025-11-22T17:45:01.634615,-0.12956,0.09394,-10.08691,-0.23902,-0.07632,-0.18909
2025-11-22T17:45:01.644231,-0.12556,0.10929,-10.10157,-0.18004,-0.22336,-0.13408
2025-11-22T17:45:01.653846,-0.14617,0.18803,-10.08203,-0.11826,-0.31982,-0.14869
2025-11-22T17:45:01.663462,-0.14565,0.23270,-10.22240,-0.17600,-0.19124,-0.16620
2025-11-22T17:45:01.673077,-0.13145,0.11415,-10.08696,-0.15260,-0.14776,-0.10343
2025-11-22T17:45:01.682692,-0.15173,0.18696,-10.21631,-0.23044,-0.09406,-0.11884
2025-11-22T17:45:01.692308,-0.12316,0.18435,-10.09151,-0.29433,-0.06195,-0.06250
2025-11-22T17:45:01.701923,-0.10509,0.24578,-10.21249,-0.19434,-0.17222,-0.11045
2025-11-22T17:45:01.711538,-0.15857,0.24559,-10.17833,-0.12766,-0.11255,-0.14243
2025-11-22T17:45:01.721154,-0.17642,0.22762,-10.23864,-0.19843,-0.37861,-0.18999
2025-11-22T17:45:01.730769,-0.11254,0.16788,-10.17221,-0.17166,-0.15820,-0.00991
2025-11-22T17:45:01.740385,-0.13703,0.21568,-10.22789,-0.16268,-0.21275,-0.05123
2025-11-22T17:45:01.75,-0.11226,0.30513,-10.24433,-0.08146,-0.24217,-0.16551
2025-11-22T17:45:01.759615,-0.10941,0.18711,-10.33857,-0.24213,-0.32133,-0.11541
2025-11-22T17:45:01.769231,-0.17394,0.23559,-10.28660,0.01130,-0.30551,-0.13832
2025-11-22T17:45:01.778846,-0.08464,0.25227,-10.26940,-0.07400,-0.26586,-0.07262
2025-11-22T17:45:01.788462,-0.09148,0.22731,-10.29400,-0.16486,-0.28967,-0.13178
2025-11-22T17:45:01.798077,-0.12654,0.28452,-10.35843,-0.15361,-0.26357,-0.04526
2025-11-22T17:45:01.807692,-0.07218,0.17563,-10.30751,0.03332,-0.21554,-0.10539
2025-11-22T17:45:01.817308,-0.14208,0.19629,-10.30035,-0.14893,-0.13765,-0.12165
2025-11-22T17:45:01.826923,-0.15957,0.25768,-10.32529,-0.12086,-0.15840,-0.04293
2025-11-22T17:45:01.836538,-0.05340,0.29250,-10.30491,-0.01456,-0.31963,0.00077
2025-11-22T17:45:01.846154,-0.11730,0.23610,-10.24856,-0.09353,-0.18319,-0.08449
2025-11-22T17:45:01.855769,-0.06847,0.20488,-10.36802,-0.02856,-0.21791,-0.17122
2025-11-22T17:45:01.865385,-0.06697,0.22365,-10.36223,-0.10993,-0.19492,-0.04880
2025-11-22T17:45:01.875,-0.04637,0.24838,-10.39059,-0.11642,-0.29641,-0.14369
2025-11-22T17:45:01.884615,-0.09269,0.28417,-10.34616,-0.01828,-0.25564,-0.15432
2025-11-22T17:45:01.894231,-0.00867,0.19648,-10.31926,0.04958,-0.26791,-0.05014
2025-11-22T17:45:01.903846,-0.08258,0.19293,-10.29027,-0.09408,-0.29126,-0.14285
2025-11-22T17:45:01.913462,-0.05021,0.30324,-10.31510,0.00597,-0.24454,0.00959
2025-11-22T17:45:01.923077,0.01131,0.33988,-10.40861,-0.02967,-0.16775,-0.03954
2025-11-22T17:45:01.932692,-0.02850,0.30177,-10.34940,-0.00205,-0.25858,-0.09440
2025-11-22T17:45:01.942308,-0.06459,0.30390,-10.37351,0.05013,-0.26179,-0.01784
2025-11-22T17:45:01.951923,0.02841,0.19762,-10.25418,0.04477,-0.19026,-0.11227
2025-11-22T17:45:01.961538,-0.00033,0.30293,-10.27714,-0.09622,-0.19789,-0.04611
2025-11-22T17:45:01.971154,0.02101,0.19501,-10.29608,-0.06827,-0.26236,-0.04764
2025-11-22T17:45:01.980769,-0.00917,0.27104,-10.26147,0.08256,-0.29283,-0.04858
2025-11-22T17:45:01.990385,-0.03541,0.32086,-10.31477,0.22095,-0.34226,-0.03688
2025-11-22T17:45:02,0.00222,0.29899,-10.31667,0.08242,-0.31328,-0.03114
2025-11-22T17:45:02.009615,0.04230,0.27993,-10.39258,0.14068,-0.23766,-0.05783
2025-11-22T17:45:02.019231,0.00372,0.26627,-10.24495,0.03548,-0.21685,-0.04323
2025-11-22T17:45:02.028846,0.06631,0.26491,-10.37903,-0.00777,-0.29709,-0.07351
2025-11-22T17:45:02.038462,0.11697,0.21507,-10.28376,0.01868,-0.29228,0.00134
2025-11-22T17:45:02.048077,0.10838,0.26448,-10.27400,0.17799,-0.26680,-0.02942
2025-11-22T17:45:02.057692,0.05342,0.23991,-10.27321,0.07393,-0.28959,0.03535
2025-11-22T17:45:02.067308,0.02035,0.25148,-10.17547,0.20217,-0.24275,-0.03656
2025-11-22T17:45:02.076923,0.06881,0.27169,-10.26477,0.11663,-0.34720,-0.00989
2025-11-22T17:45:02.086538,0.06734,0.23964,-10.24880,0.11271,-0.13924,0.04675
2025-11-22T17:45:02.096154,0.05506,0.24623,-10.22937,0.11367,-0.17625,-0.01180
2025-11-22T17:45:02.105769,0.06653,0.30994,-10.20386,0.27586,-0.07583,-0.01909
2025-11-22T17:45:02.115385,0.06528,0.23721,-10.27796,0.09048,-0.24020,-0.02287
2025-11-22T17:45:02.125,0.17793,0.24058,-10.21088,0.08125,-0.10592,0.09946
2025-11-22T17:45:02.134615,0.10490,0.20978,-10.13033,0.23625,-0.21365,-0.07282
2025-11-22T17:45:02.144231,0.13981,0.29480,-10.27161,0.20825,-0.14395,-0.02842
2025-11-22T17:45:02.153846,0.09914,0.17195,-10.19646,0.17161,-0.21985,0.03180
2025-11-22T17:45:02.163462,0.12607,0.22925,-10.18845,0.20821,-0.33814,0.08928
2025-11-22T17:45:02.173077,0.14614,0.15851,-10.25408,0.22796,-0.19811,0.07936
2025-11-22T17:45:02.182692,0.14971,0.25099,-10.15549,0.06814,-0.13745,0.13733
2025-11-22T17:45:02.192308,0.14623,0.26087,-10.05123,0.16104,-0.20060,0.11895
2025-11-22T17:45:02.201923,0.14262,0.24424,-10.11117,0.24424,-0.19608,0.16080
2025-11-22T17:45:02.211538,0.13454,0.25071,-10.17651,0.14346,-0.31360,0.09376
2025-11-22T17:45:02.221154,0.15795,0.18419,-10.07585,0.22033,-0.11669,0.12106
2025-11-22T17:45:02.230769,0.17318,0.21971,-10.14276,0.29307,-0.23222,0.17304
2025-11-22T17:45:02.240385,0.15021,0.18959,-10.02420,0.22690,-0.13217,0.15106
2025-11-22T17:45:02.25,0.11314,0.14919,-10.13451,0.30940,-0.01419,0.18369
2025-11-22T17:45:02.259615,0.19496,0.16717,-10.02273,0.12298,-0.11412,0.06413
2025-11-22T17:45:02.269231,0.17176,0.21995,-10.05146,0.18895,-0.27551,0.10878
2025-11-22T17:45:02.278846,0.17208,0.15437,-10.05037,0.23447,-0.04122,0.15695
2025-11-22T17:45:02.288462,0.12652,0.16694,-9.97331,0.24491,-0.07719,0.09239
2025-11-22T17:45:02.298077,0.07653,0.20641,-10.11698,0.23894,-0.02720,0.12004
2025-11-22T17:45:02.307692,0.19739,0.07498,-9.89190,0.28221,-0.17361,0.11114
2025-11-22T17:45:02.317308,0.19092,0.07601,-9.95214,0.22940,0.00938,0.07707
2025-11-22T17:45:02.326923,0.13629,0.11053,-9.95552,0.20409,-0.06543,0.08734
2025-11-22T17:45:02.336538,0.11908,0.10028,-9.94427,0.23556,0.07722,0.15559
2025-11-22T17:45:02.346154,0.15540,0.13164,-9.93332,0.36306,-0.13771,0.14236
2025-11-22T17:45:02.355769,0.15748,0.10478,-9.87711,0.25078,-0.01015,0.17237
2025-11-22T17:45:02.365385,0.20209,0.09871,-9.86378,0.31193,0.08416,0.09707
2025-11-22T17:45:02.375,0.18603,0.16360,-9.80712,0.31868,-0.06424,0.16914
2025-11-22T17:45:02.384615,0.17195,0.10094,-9.85300,0.25215,-0.11058,0.19048
2025-11-22T17:45:02.394231,0.21055,0.08888,-9.77811,0.33144,-0.01206,0.14761
2025-11-22T17:45:02.403846,0.16239,0.09505,-9.76821,0.21313,0.08269,0.17249
2025-11-22T17:45:02.413462,0.20173,0.01941,-9.67506,0.35859,0.01319,0.25961
2025-11-22T17:45:02.423077,0.16355,0.08554,-9.72326,0.31423,-0.03158,0.18934
2025-11-22T17:45:02.432692,0.13942,0.07713,-9.86041,0.32802,0.00009,0.25083
2025-11-22T17:45:02.442308,0.17170,0.05133,-9.67678,0.28141,0.11315,0.13814
2025-11-22T17:45:02.451923,0.20326,0.11569,-9.73520,0.21712,-0.01637,0.22310
2025-11-22T17:45:02.461538,0.14943,0.06198,-9.74179,0.39437,0.26307,0.21047
2025-11-22T17:45:02.471154,0.12829,-0.00052,-9.71886,0.21125,0.19341,0.20769
2025-11-22T17:45:02.480769,0.17670,0.05448,-9.64964,0.34870,0.06889,0.17867
2025-11-22T17:45:02.490385,0.17315,0.01051,-9.69630,0.30787,0.09608,0.08953
2025-11-22T17:45:02.5,0.19154,-0.04551,-9.60823,0.38030,0.15637,0.19393
2025-11-22T17:45:02.509615,0.19270,0.00088,-9.56904,0.31613,0.16888,0.20462
2025-11-22T17:45:02.519231,0.15310,-0.08676,-9.50790,0.32275,0.00107,0.16520
2025-11-22T17:45:02.528846,0.16026,0.03417,-9.62225,0.24653,0.14531,0.22124
2025-11-22T17:45:02.538462,0.17979,-0.00966,-9.56789,0.30413,0.14737,0.21311
2025-11-22T17:45:02.548077,0.17319,-0.06888,-9.53686,0.29485,0.16259,0.31314
2025-11-22T17:45:02.557692,0.20178,-0.03980,-9.40895,0.26715,0.18086,0.16314
2025-11-22T17:45:02.567308,0.19281,-0.03805,-9.44877,0.28350,0.14390,0.33836
2025-11-22T17:45:02.576923,0.14412,-0.09552,-9.45109,0.26092,0.18492,0.19988
2025-11-22T17:45:02.586538,0.13004,-0.05573,-9.45438,0.30573,0.12804,0.23664
2025-11-22T17:45:02.596154,0.13118,-0.01943,-9.43961,0.32058,0.28056,0.34292
2025-11-22T17:45:02.605769,0.13805,-0.11216,-9.51236,0.25278,0.11647,0.21837
2025-11-22T17:45:02.615385,0.16864,-0.06052,-9.46471,0.41752,0.22626,0.10764
2025-11-22T17:45:02.625,0.15065,-0.09589,-9.45739,0.40485,0.25631,0.23603
2025-11-22T17:45:02.634615,0.14781,-0.09034,-9.51511,0.24628,0.22671,0.18774
2025-11-22T17:45:02.644231,0.13783,-0.09971,-9.38078,0.32916,0.21277,0.17429
2025-11-22T17:45:02.653846,0.12639,-0.07766,-9.35117,0.33829,0.36530,0.15219
2025-11-22T17:45:02.663462,0.13262,-0.14101,-9.46399,0.24851,0.19426,0.19804
2025-11-22T17:45:02.673077,0.13860,-0.11460,-9.35073,0.38899,0.27446,0.21604
2025-11-22T17:45:02.682692,0.17494,-0.16300,-9.42232,0.22699,0.25552,0.14454
2025-11-22T17:45:02.692308,0.09903,-0.18706,-9.31388,0.25774,0.22494,0.10825
2025-11-22T17:45:02.701923,0.15381,-0.17783,-9.35658,0.26391,0.10799,0.23658
2025-11-22T17:45:02.711538,0.12175,-0.09786,-9.31663,0.04343,0.22580,0.18915
2025-11-22T17:45:02.721154,0.13343,-0.12158,-9.34718,0.07362,0.25465,0.20025
2025-11-22T17:45:02.730769,0.13229,-0.14532,-9.48244,0.10624,0.42411,0.14913
2025-11-22T17:45:02.740385,0.10063,-0.11047,-9.30868,0.22051,0.32276,0.20819
2025-11-22T17:45:02.75,0.04791,-0.14087,-9.25923,0.26514,0.27249,0.22826
2025-11-22T17:45:02.759615,0.06782,-0.18288,-9.32590,0.13904,0.24478,0.02843
2025-11-22T17:45:02.769231,0.07044,-0.08881,-9.30472,0.25600,0.32983,0.20428
2025-11-22T17:45:02.778846,0.08174,-0.14979,-9.28239,0.13759,0.34403,0.27092
2025-11-22T17:45:02.788462,0.11254,-0.12722,-9.29595,-0.01703,0.35572,0.04433
2025-11-22T17:45:02.798077,0.09948,-0.21189,-9.37053,0.15998,0.32077,0.12669
2025-11-22T17:45:02.807692,0.08914,-0.13656,-9.24760,0.23711,0.31310,0.04435
2025-11-22T17:45:02.817308,0.02956,-0.18810,-9.32181,0.23042,0.38184,0.17536
2025-11-22T17:45:02.826923,0.05908,-0.23073,-9.39451,0.12743,0.35472,0.19881
2025-11-22T17:45:02.836538,0.01766,-0.19945,-9.25966,0.28574,0.43802,0.18975
2025-11-22T17:45:02.846154,0.06567,-0.23118,-9.29464,0.09198,0.44797,0.11137
2025-11-22T17:45:02.855769,0.01540,-0.18701,-9.28663,0.07232,0.39353,0.04767
2025-11-22T17:45:02.865385,0.01229,-0.25439,-9.24898,0.16151,0.33649,0.02136
2025-11-22T17:45:02.875,0.03428,-0.22661,-9.34105,0.04333,0.32792,0.08219
2025-11-22T17:45:02.884615,0.04871,-0.18070,-9.31912,0.00500,0.22623,0.12383
2025-11-22T17:45:02.894231,-0.00249,-0.22858,-9.20719,-0.06225,0.24115,0.15959
2025-11-22T17:45:02.903846,-0.01111,-0.16823,-9.40458,-0.08202,0.32257,0.17629
2025-11-22T17:45:02.913462,0.03613,-0.10871,-9.31986,0.03840,0.46962,0.01732
2025-11-22T17:45:02.923077,-0.00054,-0.20255,-9.34224,-0.03791,0.36096,0.13775
2025-11-22T17:45:02.932692,0.00779,-0.23132,-9.26119,0.07961,0.52309,0.06364
2025-11-22T17:45:02.942308,0.00952,-0.21323,-9.32270,0.05151,0.28182,0.05633
2025-11-22T17:45:02.951923,-0.03888,-0.26465,-9.40324,-0.08312,0.24643,0.06347
2025-11-22T17:45:02.961538,-0.04962,-0.20746,-9.24667,0.04283,0.33777,0.04244
2025-11-22T17:45:02.971154,-0.01450,-0.22480,-9.31686,-0.15421,0.34945,0.09784
2025-11-22T17:45:02.980769,-0.06406,-0.17821,-9.32687,-0.02744,0.32430,0.05929
2025-11-22T17:45:02.990385,-0.04323,-0.15246,-9.36704,0.02484,0.27634,0.10262
2025-11-22T17:45:03,-0.11444,-0.20494,-9.27772,0.00166,0.34417,0.09265
2025-11-22T17:45:03.009615,-0.02652,-0.11986,-9.32920,0.01812,0.30203,0.00624
2025-11-22T17:45:03.019231,-0.03534,-0.17326,-9.38477,-0.05257,0.42053,0.05815
2025-11-22T17:45:03.028846,-0.01133,-0.18401,-9.45422,0.07119,0.36397,0.02095
2025-11-22T17:45:03.038462,-0.08630,-0.12656,-9.34630,-0.05207,0.32230,0.00976
2025-11-22T17:45:03.048077,-0.12387,-0.14473,-9.35149,-0.04333,0.33628,-0.00347
2025-11-22T17:45:03.057692,-0.09491,-0.17837,-9.29209,-0.20602,0.33808,-0.07735
2025-11-22T17:45:03.067308,-0.14784,-0.14672,-9.42262,-0.23900,0.35694,0.07242
2025-11-22T17:45:03.076923,-0.08882,-0.10533,-9.33039,-0.02004,0.22708,0.00481
2025-11-22T17:45:03.086538,-0.08093,-0.06350,-9.39381,-0.00344,0.30035,-0.01482
2025-11-22T17:45:03.096154,-0.12863,-0.09954,-9.36886,-0.18298,0.34961,-0.02138
2025-11-22T17:45:03.105769,-0.07449,-0.14246,-9.37902,-0.09881,0.31960,-0.06455
2025-11-22T17:45:03.115385,-0.08742,-0.20548,-9.50306,-0.04050,0.28981,-0.12438
2025-11-22T17:45:03.125,-0.07085,-0.13986,-9.46444,-0.05113,0.20048,-0.08410
2025-11-22T17:45:03.134615,-0.15737,-0.19809,-9.44658,-0.18219,0.22920,-0.13302
2025-11-22T17:45:03.144231,-0.09366,-0.15705,-9.41829,-0.19403,0.20197,0.03103
2025-11-22T17:45:03.153846,-0.13024,-0.06675,-9.44156,-0.20922,0.23974,-0.04694
2025-11-22T17:45:03.163462,-0.12929,-0.06978,-9.46850,-0.18081,0.22044,-0.02377
2025-11-22T17:45:03.173077,-0.13583,-0.14851,-9.59098,-0.06199,0.21698,0.01957
2025-11-22T17:45:03.182692,-0.06501,-0.14622,-9.65257,-0.07852,0.16238,-0.06888
2025-11-22T17:45:03.192308,-0.16876,-0.10518,-9.54997,-0.24424,0.16339,-0.09053
2025-11-22T17:45:03.201923,-0.13999,-0.10787,-9.60104,-0.17991,0.15846,-0.04383
2025-11-22T17:45:03.211538,-0.13216,-0.09525,-9.58443,-0.07354,0.23177,-0.17219
2025-11-22T17:45:03.221154,-0.15638,-0.03949,-9.65264,-0.29152,0.19769,-0.17639
2025-11-22T17:45:03.230769,-0.20988,-0.12402,-9.68535,-0.19612,0.15371,-0.02355
2025-11-22T17:45:03.240385,-0.15091,-0.05052,-9.69263,-0.13559,0.09282,-0.05657
2025-11-22T17:45:03.25,-0.16310,-0.04355,-9.80854,-0.17810,0.15396,-0.10560
2025-11-22T17:45:03.259615,-0.19440,-0.05842,-9.67816,-0.19463,0.16433,-0.05572
2025-11-22T17:45:03.269231,-0.12371,-0.11526,-9.68875,-0.24682,0.11804,-0.15742
2025-11-22T17:45:03.278846,-0.20238,-0.08569,-9.77913,-0.08783,0.10251,-0.11784
2025-11-22T17:45:03.288462,-0.17338,0.06648,-9.66082,-0.27111,0.17100,-0.16239
2025-11-22T17:45:03.298077,-0.13323,0.01712,-9.77037,-0.22547,0.16886,-0.10536
2025-11-22T17:45:03.307692,-0.16615,0.02562,-9.82327,-0.17122,0.13022,-0.09141
2025-11-22T17:45:03.317308,-0.21943,-0.03163,-9.73549,-0.25574,0.04900,-0.22384
2025-11-22T17:45:03.326923,-0.14902,0.03572,-9.76769,-0.23651,0.07663,-0.15787
2025-11-22T17:45:03.336538,-0.18704,0.02297,-9.86364,-0.11543,0.03228,-0.11501
2025-11-22T17:45:03.346154,-0.17113,0.01215,-9.83249,-0.26219,0.03752,-0.06951
2025-11-22T17:45:03.355769,-0.19011,0.06314,-9.81243,-0.18340,0.04136,-0.11809
2025-11-22T17:45:03.365385,-0.14601,0.06152,-9.91181,-0.28306,0.05737,-0.06358
2025-11-22T17:45:03.375,-0.21670,0.00861,-9.89737,-0.25288,0.00277,-0.15250
2025-11-22T17:45:03.384615,-0.15215,0.07154,-9.85335,-0.33130,0.05143,-0.12188
2025-11-22T17:45:03.394231,-0.17899,0.12255,-9.81555,-0.33970,0.19547,-0.20409
2025-11-22T17:45:03.403846,-0.20515,0.07602,-9.93332,-0.18387,0.02744,-0.10101
2025-11-22T17:45:03.413462,-0.14200,0.08692,-9.90739,-0.26841,-0.07144,-0.19155
2025-11-22T17:45:03.423077,-0.14503,0.06489,-9.88833,-0.12504,0.00924,-0.20643
2025-11-22T17:45:03.432692,-0.16977,0.06487,-10.02011,-0.32233,0.02702,-0.20651
2025-11-22T17:45:03.442308,-0.21036,0.10618,-9.91473,-0.21344,0.01335,-0.26136
2025-11-22T17:45:03.451923,-0.22840,0.09772,-10.11873,-0.30869,-0.07367,-0.21242
2025-11-22T17:45:03.461538,-0.14347,0.13036,-9.96473,-0.21419,-0.02411,-0.14678
2025-11-22T17:45:03.471154,-0.17882,0.07472,-10.01567,-0.21831,-0.10097,-0.20681
2025-11-22T17:45:03.480769,-0.16489,0.08000,-10.01107,-0.24838,-0.16211,-0.12380
2025-11-22T17:45:03.490385,-0.16424,0.16724,-10.06499,-0.29026,-0.03459,-0.20010
2025-11-22T17:45:03.5,-0.23060,0.14276,-9.98301,-0.09294,0.04660,-0.22766
2025-11-22T17:45:03.509615,-0.15473,0.08440,-10.12644,-0.24729,-0.02745,-0.13729
2025-11-22T17:45:03.519231,-0.16855,0.11223,-10.06443,-0.11394,-0.02505,-0.21557
2025-11-22T17:45:03.528846,-0.11414,0.13268,-10.15885,-0.07766,-0.01896,-0.17690
2025-11-22T17:45:03.538462,-0.14741,0.21928,-10.11328,-0.13783,-0.03405,-0.23674
2025-11-22T17:45:03.548077,-0.16136,0.06107,-10.25358,-0.25570,-0.08694,-0.17254
2025-11-22T17:45:03.557692,-0.18672,0.16693,-10.14439,-0.23154,-0.13022,-0.25803
2025-11-22T17:45:03.567308,-0.08470,0.17292,-10.12030,-0.17909,-0.14226,-0.20687
2025-11-22T17:45:03.576923,-0.16601,0.17528,-10.21394,-0.00953,-0.15413,-0.09988
2025-11-22T17:45:03.586538,-0.17884,0.16832,-10.18428,-0.05443,-0.13987,-0.10726
2025-11-22T17:45:03.596154,-0.13754,0.28759,-10.23008,-0.21386,-0.24748,-0.05903
2025-11-22T17:45:03.605769,-0.09474,0.22512,-10.11811,-0.26311,-0.18854,-0.19768
2025-11-22T17:45:03.615385,-0.13663,0.23268,-10.10864,-0.17387,-0.20643,-0.16744
2025-11-22T17:45:03.625,-0.14363,0.25070,-10.21751,-0.28647,-0.26951,-0.09697
2025-11-22T17:45:03.634615,-0.12588,0.21410,-10.20905,-0.23245,-0.24917,-0.15689
2025-11-22T17:45:03.644231,-0.15360,0.23284,-10.20024,-0.09715,-0.18692,-0.17368
2025-11-22T17:45:03.653846,-0.07476,0.21862,-10.30785,-0.15939,-0.18874,-0.18575
2025-11-22T17:45:03.663462,-0.08161,0.28496,-10.22168,-0.18388,-0.27196,-0.16891
2025-11-22T17:45:03.673077,-0.11716,0.21350,-10.31274,-0.13399,-0.13190,-0.15306
2025-11-22T17:45:03.682692,-0.10813,0.23692,-10.27354,-0.07468,-0.07447,-0.20304
2025-11-22T17:45:03.692308,-0.14199,0.27167,-10.22974,-0.15829,-0.22568,-0.24466
2025-11-22T17:45:03.701923,-0.10418,0.20038,-10.28795,-0.12786,-0.26298,-0.11890
2025-11-22T17:45:03.711538,-0.08082,0.28721,-10.24335,-0.13073,-0.16912,-0.19241
2025-11-22T17:45:03.721154,-0.04076,0.22567,-10.20996,-0.03556,-0.31033,-0.17652
2025-11-22T17:45:03.730769,-0.07782,0.25702,-10.27759,-0.06040,-0.33397,-0.18814
2025-11-22T17:45:03.740385,-0.02224,0.28951,-10.30555,-0.00979,-0.29406,-0.15210
2025-11-22T17:45:03.75,-0.05566,0.26863,-10.28946,-0.01647,-0.23410,-0.11344
2025-11-22T17:45:03.759615,-0.08234,0.27868,-10.29386,-0.09398,-0.25090,-0.16917
2025-11-22T17:45:03.769231,-0.01742,0.30898,-10.30337,0.09861,-0.27095,0.01700
2025-11-22T17:45:03.778846,-0.06210,0.28350,-10.29093,-0.03968,-0.13624,-0.11913
2025-11-22T17:45:03.788462,-0.03235,0.26528,-10.36509,-0.07827,-0.07623,-0.14064
2025-11-22T17:45:03.798077,-0.04114,0.29433,-10.30843,0.03129,-0.31077,-0.10673
2025-11-22T17:45:03.807692,-0.06177,0.22653,-10.28395,0.04001,-0.19936,-0.11797
2025-11-22T17:45:03.817308,-0.00297,0.28253,-10.30631,0.02633,-0.33866,-0.19093
2025-11-22T17:45:03.826923,-0.00275,0.22189,-10.38673,-0.04294,-0.29614,-0.18013
2025-11-22T17:45:03.836538,-0.01544,0.23032,-10.34299,0.08975,-0.36354,-0.11827
2025-11-22T17:45:03.846154,-0.02979,0.32480,-10.35154,0.10095,-0.24341,-0.12093
2025-11-22T17:45:03.855769,0.02351,0.25682,-10.33272,0.02732,-0.22489,-0.15081
2025-11-22T17:45:03.865385,-0.04116,0.32736,-10.22114,0.10974,-0.17477,-0.09097
2025-11-22T17:45:03.875,0.01147,0.25541,-10.37616,0.04319,-0.23177,-0.16350
2025-11-22T17:45:03.884615,-0.02298,0.31371,-10.35177,0.09375,-0.19799,-0.04935
2025-11-22T17:45:03.894231,0.04815,0.24442,-10.31119,0.08156,-0.24051,-0.06507
2025-11-22T17:45:03.903846,0.04635,0.28535,-10.26286,0.06826,-0.37224,-0.02906
2025-11-22T17:45:03.913462,0.00618,0.34286,-10.35986,0.05563,-0.26549,-0.12738
2025-11-22T17:45:03.923077,0.01629,0.29185,-10.44874,0.08435,-0.29381,-0.10905
2025-11-22T17:45:03.932692,0.03106,0.25969,-10.40189,0.01560,-0.20323,-0.16894
2025-11-22T17:45:03.942308,0.09403,0.30404,-10.32825,0.19386,-0.32070,-0.00827
2025-11-22T17:45:03.951923,0.03484,0.23047,-10.30514,0.12959,-0.30161,-0.02629
2025-11-22T17:45:03.961538,0.06555,0.26727,-10.30981,0.12835,-0.22631,0.05388
2025-11-22T17:45:03.971154,0.15015,0.28823,-10.25653,0.17451,-0.33306,-0.06662
2025-11-22T17:45:03.980769,0.05743,0.27080,-10.21900,0.19304,-0.27111,-0.07312
2025-11-22T17:45:03.990385,0.01957,0.25023,-10.25729,0.19444,-0.19320,-0.02061
2025-11-22T17:45:04,0.05258,0.24958,-10.25640,0.14470,-0.38577,-0.04986
2025-11-22T17:45:04.009615,0.07037,0.27662,-10.30269,0.04026,-0.27480,0.01305
2025-11-22T17:45:04.019231,0.03863,0.24469,-10.22691,0.17363,-0.20909,-0.06619
2025-11-22T17:45:04.028846,0.11229,0.21845,-10.24762,-0.02120,-0.28654,-0.04175
2025-11-22T17:45:04.038462,0.09059,0.15681,-10.20984,0.10982,-0.20501,-0.07483
2025-11-22T17:45:04.048077,0.10604,0.24848,-10.22326,0.07388,-0.33816,-0.03515
2025-11-22T17:45:04.057692,0.12028,0.22845,-10.24830,0.16842,-0.21449,0.01504
2025-11-22T17:45:04.067308,0.10382,0.25262,-10.19042,0.15918,-0.33409,-0.02201
2025-11-22T17:45:04.076923,0.08655,0.18947,-10.14893,0.24249,-0.28405,-0.00478
2025-11-22T17:45:04.086538,0.12670,0.25996,-10.20232,0.28008,-0.32182,-0.04949
2025-11-22T17:45:04.096154,0.10793,0.28926,-10.13025,0.20950,-0.36414,-0.08361
2025-11-22T17:45:04.105769,0.08985,0.22031,-10.13711,0.28416,-0.19549,0.08352
2025-11-22T17:45:04.115385,0.15894,0.17368,-9.98981,0.24987,-0.17278,0.05288
2025-11-22T17:45:04.125,0.08274,0.26393,-10.13496,0.23649,-0.28321,0.05742
2025-11-22T17:45:04.134615,0.12613,0.27962,-10.00594,0.23746,-0.18324,0.01686
2025-11-22T17:45:04.144231,0.12566,0.23645,-10.11884,0.23659,-0.29231,0.07510
2025-11-22T17:45:04.153846,0.18568,0.15801,-10.06675,0.17807,-0.19131,0.08280
2025-11-22T17:45:04.163462,0.10577,0.13102,-10.04042,0.39323,-0.07359,-0.04638
2025-11-22T17:45:04.173077,0.10214,0.16843,-9.99642,0.29177,-0.25406,0.08312
2025-11-22T17:45:04.182692,0.18578,0.17546,-10.06215,0.31978,-0.08752,0.12217
2025-11-22T17:45:04.192308,0.17664,0.17939,-10.01855,0.24501,-0.23382,0.01291
2025-11-22T17:45:04.201923,0.20076,0.16104,-9.95850,0.34107,-0.15824,0.09433
2025-11-22T17:45:04.211538,0.17935,0.10892,-9.98608,0.38458,-0.14770,0.09081
2025-11-22T17:45:04.221154,0.17821,0.09452,-10.01078,0.34801,-0.10291,0.05695
2025-11-22T17:45:04.230769,0.16573,0.17018,-10.00107,0.27883,-0.14251,-0.00345
2025-11-22T17:45:04.240385,0.17922,0.08452,-10.02680,0.27124,-0.00404,0.07005
2025-11-22T17:45:04.25,0.18400,0.07750,-9.88788,0.25852,-0.04550,0.04215
2025-11-22T17:45:04.259615,0.16728,0.14050,-9.93296,0.23920,0.01395,0.13866
2025-11-22T17:45:04.269231,0.15151,0.07025,-9.85275,0.16780,-0.02600,0.07684
2025-11-22T17:45:04.278846,0.19297,0.07783,-9.85329,0.29727,-0.17119,0.08413
2025-11-22T17:45:04.288462,0.19865,0.05646,-9.84933,0.35092,-0.02479,0.13491
2025-11-22T17:45:04.298077,0.17723,0.07288,-9.95339,0.31695,-0.05485,0.12647
2025-11-22T17:45:04.307692,0.24151,0.09345,-9.84619,0.31641,0.08215,0.05023
2025-11-22T17:45:04.317308,0.16461,0.08138,-9.76034,0.42224,-0.02095,0.08529
2025-11-22T17:45:04.326923,0.16489,0.00538,-9.74249,0.36511,0.12474,0.03722
2025-11-22T17:45:04.336538,0.20705,0.00345,-9.72350,0.35335,-0.03939,0.14142
2025-11-22T17:45:04.346154,0.16965,-0.01179,-9.73845,0.38244,-0.07790,0.12892
2025-11-22T17:45:04.355769,0.16527,0.01993,-9.71361,0.29509,0.12059,0.11604
2025-11-22T17:45:04.365385,0.20340,0.07727,-9.69141,0.25417,-0.02201,0.10725
2025-11-22T17:45:04.375,0.22481,0.05062,-9.80303,0.19106,0.11128,0.11328
2025-11-22T17:45:04.384615,0.14048,0.09098,-9.74024,0.39557,0.00619,0.19111
2025-11-22T17:45:04.394231,0.20630,0.05192,-9.68815,0.28322,0.14446,0.07601
2025-11-22T17:45:04.403846,0.19658,0.00275,-9.67486,0.28717,-0.09258,0.12341
2025-11-22T17:45:04.413462,0.18824,0.03241,-9.64944,0.33794,-0.10938,0.05634
2025-11-22T17:45:04.423077,0.20194,-0.02160,-9.65708,0.25296,0.07291,0.13255
2025-11-22T17:45:04.432692,0.19098,-0.04961,-9.62513,0.47998,0.13576,0.16282
2025-11-22T17:45:04.442308,0.14246,0.04326,-9.67158,0.24582,0.03725,0.07486
2025-11-22T17:45:04.451923,0.15442,-0.04460,-9.65690,0.32977,0.04012,0.11996
2025-11-22T17:45:04.461538,0.17171,-0.00300,-9.57035,0.28114,0.06948,0.09059
2025-11-22T17:45:04.471154,0.19215,-0.01042,-9.57582,0.29272,0.11997,0.17709
2025-11-22T17:45:04.480769,0.21901,-0.02625,-9.54455,0.30707,0.09582,0.09408
2025-11-22T17:45:04.490385,0.16462,-0.03924,-9.58498,0.25082,0.19385,0.09761
2025-11-22T17:45:04.5,0.15146,-0.11704,-9.51781,0.47843,0.06720,0.04817
2025-11-22T17:45:04.509615,0.21135,-0.06653,-9.56794,0.26728,0.15294,0.12027
2025-11-22T17:45:04.519231,0.16608,-0.11260,-9.50369,0.15176,0.07573,0.16960
2025-11-22T17:45:04.528846,0.16638,-0.02132,-9.46474,0.30499,0.17856,0.16901
2025-11-22T17:45:04.538462,0.17873,-0.05257,-9.44414,0.20496,0.05688,0.15421
2025-11-22T17:45:04.548077,0.17503,-0.15472,-9.53389,0.36170,0.25464,0.07003
2025-11-22T17:45:04.557692,0.21474,-0.10645,-9.49871,0.37190,0.10712,0.16639
2025-11-22T17:45:04.567308,0.17730,-0.15912,-9.51615,0.31847,0.13618,0.11366
2025-11-22T17:45:04.576923,0.16502,-0.05933,-9.58345,0.19759,0.15700,0.12388
2025-11-22T17:45:04.586538,0.14400,-0.12551,-9.45358,0.33215,0.10066,0.12476
2025-11-22T17:45:04.596154,0.14118,-0.07176,-9.36913,0.24305,0.14306,0.11040
2025-11-22T17:45:04.605769,0.15404,-0.10625,-9.47673,0.17541,0.31360,0.11679
2025-11-22T17:45:04.615385,0.15239,-0.09797,-9.41743,0.21631,0.15729,0.05525
2025-11-22T17:45:04.625,0.19615,-0.12296,-9.51763,0.22738,0.36637,0.16629
2025-11-22T17:45:04.634615,0.11498,-0.18573,-9.40907,0.23558,0.04883,0.06398
2025-11-22T17:45:04.644231,0.14559,-0.18520,-9.34702,0.14139,0.29999,0.03399
2025-11-22T17:45:04.653846,0.18007,-0.12892,-9.34600,0.22043,0.11810,0.09350
2025-11-22T17:45:04.663462,0.13850,-0.19120,-9.34995,0.12291,0.21547,0.09169
2025-11-22T17:45:04.673077,0.15974,-0.18112,-9.35526,0.14008,0.17038,0.10102
2025-11-22T17:45:04.682692,0.07638,-0.24895,-9.40339,0.24729,0.09186,0.04361
2025-11-22T17:45:04.692308,0.12445,-0.13398,-9.31033,0.09130,0.19182,0.02888
2025-11-22T17:45:04.701923,0.07934,-0.20545,-9.41154,0.28694,0.38163,0.08368
2025-11-22T17:45:04.711538,0.09932,-0.18049,-9.36291,0.20206,0.24360,0.12119
2025-11-22T17:45:04.721154,0.12242,-0.17118,-9.27994,0.23608,0.12010,0.03079
2025-11-22T17:45:04.730769,0.12083,-0.16131,-9.26381,0.20266,0.23773,0.15986
2025-11-22T17:45:04.740385,0.13824,-0.17427,-9.32878,0.11030,0.27564,0.15899
2025-11-22T17:45:04.75,0.03032,-0.18444,-9.31076,0.11203,0.39641,0.09101
2025-11-22T17:45:04.759615,0.11460,-0.26552,-9.34233,0.22565,0.18842,0.04996
2025-11-22T17:45:04.769231,0.09593,-0.20663,-9.31230,0.09436,0.16553,0.03617
2025-11-22T17:45:04.778846,0.02893,-0.18249,-9.28498,0.26349,0.19090,0.10011
2025-11-22T17:45:04.788462,0.09354,-0.16292,-9.27713,0.12026,0.21498,0.01374
2025-11-22T17:45:04.798077,0.03281,-0.17882,-9.23085,0.06826,0.26197,0.02716
2025-11-22T17:45:04.807692,0.07987,-0.22589,-9.23770,0.10825,0.19857,0.01287
2025-11-22T17:45:04.817308,0.06525,-0.11132,-9.21479,0.09751,0.22350,0.09560
2025-11-22T17:45:04.826923,0.06310,-0.19257,-9.25033,0.23319,0.25924,0.06298
2025-11-22T17:45:04.836538,0.03780,-0.20440,-9.27372,0.13144,0.15362,-0.01205
2025-11-22T17:45:04.846154,0.02326,-0.18082,-9.29114,0.11336,0.16399,0.03838
2025-11-22T17:45:04.855769,0.01596,-0.20117,-9.17237,0.09187,0.20207,0.04908
2025-11-22T17:45:04.865385,0.03185,-0.26661,-9.33046,0.07611,0.23972,0.02572
2025-11-22T17:45:04.875,0.05456,-0.21390,-9.26279,0.04212,0.29184,0.06901
2025-11-22T17:45:04.884615,0.04062,-0.21474,-9.27132,0.14793,0.20644,0.01494
2025-11-22T17:45:04.894231,-0.00670,-0.21449,-9.28948,-0.08812,0.23681,0.03459
2025-11-22T17:45:04.903846,-0.02339,-0.24499,-9.41700,0.02675,0.22438,0.01300
2025-11-22T17:45:04.913462,0.01047,-0.22717,-9.23709,0.05251,0.19449,-0.05132
2025-11-22T17:45:04.923077,0.07150,-0.21003,-9.32906,-0.03555,0.28990,-0.05778
2025-11-22T17:45:04.932692,0.01136,-0.22125,-9.26533,0.05288,0.19610,0.11889
2025-11-22T17:45:04.942308,-0.07921,-0.16120,-9.22330,0.03655,0.28878,0.05018
2025-11-22T17:45:04.951923,-0.03582,-0.23622,-9.24394,0.09626,0.19913,-0.01858
2025-11-22T17:45:04.961538,-0.04645,-0.19704,-9.26687,0.01547,0.31800,-0.00130
2025-11-22T17:45:04.971154,0.00919,-0.24122,-9.29101,0.01031,0.17213,-0.02074
2025-11-22T17:45:04.980769,-0.05644,-0.19743,-9.32047,0.25079,0.26412,-0.01355
2025-11-22T17:45:04.990385,-0.02816,-0.12878,-9.32400,-0.11858,0.21460,0.07396
2025-11-22T17:45:05,-0.05633,-0.22968,-9.30552,0.09023,0.31395,0.01977
2025-11-22T17:45:05.009615,-0.02452,-0.25968,-9.34059,0.01171,0.15843,-0.05852
2025-11-22T17:45:05.019231,-0.01339,-0.17998,-9.33171,-0.06789,0.16071,-0.03714
2025-11-22T17:45:05.028846,-0.11290,-0.23392,-9.28160,-0.01612,0.13391,0.10190
2025-11-22T17:45:05.038462,-0.04254,-0.21526,-9.38497,0.12092,0.30058,0.02090
2025-11-22T17:45:05.048077,-0.02078,-0.23218,-9.34152,-0.14822,0.08458,-0.00858
2025-11-22T17:45:05.057692,-0.04741,-0.11139,-9.29362,-0.05726,0.22497,0.01559
2025-11-22T17:45:05.067308,-0.06708,-0.18175,-9.34314,-0.05426,0.21270,0.03591
2025-11-22T17:45:05.076923,-0.02094,-0.20666,-9.29773,-0.01259,0.44666,-0.09699
2025-11-22T17:45:05.086538,-0.06495,-0.11047,-9.42064,0.00726,0.29549,-0.00641
2025-11-22T17:45:05.096154,-0.04427,-0.16161,-9.38565,-0.04569,0.20488,-0.01386
2025-11-22T17:45:05.105769,-0.11901,-0.21650,-9.45724,-0.11949,0.22206,-0.05149
2025-11-22T17:45:05.115385,-0.10835,-0.12076,-9.42741,-0.10242,0.23625,-0.14619
2025-11-22T17:45:05.125,-0.14573,-0.13136,-9.34796,-0.10307,0.21874,-0.00261
2025-11-22T17:45:05.134615,-0.11775,-0.19171,-9.47324,-0.05825,0.27506,-0.07195
2025-11-22T17:45:05.144231,-0.08970,-0.09525,-9.42360,-0.11423,0.24318,-0.07886
2025-11-22T17:45:05.153846,-0.06314,-0.26685,-9.41367,-0.12440,0.15624,0.01361
2025-11-22T17:45:05.163462,-0.11307,-0.14487,-9.48616,-0.20680,0.11965,-0.01102
2025-11-22T17:45:05.173077,-0.12068,-0.18381,-9.39094,-0.11437,0.14437,-0.02432
2025-11-22T17:45:05.182692,-0.11612,-0.15331,-9.47280,0.04078,0.19398,-0.20204
2025-11-22T17:45:05.192308,-0.11863,-0.13925,-9.49841,-0.11364,0.20828,-0.11420
2025-11-22T17:45:05.201923,-0.14482,-0.14073,-9.58315,-0.10600,0.09484,-0.11314
2025-11-22T17:45:05.211538,-0.10961,-0.21111,-9.42812,-0.20165,0.26186,-0.04381
2025-11-22T17:45:05.221154,-0.12533,-0.15453,-9.53030,-0.13965,0.00675,-0.04263
2025-11-22T17:45:05.230769,-0.14981,-0.11667,-9.58841,-0.28382,0.17244,-0.07653
2025-11-22T17:45:05.240385,-0.13336,-0.18480,-9.60723,-0.18218,0.19741,-0.12434
2025-11-22T17:45:05.25,-0.12838,-0.10778,-9.58666,-0.17491,-0.02041,-0.06143
2025-11-22T17:45:05.259615,-0.14588,-0.08691,-9.65837,-0.17785,0.04731,-0.02490
2025-11-22T17:45:05.269231,-0.18990,-0.11658,-9.61687,-0.23253,0.25712,-0.10140
2025-11-22T17:45:05.278846,-0.12542,-0.12135,-9.62016,-0.10016,0.00100,-0.04066
2025-11-22T17:45:05.288462,-0.18185,-0.13782,-9.67696,-0.12839,0.11363,-0.14715
2025-11-22T17:45:05.298077,-0.15344,-0.11419,-9.66613,-0.04044,0.09715,-0.06378
2025-11-22T17:45:05.307692,-0.15593,-0.15808,-9.57353,-0.16089,0.14900,-0.16817
2025-11-22T17:45:05.317308,-0.11935,-0.07225,-9.63979,-0.05889,0.17148,-0.09552
2025-11-22T17:45:05.326923,-0.18860,-0.05007,-9.66290,-0.25370,0.07105,-0.21164
2025-11-22T17:45:05.336538,-0.14456,-0.05845,-9.58940,-0.09926,0.04832,-0.09910
2025-11-22T17:45:05.346154,-0.15226,-0.15425,-9.70010,-0.23212,0.07864,-0.19689
2025-11-22T17:45:05.355769,-0.12195,-0.06193,-9.75017,-0.17994,-0.02896,-0.12562
2025-11-22T17:45:05.365385,-0.18422,-0.06715,-9.75408,-0.14961,0.08539,-0.15144
2025-11-22T17:45:05.375,-0.13745,-0.02909,-9.73948,-0.18815,0.22205,-0.19239
2025-11-22T17:45:05.384615,-0.11483,-0.00931,-9.78642,-0.13173,0.06370,-0.18005
2025-11-22T17:45:05.394231,-0.16317,-0.04057,-9.74461,-0.15290,0.04325,-0.18887
2025-11-22T17:45:05.403846,-0.15793,-0.04578,-9.69185,-0.23341,-0.01892,-0.20783
2025-11-22T17:45:05.413462,-0.18612,-0.11311,-9.78147,-0.20623,-0.07820,-0.10750
2025-11-22T17:45:05.423077,-0.19368,0.04303,-9.76968,-0.24268,-0.04482,-0.13385
2025-11-22T17:45:05.432692,-0.13525,-0.04498,-9.81625,-0.10604,0.06941,-0.17438
2025-11-22T17:45:05.442308,-0.20575,0.00372,-9.84134,-0.16823,0.07891,-0.22794
2025-11-22T17:45:05.451923,-0.19571,0.05428,-9.80261,-0.15362,0.12516,-0.24561
2025-11-22T17:45:05.461538,-0.20243,0.01508,-9.91693,-0.12589,0.06702,-0.15905
2025-11-22T17:45:05.471154,-0.15834,0.00995,-10.00981,-0.08739,-0.00405,-0.21553
2025-11-22T17:45:05.480769,-0.19610,0.02948,-9.79951,-0.06075,0.00499,-0.15328
2025-11-22T17:45:05.490385,-0.15617,-0.00817,-9.88603,-0.19019,0.00834,-0.17222
2025-11-22T17:45:05.5,-0.15616,0.04506,-9.92039,-0.05904,-0.01148,-0.15788
2025-11-22T17:45:05.509615,-0.20217,-0.06429,-9.95234,-0.12030,-0.06450,-0.14126
2025-11-22T17:45:05.519231,-0.18378,0.05796,-9.91633,-0.06789,-0.16572,-0.20569
2025-11-22T17:45:05.528846,-0.16730,0.03353,-9.91680,-0.11149,-0.07787,-0.16762
2025-11-22T17:45:05.538462,-0.15168,0.05297,-9.97028,-0.13243,-0.06719,-0.17592
2025-11-22T17:45:05.548077,-0.20751,0.03986,-9.97551,-0.03110,-0.09504,-0.21988
2025-11-22T17:45:05.557692,-0.25690,0.02294,-9.85651,-0.12798,-0.14918,-0.18975
2025-11-22T17:45:05.567308,-0.11646,0.08446,-10.03261,-0.11299,-0.12690,-0.24031
2025-11-22T17:45:05.576923,-0.19754,0.02764,-10.00237,-0.25065,-0.30429,-0.24174
2025-11-22T17:45:05.586538,-0.12395,0.05600,-9.98625,-0.16649,-0.09335,-0.23211
2025-11-22T17:45:05.596154,-0.16321,0.07684,-10.08963,-0.09408,-0.06659,-0.21346
2025-11-22T17:45:05.605769,-0.19301,0.09480,-10.08539,-0.22787,-0.21609,-0.20960
2025-11-22T17:45:05.615385,-0.08992,0.13305,-10.00090,-0.10414,0.02125,-0.23154
2025-11-22T17:45:05.625,-0.14725,0.10926,-10.06394,-0.06531,-0.08760,-0.15267
2025-11-22T17:45:05.634615,-0.11392,0.11276,-10.12029,-0.19911,-0.16559,-0.22841
2025-11-22T17:45:05.644231,-0.16643,0.09047,-10.04499,-0.13281,-0.10731,-0.23036
2025-11-22T17:45:05.653846,-0.13724,0.11582,-10.05742,-0.15037,-0.07604,-0.21785
2025-11-22T17:45:05.663462,-0.13500,0.14791,-10.10109,-0.17281,-0.19358,-0.16583
2025-11-22T17:45:05.673077,-0.12141,0.09483,-10.16199,-0.03123,-0.08179,-0.21129
2025-11-22T17:45:05.682692,-0.23490,0.09906,-10.14575,-0.16799,-0.13068,-0.13679
2025-11-22T17:45:05.692308,-0.14053,0.12734,-10.16119,-0.16060,0.00365,-0.30509
2025-11-22T17:45:05.701923,-0.17136,0.18141,-10.12267,-0.14056,-0.17743,-0.19836
2025-11-22T17:45:05.711538,-0.15112,0.16043,-10.13539,-0.22027,-0.23713,-0.27980
2025-11-22T17:45:05.721154,-0.12778,0.09799,-10.09328,-0.17360,-0.15682,-0.14918
2025-11-22T17:45:05.730769,-0.13494,0.27421,-10.17670,-0.01527,-0.08909,-0.17294
2025-11-22T17:45:05.740385,-0.18254,0.22859,-10.19075,-0.30987,-0.20212,-0.15800
2025-11-22T17:45:05.75,-0.16030,0.11686,-10.21305,-0.11868,-0.20736,-0.12861
2025-11-22T17:45:05.759615,-0.12987,0.11128,-10.28390,-0.11651,-0.04887,-0.16019
2025-11-22T17:45:05.769231,-0.10695,0.17405,-10.16910,-0.17535,-0.16750,-0.14595
2025-11-22T17:45:05.778846,-0.12514,0.20385,-10.23483,-0.04180,-0.22870,-0.25370
2025-11-22T17:45:05.788462,-0.13983,0.18364,-10.23843,-0.13324,-0.20182,-0.18821
2025-11-22T17:45:05.798077,-0.06315,0.18441,-10.22016,-0.19875,-0.23769,-0.21871
2025-11-22T17:45:05.807692,-0.09357,0.16820,-10.27894,-0.11550,-0.11884,-0.27837
2025-11-22T17:45:05.817308,-0.14559,0.16555,-10.34388,-0.14566,-0.35362,-0.23348
2025-11-22T17:45:05.826923,-0.10394,0.16159,-10.34651,-0.16990,-0.21936,-0.13781
2025-11-22T17:45:05.836538,-0.12821,0.20625,-10.29205,-0.10006,-0.07736,-0.26787
2025-11-22T17:45:05.846154,-0.14652,0.18296,-10.30841,-0.09736,-0.33518,-0.14849
2025-11-22T17:45:05.855769,-0.12506,0.21550,-10.33261,-0.10070,-0.07609,-0.17189
2025-11-22T17:45:05.865385,-0.13584,0.16728,-10.34508,-0.10415,-0.16449,-0.14610
2025-11-22T17:45:05.875,-0.10781,0.22920,-10.32953,-0.08811,-0.20229,-0.19073
2025-11-22T17:45:05.884615,-0.09296,0.26844,-10.27493,-0.16685,-0.31331,-0.21318
2025-11-22T17:45:05.894231,-0.06554,0.27430,-10.29198,-0.09081,-0.38477,-0.16611
2025-11-22T17:45:05.903846,-0.01692,0.27641,-10.27231,-0.12237,-0.27764,-0.17246
2025-11-22T17:45:05.913462,-0.06548,0.18582,-10.25560,-0.04324,-0.36534,-0.16830
2025-11-22T17:45:05.923077,-0.08235,0.26490,-10.30965,-0.13779,-0.34581,-0.10755
2025-11-22T17:45:05.932692,-0.02335,0.27635,-10.28808,-0.10482,-0.12786,-0.13476
2025-11-22T17:45:05.942308,-0.05647,0.16940,-10.29023,-0.10304,-0.22529,-0.18549
2025-11-22T17:45:05.951923,-0.06493,0.31385,-10.25860,-0.00670,-0.25503,-0.11498
2025-11-22T17:45:05.961538,-0.05831,0.16729,-10.27402,0.11784,-0.24956,-0.26116
2025-11-22T17:45:05.971154,-0.07174,0.26699,-10.31946,-0.05605,-0.30239,-0.14629
2025-11-22T17:45:05.980769,-0.05764,0.25713,-10.34280,-0.11598,-0.18931,-0.28715
2025-11-22T17:45:05.990385,-0.03902,0.26749,-10.27895,-0.06202,-0.21896,-0.13798
2025-11-22T17:45:06,-0.08240,0.26315,-10.31687,0.01203,-0.29599,-0.10393
2025-11-22T17:45:06.009615,-0.05190,0.22048,-10.31569,0.07306,-0.28660,-0.10374
2025-11-22T17:45:06.019231,-0.03846,0.23666,-10.37242,0.03255,-0.24722,-0.21974
2025-11-22T17:45:06.028846,-0.05090,0.26165,-10.29868,-0.08148,-0.36338,-0.05387
2025-11-22T17:45:06.038462,-0.05016,0.22993,-10.39709,0.07425,-0.31974,-0.08026
2025-11-22T17:45:06.048077,-0.03063,0.14603,-10.34313,0.00544,-0.20829,-0.22656
2025-11-22T17:45:06.057692,0.02404,0.24939,-10.28562,-0.08070,-0.21663,-0.16808
2025-11-22T17:45:06.067308,-0.00903,0.21890,-10.31642,-0.09936,-0.41582,-0.05814
2025-11-22T17:45:06.076923,-0.00497,0.29287,-10.31287,0.04252,-0.19050,-0.16049
2025-11-22T17:45:06.086538,-0.00873,0.23659,-10.32849,0.03946,-0.34066,-0.08104
2025-11-22T17:45:06.096154,-0.00508,0.26645,-10.43610,0.10432,-0.31463,-0.05727
2025-11-22T17:45:06.105769,0.06551,0.24084,-10.26590,0.04958,-0.23800,-0.11188
2025-11-22T17:45:06.115385,-0.01711,0.22606,-10.32027,0.03626,-0.21707,-0.04723
2025-11-22T17:45:06.125,-0.02637,0.33235,-10.30713,0.09016,-0.36017,-0.10959
2025-11-22T17:45:06.134615,0.05328,0.34300,-10.36654,-0.01014,-0.32724,-0.02626
2025-11-22T17:45:06.144231,0.02639,0.21712,-10.27122,0.03962,-0.28331,-0.07314
2025-11-22T17:45:06.153846,0.02987,0.28072,-10.22964,0.11197,-0.20806,-0.11057
2025-11-22T17:45:06.163462,0.03894,0.19098,-10.32433,0.06993,-0.29907,-0.02347
2025-11-22T17:45:06.173077,0.04593,0.24999,-10.35043,0.08128,-0.26135,-0.16288
2025-11-22T17:45:06.182692,0.05463,0.26391,-10.32807,0.11794,-0.27381,-0.23496
2025-11-22T17:45:06.192308,-0.00405,0.24855,-10.21487,0.03652,-0.25958,-0.15362
2025-11-22T17:45:06.201923,0.05195,0.29666,-10.25592,0.03307,-0.30359,-0.06060
2025-11-22T17:45:06.211538,0.05307,0.18161,-10.20277,0.11129,-0.32007,-0.11720
2025-11-22T17:45:06.221154,0.08924,0.32828,-10.24159,0.09698,-0.28525,-0.12701
2025-11-22T17:45:06.230769,0.12627,0.29281,-10.35901,0.06127,-0.30003,-0.08008
2025-11-22T17:45:06.240385,0.07837,0.19192,-10.25434,0.15545,-0.25138,-0.06749
2025-11-22T17:45:06.25,0.08613,0.24593,-10.23084,0.21554,-0.18364,-0.06634
2025-11-22T17:45:06.259615,0.06813,0.24061,-10.27658,0.05546,-0.33024,-0.14937
2025-11-22T17:45:06.269231,0.04859,0.21233,-10.31253,0.15179,-0.19297,-0.09119
2025-11-22T17:45:06.278846,0.06103,0.19423,-10.17874,0.19129,-0.20030,-0.01435
2025-11-22T17:45:06.288462,0.09801,0.26330,-10.21181,0.13695,-0.25918,-0.03919
2025-11-22T17:45:06.298077,0.04241,0.19842,-10.12130,0.09377,-0.25402,-0.09860
2025-11-22T17:45:06.307692,0.08813,0.25113,-10.25062,0.19680,-0.17705,0.00134
2025-11-22T17:45:06.317308,0.09042,0.25634,-10.19137,0.08421,-0.23859,0.02296
2025-11-22T17:45:06.326923,0.12448,0.16081,-10.17497,0.06249,-0.33301,-0.03335
2025-11-22T17:45:06.336538,0.11937,0.22906,-10.24006,0.14584,-0.33138,-0.14245
2025-11-22T17:45:06.346154,0.13411,0.24879,-10.21310,0.19823,-0.26906,-0.13156
2025-11-22T17:45:06.355769,0.09814,0.28002,-10.24953,0.18735,-0.28921,0.00914
2025-11-22T17:45:06.365385,0.08635,0.16683,-10.11778,0.28808,-0.18266,-0.07816
2025-11-22T17:45:06.375,0.12105,0.25227,-10.19188,0.16467,-0.16953,-0.01047
2025-11-22T17:45:06.384615,0.15085,0.23770,-10.06980,0.29731,-0.20000,-0.04296
2025-11-22T17:45:06.394231,0.09488,0.14484,-10.11118,0.16195,-0.20772,0.02914
2025-11-22T17:45:06.403846,0.06950,0.19238,-10.09123,0.07075,-0.24807,-0.06362
2025-11-22T17:45:06.413462,0.19113,0.14563,-10.08967,0.21990,-0.17137,0.00121
2025-11-22T17:45:06.423077,0.16647,0.13167,-10.06608,0.24633,-0.17265,0.04067
2025-11-22T17:45:06.432692,0.13991,0.08913,-10.09960,0.14008,-0.27387,0.05860
2025-11-22T17:45:06.442308,0.12212,0.17741,-10.03557,0.13188,-0.18721,0.03308
2025-11-22T17:45:06.451923,0.12891,0.15582,-10.09965,0.20222,-0.04819,-0.02377
2025-11-22T17:45:06.461538,0.12793,0.22930,-10.06359,0.32005,-0.12623,0.01049
2025-11-22T17:45:06.471154,0.14926,0.18806,-10.05368,0.17579,-0.19214,0.04743
2025-11-22T17:45:06.480769,0.12942,0.16273,-9.96568,0.28072,-0.25799,-0.01276
2025-11-22T17:45:06.490385,0.20001,0.08596,-10.11192,0.14496,-0.14595,0.03409
2025-11-22T17:45:06.5,0.17175,0.18513,-10.10794,0.28850,-0.18356,0.04219
2025-11-22T17:45:06.509615,0.16353,0.17950,-10.08776,0.20973,-0.23328,0.03342
2025-11-22T17:45:06.519231,0.14254,0.16547,-9.92906,0.09472,-0.10999,0.05855
2025-11-22T17:45:06.528846,0.18895,0.07544,-9.99453,0.20900,-0.09825,-0.01826
2025-11-22T17:45:06.538462,0.19284,0.20991,-10.04942,0.23586,-0.21983,0.06641
2025-11-22T17:45:06.548077,0.14687,0.11029,-9.94623,0.24952,-0.13957,-0.04867
2025-11-22T17:45:06.557692,0.20121,0.07991,-10.03078,0.21505,-0.04379,0.02819
2025-11-22T17:45:06.567308,0.22081,0.06185,-9.97515,0.25901,-0.25973,0.08614
2025-11-22T17:45:06.576923,0.18646,0.09137,-9.98018,0.21088,-0.19334,0.04893
2025-11-22T17:45:06.586538,0.18241,0.12953,-9.92998,0.18868,-0.08715,0.00747
2025-11-22T17:45:06.596154,0.14626,0.11265,-9.85883,0.15454,-0.06855,0.00228
2025-11-22T17:45:06.605769,0.19830,0.11371,-9.79573,0.17553,-0.17967,-0.00511
2025-11-22T17:45:06.615385,0.16912,0.05470,-9.83996,0.25064,-0.14784,0.06251
2025-11-22T17:45:06.625,0.16173,-0.01795,-9.92162,0.17507,-0.09571,-0.01229
2025-11-22T17:45:06.634615,0.18274,0.08263,-9.83489,0.22887,-0.20385,0.00590
2025-11-22T17:45:06.644231,0.18085,0.11714,-9.80231,0.15974,-0.04355,0.07078
2025-11-22T17:45:06.653846,0.17469,-0.00179,-9.80805,0.24481,-0.10202,0.03870
2025-11-22T17:45:06.663462,0.17900,0.05573,-9.80084,0.14946,-0.14371,-0.06817
2025-11-22T17:45:06.673077,0.18500,0.05836,-9.77647,0.14656,-0.08068,0.12754
2025-11-22T17:45:06.682692,0.19177,-0.00225,-9.75856,0.22023,-0.03188,0.01403
2025-11-22T17:45:06.692308,0.18955,0.05211,-9.81138,0.13760,0.04762,0.17172
2025-11-22T17:45:06.701923,0.15940,0.04713,-9.70330,0.14698,-0.06980,0.05859
2025-11-22T17:45:06.711538,0.13602,0.04601,-9.70209,0.22624,-0.02772,0.02654
2025-11-22T17:45:06.721154,0.19480,0.03517,-9.67123,0.15822,-0.08971,0.05957
2025-11-22T17:45:06.730769,0.17771,-0.02977,-9.73109,0.24392,0.01938,0.07269
2025-11-22T17:45:06.740385,0.17774,-0.02433,-9.70803,0.20852,0.07725,0.12144
2025-11-22T17:45:06.75,0.18070,-0.05174,-9.72142,0.23867,-0.01997,0.07904
2025-11-22T17:45:06.759615,0.16272,0.05114,-9.66027,0.20385,-0.03854,0.05160
2025-11-22T17:45:06.769231,0.25903,-0.00491,-9.65396,0.11268,-0.06000,0.11929
2025-11-22T17:45:06.778846,0.21192,-0.08915,-9.64172,0.36444,-0.16080,0.13487
2025-11-22T17:45:06.788462,0.18199,-0.11766,-9.64153,0.31006,0.00934,0.08913
2025-11-22T17:45:06.798077,0.20250,0.04078,-9.59586,0.08958,-0.11724,0.01852
2025-11-22T17:45:06.807692,0.19295,-0.09196,-9.60206,0.26995,-0.04465,0.05306
2025-11-22T17:45:06.817308,0.18068,-0.03352,-9.61065,0.24400,-0.01989,0.07680
2025-11-22T17:45:06.826923,0.18921,-0.05321,-9.65071,0.26245,-0.03539,0.08254
2025-11-22T17:45:06.836538,0.16897,-0.07155,-9.68955,0.25149,0.02452,0.10640
2025-11-22T17:45:06.846154,0.16646,-0.09166,-9.64593,0.10206,0.12041,0.13308
2025-11-22T17:45:06.855769,0.23114,-0.07612,-9.59881,0.32269,0.06402,0.17514
2025-11-22T17:45:06.865385,0.15731,-0.14130,-9.58852,0.30077,0.06456,0.06659
2025-11-22T17:45:06.875,0.20482,-0.05552,-9.55561,0.16332,0.08804,-0.09060
2025-11-22T17:45:06.884615,0.12787,-0.08769,-9.55383,0.18510,0.10455,0.08998
2025-11-22T17:45:06.894231,0.17223,0.04392,-9.53549,0.22943,-0.08311,0.03949
2025-11-22T17:45:06.903846,0.10551,-0.08718,-9.46429,0.21692,0.01768,-0.02603
2025-11-22T17:45:06.913462,0.11521,-0.04824,-9.48445,0.29132,0.08658,0.09976
2025-11-22T17:45:06.923077,0.11245,-0.15877,-9.54960,0.20098,0.07739,0.08342
2025-11-22T17:45:06.932692,0.13910,-0.09423,-9.54541,0.19482,0.07718,-0.10321
2025-11-22T17:45:06.942308,0.14558,-0.03166,-9.51077,0.21511,0.02495,0.14981
2025-11-22T17:45:06.951923,0.19766,-0.09029,-9.48667,0.28132,0.24107,0.08301
2025-11-22T17:45:06.961538,0.19888,-0.14253,-9.48858,0.09364,-0.01522,0.04111
2025-11-22T17:45:06.971154,0.17359,-0.15986,-9.50196,0.29509,0.15073,0.06820
2025-11-22T17:45:06.980769,0.12557,-0.11244,-9.34300,0.21074,0.02173,0.08705
2025-11-22T17:45:06.990385,0.17419,-0.08808,-9.46343,0.16739,0.01281,0.05870
2025-11-22T17:45:07,0.20763,-0.11875,-9.41071,0.25298,0.13813,0.04516
2025-11-22T17:45:07.009615,0.16166,-0.12828,-9.45010,0.09537,0.09836,0.05515
2025-11-22T17:45:07.019231,0.17503,-0.04527,-9.44235,0.14791,0.01437,0.07528
2025-11-22T17:45:07.028846,0.13831,-0.22994,-9.36850,0.12879,0.09344,-0.00705
2025-11-22T17:45:07.038462,0.14064,-0.13592,-9.33510,0.23108,0.16698,0.13596
2025-11-22T17:45:07.048077,0.16861,-0.11642,-9.36706,0.07495,0.04442,0.04922
2025-11-22T17:45:07.057692,0.16973,-0.11088,-9.33218,0.25807,0.03435,0.08634
2025-11-22T17:45:07.067308,0.12422,-0.11457,-9.36197,0.31177,0.12289,0.18379
2025-11-22T17:45:07.076923,0.09161,-0.12711,-9.40319,0.12201,0.20364,0.11845
2025-11-22T17:45:07.086538,0.12556,-0.17782,-9.33226,0.27276,0.14312,0.15836
2025-11-22T17:45:07.096154,0.14898,-0.11100,-9.26499,0.24375,0.12245,0.04780
2025-11-22T17:45:07.105769,0.13410,-0.16477,-9.35609,0.13430,0.11254,0.06436
2025-11-22T17:45:07.115385,0.11958,-0.22119,-9.31680,0.24944,0.24075,0.06667
2025-11-22T17:45:07.125,0.13069,-0.17754,-9.34393,0.15989,0.16174,0.04064
2025-11-22T17:45:07.134615,0.19297,-0.24171,-9.40426,0.07965,0.12586,0.09894
2025-11-22T17:45:07.144231,0.12427,-0.22455,-9.34818,0.14160,0.02509,-0.00518
2025-11-22T17:45:07.153846,0.11245,-0.17566,-9.42288,0.03546,0.18522,-0.08735
2025-11-22T17:45:07.163462,0.12703,-0.23879,-9.27361,0.36014,-0.01761,0.08499
2025-11-22T17:45:07.173077,0.09212,-0.20109,-9.36705,0.18640,0.04276,0.11088
2025-11-22T17:45:07.182692,0.14272,-0.21191,-9.22174,0.21342,0.09082,0.04309
2025-11-22T17:45:07.192308,0.10450,-0.20499,-9.32302,0.12049,0.24046,0.04601
2025-11-22T17:45:07.201923,0.07122,-0.27085,-9.34669,0.22498,0.13703,0.07948
2025-11-22T17:45:07.211538,0.07941,-0.23664,-9.29653,0.08141,0.00509,0.08875
2025-11-22T17:45:07.221154,0.05164,-0.27868,-9.29104,0.22503,0.17015,-0.02816
2025-11-22T17:45:07.230769,0.10289,-0.19802,-9.44844,0.14620,0.08776,-0.03182
2025-11-22T17:45:07.240385,0.02405,-0.19640,-9.25815,0.10723,0.09925,-0.01145
2025-11-22T17:45:07.25,0.10147,-0.23337,-9.29853,-0.01975,0.15160,0.06640
2025-11-22T17:45:07.259615,0.06844,-0.25458,-9.24869,-0.05851,0.18792,0.11484
2025-11-22T17:45:07.269231,0.05292,-0.25621,-9.30451,0.12952,0.10884,0.06986
2025-11-22T17:45:07.278846,0.01782,-0.28641,-9.24874,0.08305,0.22831,0.00337
2025-11-22T17:45:07.288462,0.03232,-0.25039,-9.34589,0.22224,0.16168,0.06031
2025-11-22T17:45:07.298077,0.04340,-0.19192,-9.31080,0.01777,0.18069,0.05102
2025-11-22T17:45:07.307692,0.06584,-0.20869,-9.34140,0.00698,0.09523,-0.04258
2025-11-22T17:45:07.317308,0.04498,-0.34255,-9.18022,0.00749,0.31592,-0.05053
2025-11-22T17:45:07.326923,0.04952,-0.28415,-9.33616,-0.03033,0.22779,0.05538
2025-11-22T17:45:07.336538,0.04126,-0.29282,-9.29904,0.02507,0.20687,0.06850
2025-11-22T17:45:07.346154,0.06068,-0.24404,-9.29855,0.00743,0.13605,0.10256
2025-11-22T17:45:07.355769,0.01887,-0.14535,-9.21737,0.00216,0.15687,0.00250
2025-11-22T17:45:07.365385,0.03590,-0.18590,-9.34887,-0.03073,0.14288,-0.01089
2025-11-22T17:45:07.375,0.04706,-0.25523,-9.29833,-0.05779,0.23200,0.03320
2025-11-22T17:45:07.384615,0.01046,-0.23840,-9.24051,-0.06350,0.22928,0.00530
2025-11-22T17:45:07.394231,0.00660,-0.18773,-9.20272,0.05988,0.31547,0.00182
2025-11-22T17:45:07.403846,-0.00877,-0.27306,-9.39109,0.12067,0.13348,-0.03849
2025-11-22T17:45:07.413462,0.05554,-0.16240,-9.37297,0.00134,0.10615,0.04858
2025-11-22T17:45:07.423077,0.00079,-0.26532,-9.21134,0.06002,0.22550,-0.13662
2025-11-22T17:45:07.432692,0.03437,-0.32007,-9.31011,-0.06680,0.29835,0.00648
2025-11-22T17:45:07.442308,-0.08765,-0.28942,-9.29526,0.07209,0.04254,-0.02728
2025-11-22T17:45:07.451923,-0.00657,-0.24310,-9.21426,-0.00763,0.16617,0.03201
2025-11-22T17:45:07.461538,-0.00149,-0.25418,-9.32591,-0.00564,0.23722,0.01444
2025-11-22T17:45:07.471154,0.02326,-0.27808,-9.29927,-0.01383,0.17296,-0.09736
2025-11-22T17:45:07.480769,0.00534,-0.26904,-9.34145,0.08023,0.24639,-0.00796
2025-11-22T17:45:07.490385,-0.02966,-0.26989,-9.26887,-0.05759,0.28012,-0.03678
2025-11-22T17:45:07.5,-0.03265,-0.25447,-9.31972,0.04917,0.12900,-0.02990
2025-11-22T17:45:07.509615,-0.04030,-0.16923,-9.33044,-0.03437,0.16257,-0.09205
2025-11-22T17:45:07.519231,-0.00715,-0.24179,-9.35147,0.06382,0.28216,0.03392
2025-11-22T17:45:07.528846,0.00929,-0.22959,-9.34549,0.02396,0.24303,-0.06007
2025-11-22T17:45:07.538462,-0.08380,-0.23741,-9.39294,-0.09944,0.13194,-0.01030
2025-11-22T17:45:07.548077,-0.05129,-0.28233,-9.32113,0.04437,0.16456,-0.04696
2025-11-22T17:45:07.557692,-0.04055,-0.11081,-9.35428,-0.04737,0.22080,0.04276
2025-11-22T17:45:07.567308,-0.04355,-0.13033,-9.32283,-0.12403,0.18702,-0.10623
2025-11-22T17:45:07.576923,-0.06198,-0.26573,-9.38731,0.05667,0.17298,-0.07285
2025-11-22T17:45:07.586538,-0.10548,-0.22504,-9.31723,-0.09070,0.27403,-0.08346
2025-11-22T17:45:07.596154,-0.04191,-0.14360,-9.46082,-0.07978,0.25088,-0.12264
2025-11-22T17:45:07.605769,-0.07294,-0.20337,-9.29138,0.07680,0.15617,-0.07961
2025-11-22T17:45:07.615385,-0.12006,-0.23326,-9.38120,-0.09880,0.17817,0.07253
2025-11-22T17:45:07.625,-0.05203,-0.21124,-9.32149,-0.05602,0.13916,-0.14759
2025-11-22T17:45:07.634615,-0.07464,-0.27287,-9.33801,-0.06935,0.13735,-0.10330
2025-11-22T17:45:07.644231,-0.11908,-0.16830,-9.39060,-0.09179,0.19713,-0.06337
2025-11-22T17:45:07.653846,-0.03085,-0.23637,-9.33827,-0.09239,0.20643,-0.02980
2025-11-22T17:45:07.663462,-0.06410,-0.13657,-9.43694,-0.08052,0.11091,-0.08653
2025-11-22T17:45:07.673077,-0.12798,-0.14314,-9.40090,0.06175,0.11355,-0.06558
2025-11-22T17:45:07.682692,-0.15624,-0.17723,-9.42428,-0.09438,0.11519,-0.11931
2025-11-22T17:45:07.692308,-0.09092,-0.11860,-9.37468,-0.19934,0.10230,-0.05617
2025-11-22T17:45:07.701923,-0.09791,-0.19884,-9.36192,-0.11527,0.21890,-0.14325
2025-11-22T17:45:07.711538,-0.08010,-0.23349,-9.46530,-0.19777,0.12165,-0.04070
2025-11-22T17:45:07.721154,-0.14959,-0.21780,-9.38763,-0.09941,0.06128,-0.10092
2025-11-22T17:45:07.730769,-0.07791,-0.19414,-9.39020,-0.11458,0.12595,-0.05575
2025-11-22T17:45:07.740385,-0.12316,-0.12549,-9.44587,-0.19060,0.21237,-0.10352
2025-11-22T17:45:07.75,-0.13068,-0.11979,-9.48660,-0.10012,0.18533,-0.03834
2025-11-22T17:45:07.759615,-0.10918,-0.17093,-9.45136,-0.12408,0.12141,-0.00948
2025-11-22T17:45:07.769231,-0.14383,-0.11534,-9.48313,-0.09877,0.09328,-0.08152
2025-11-22T17:45:07.778846,-0.12906,-0.15940,-9.55190,-0.06066,0.20267,-0.05214
2025-11-22T17:45:07.788462,-0.13324,-0.21551,-9.50962,-0.11671,0.29058,-0.03028
2025-11-22T17:45:07.798077,-0.13325,-0.20221,-9.64046,-0.19095,0.10220,-0.21090
2025-11-22T17:45:07.807692,-0.14713,-0.18444,-9.58097,-0.01206,0.14833,-0.13609
2025-11-22T17:45:07.817308,-0.16615,-0.18458,-9.52388,-0.16491,0.02173,-0.11267
2025-11-22T17:45:07.826923,-0.14670,-0.11485,-9.56248,0.01785,0.18224,-0.04047
2025-11-22T17:45:07.836538,-0.14288,-0.10632,-9.62375,-0.13334,0.04557,-0.09540
2025-11-22T17:45:07.846154,-0.13759,-0.14640,-9.70303,-0.24533,0.00679,-0.16179
2025-11-22T17:45:07.855769,-0.12018,-0.10634,-9.56402,-0.10333,0.09790,-0.06499
2025-11-22T17:45:07.865385,-0.11607,-0.22577,-9.64321,-0.16973,0.15998,-0.04368
2025-11-22T17:45:07.875,-0.19133,-0.17302,-9.65156,-0.17292,-0.03379,-0.09200
2025-11-22T17:45:07.884615,-0.17110,-0.12433,-9.65262,-0.03473,-0.12714,-0.17456
2025-11-22T17:45:07.894231,-0.16768,-0.12310,-9.69531,-0.15054,0.11114,-0.14071
2025-11-22T17:45:07.903846,-0.16190,-0.18294,-9.65076,-0.18869,0.15133,-0.10149
2025-11-22T17:45:07.913462,-0.17449,-0.15823,-9.72058,-0.07147,0.16296,-0.19056
2025-11-22T17:45:07.923077,-0.14736,-0.17408,-9.77702,-0.12674,-0.08184,-0.15756
2025-11-22T17:45:07.932692,-0.17068,-0.11343,-9.66626,-0.14287,0.00502,-0.13537
2025-11-22T17:45:07.942308,-0.14426,-0.04528,-9.75068,-0.20126,0.02952,-0.14642
2025-11-22T17:45:07.951923,-0.14268,-0.10111,-9.69978,-0.15060,0.09202,-0.20841
2025-11-22T17:45:07.961538,-0.15172,-0.10901,-9.86863,-0.24347,0.03296,-0.13990
2025-11-22T17:45:07.971154,-0.16914,-0.08011,-9.70022,-0.21052,0.02297,-0.19942
2025-11-22T17:45:07.980769,-0.19388,-0.07830,-9.74178,-0.18813,-0.00909,-0.17948
2025-11-22T17:45:07.990385,-0.18725,-0.12204,-9.77523,-0.18454,0.00131,-0.13860
2025-11-22T17:45:08,-0.15795,-0.07308,-9.81934,-0.24611,-0.02223,-0.14927
2025-11-22T17:45:08.009615,-0.20430,-0.12471,-9.76191,-0.20733,-0.04386,-0.20662
2025-11-22T17:45:08.019231,-0.18815,-0.06169,-9.76120,-0.30185,0.14784,-0.03135
2025-11-22T17:45:08.028846,-0.19825,-0.05843,-9.84761,-0.11919,-0.00233,-0.20067
2025-11-22T17:45:08.038462,-0.21273,-0.10844,-9.73895,-0.22179,-0.00869,-0.17654
2025-11-22T17:45:08.048077,-0.16027,-0.09806,-9.91969,-0.20546,-0.02249,-0.24422
2025-11-22T17:45:08.057692,-0.13322,0.04078,-9.87477,-0.14741,-0.09461,-0.12835
2025-11-22T17:45:08.067308,-0.18696,-0.04539,-9.89047,-0.11218,-0.06802,-0.07415
2025-11-22T17:45:08.076923,-0.20895,-0.02150,-9.91055,-0.20313,0.03837,-0.08722
2025-11-22T17:45:08.086538,-0.17300,-0.04744,-9.94741,-0.25963,-0.05305,-0.15098
2025-11-22T17:45:08.096154,-0.13303,0.03402,-9.93884,-0.27739,0.00507,-0.28053
2025-11-22T17:45:08.105769,-0.12347,-0.07462,-9.87538,-0.18677,-0.05499,-0.23429
2025-11-22T17:45:08.115385,-0.12466,0.04008,-9.96264,-0.25003,-0.13232,-0.09322
2025-11-22T17:45:08.125,-0.16217,0.01826,-9.95989,-0.13344,-0.04231,-0.18637
2025-11-22T17:45:08.134615,-0.20149,0.03434,-9.95928,-0.14529,-0.07769,-0.22933
2025-11-22T17:45:08.144231,-0.15055,0.00012,-9.98257,-0.08248,-0.07539,-0.20140
2025-11-22T17:45:08.153846,-0.12344,-0.03503,-9.95303,-0.03389,-0.05322,-0.18382
2025-11-22T17:45:08.163462,-0.19894,0.02236,-10.05198,-0.06942,0.02086,-0.17298
2025-11-22T17:45:08.173077,-0.18606,-0.01282,-10.08958,-0.22305,-0.16647,-0.20327
2025-11-22T17:45:08.182692,-0.16357,0.00767,-10.00935,-0.04270,-0.09368,-0.15356
2025-11-22T17:45:08.192308,-0.18762,0.08381,-10.02980,-0.13358,-0.02695,-0.19600
2025-11-22T17:45:08.201923,-0.14894,0.03134,-10.01709,-0.20787,-0.07503,-0.22765
2025-11-22T17:45:08.211538,-0.18737,0.04988,-10.03868,-0.21771,-0.09213,-0.22466
2025-11-22T17:45:08.221154,-0.16177,0.10406,-10.15505,-0.35254,-0.11563,-0.24371
2025-11-22T17:45:08.230769,-0.14105,0.01671,-10.04668,-0.17133,-0.06789,-0.20111
2025-11-22T17:45:08.240385,-0.11406,0.03564,-10.03997,-0.17526,-0.11966,-0.14378
2025-11-22T17:45:08.25,-0.25769,0.12314,-10.02592,-0.03761,-0.10242,-0.24023
2025-11-22T17:45:08.259615,-0.19446,0.14313,-9.98564,-0.13480,-0.10639,-0.24049
2025-11-22T17:45:08.269231,-0.17127,0.10132,-10.13694,-0.15645,-0.21100,-0.12146
2025-11-22T17:45:08.278846,-0.16690,0.08147,-10.17815,-0.11190,-0.17570,-0.20014
2025-11-22T17:45:08.288462,-0.21023,0.08248,-10.08751,-0.18983,-0.13444,-0.16764
2025-11-22T17:45:08.298077,-0.15823,0.13622,-10.18940,-0.18773,-0.21970,-0.12856
2025-11-22T17:45:08.307692,-0.15238,0.05299,-10.19792,-0.26180,-0.20189,-0.10757
2025-11-22T17:45:08.317308,-0.17816,0.13614,-10.20679,-0.15483,-0.12769,-0.05878
2025-11-22T17:45:08.326923,-0.13037,0.19585,-10.24602,-0.21444,-0.15210,-0.19569
2025-11-22T17:45:08.336538,-0.10656,0.05791,-10.18343,-0.08005,-0.14170,-0.22341
2025-11-22T17:45:08.346154,-0.16907,0.12745,-10.25218,-0.09406,-0.13552,-0.16448
2025-11-22T17:45:08.355769,-0.16574,0.10169,-10.20024,-0.15496,-0.20571,-0.27459
2025-11-22T17:45:08.365385,-0.13740,0.17588,-10.10115,-0.09297,-0.05469,-0.13449
2025-11-22T17:45:08.375,-0.11040,0.16036,-10.21729,-0.14646,-0.17895,-0.14109
2025-11-22T17:45:08.384615,-0.20696,0.20517,-10.22595,-0.10903,-0.05702,-0.15640
2025-11-22T17:45:08.394231,-0.06168,0.18378,-10.21216,-0.03843,-0.24457,-0.18503
2025-11-22T17:45:08.403846,-0.11402,0.16556,-10.13163,-0.24618,-0.05373,-0.19770
2025-11-22T17:45:08.413462,-0.16062,0.16431,-10.29297,-0.08066,-0.21637,-0.22943
2025-11-22T17:45:08.423077,-0.13338,0.15334,-10.20958,-0.05374,-0.19515,-0.21997
2025-11-22T17:45:08.432692,-0.16590,0.12006,-10.28716,-0.14100,-0.23012,-0.13133
2025-11-22T17:45:08.442308,-0.12903,0.15228,-10.33051,-0.16579,-0.20825,-0.18519
2025-11-22T17:45:08.451923,-0.07156,0.18237,-10.30447,-0.11348,-0.17475,-0.10357
2025-11-22T17:45:08.461538,-0.15774,0.16795,-10.19564,-0.02645,-0.17280,-0.17614
2025-11-22T17:45:08.471154,-0.05905,0.17276,-10.29637,-0.14562,-0.27459,-0.13385
2025-11-22T17:45:08.480769,-0.14493,0.17795,-10.22419,-0.26067,-0.05139,-0.18152
2025-11-22T17:45:08.490385,-0.08099,0.18695,-10.23719,-0.07017,-0.07231,-0.13266
2025-11-22T17:45:08.5,-0.15351,0.28348,-10.32089,0.00176,-0.19651,-0.10417
2025-11-22T17:45:08.509615,-0.10345,0.24513,-10.27510,-0.03377,-0.35259,-0.15989
2025-11-22T17:45:08.519231,-0.06347,0.17015,-10.29919,-0.01289,-0.36324,-0.12446
2025-11-22T17:45:08.528846,-0.07862,0.23660,-10.25400,-0.10125,-0.14495,-0.10878
2025-11-22T17:45:08.538462,-0.10412,0.22362,-10.31213,-0.16119,-0.32663,-0.10879
2025-11-22T17:45:08.548077,-0.04418,0.14024,-10.31608,-0.09601,-0.18443,-0.08655
2025-11-22T17:45:08.557692,-0.04668,0.18752,-10.32422,-0.05081,-0.18911,-0.11746
2025-11-22T17:45:08.567308,-0.04413,0.24391,-10.31130,-0.18068,-0.22340,-0.13486
2025-11-22T17:45:08.576923,-0.11228,0.22368,-10.31528,-0.18722,-0.19278,-0.14536
2025-11-22T17:45:08.586538,-0.09017,0.17058,-10.35319,-0.06658,-0.20894,-0.14995
2025-11-22T17:45:08.596154,0.01302,0.17249,-10.35660,0.16685,-0.19162,-0.20724
2025-11-22T17:45:08.605769,-0.03099,0.19666,-10.35282,0.05314,-0.18314,-0.08736
2025-11-22T17:45:08.615385,-0.03593,0.25513,-10.32595,0.07088,-0.16483,-0.12312
2025-11-22T17:45:08.625,-0.08779,0.20470,-10.32319,-0.08004,-0.20220,-0.13031
2025-11-22T17:45:08.634615,-0.04118,0.15502,-10.24599,-0.05649,-0.23285,-0.14610
2025-11-22T17:45:08.644231,-0.00053,0.22877,-10.34189,0.00117,-0.22325,-0.13603
2025-11-22T17:45:08.653846,-0.03044,0.22033,-10.30706,-0.08107,-0.17983,-0.16932
2025-11-22T17:45:08.663462,-0.06603,0.25381,-10.38607,-0.08219,-0.14266,-0.14997
2025-11-22T17:45:08.673077,-0.00473,0.24795,-10.30078,0.00886,-0.22627,-0.14505
2025-11-22T17:45:08.682692,-0.00260,0.18712,-10.33556,-0.04524,-0.31115,-0.10728
2025-11-22T17:45:08.692308,-0.06572,0.15294,-10.35565,-0.02563,-0.29409,-0.08091
2025-11-22T17:45:08.701923,-0.02262,0.18451,-10.33060,-0.10347,-0.19557,-0.15754
2025-11-22T17:45:08.711538,0.01896,0.17147,-10.36913,0.01619,-0.15179,-0.02454
2025-11-22T17:45:08.721154,-0.01737,0.26056,-10.38100,0.02357,-0.39791,-0.16110
2025-11-22T17:45:08.730769,0.00838,0.25297,-10.35730,-0.06903,-0.26732,-0.15041
2025-11-22T17:45:08.740385,-0.00936,0.28366,-10.36626,0.10086,-0.30703,-0.09553
2025-11-22T17:45:08.75,-0.00854,0.23873,-10.30698,-0.02965,-0.19092,-0.00306
2025-11-22T17:45:08.759615,0.02849,0.15779,-10.30250,-0.05835,-0.27509,0.01494
2025-11-22T17:45:08.769231,0.04716,0.17788,-10.34505,0.10496,-0.23043,-0.16817
2025-11-22T17:45:08.778846,0.06303,0.19097,-10.26700,0.14652,-0.29249,-0.09664
2025-11-22T17:45:08.788462,0.02919,0.20552,-10.32840,0.03035,-0.22731,-0.07565
2025-11-22T17:45:08.798077,0.02176,0.21188,-10.33438,0.05430,-0.35858,-0.11719
2025-11-22T17:45:08.807692,0.07843,0.21345,-10.29961,0.00250,-0.23176,-0.13822
2025-11-22T17:45:08.817308,0.02544,0.10919,-10.36057,0.14350,-0.17152,-0.00826
2025-11-22T17:45:08.826923,0.02438,0.16885,-10.24226,0.05023,-0.05392,-0.08920
2025-11-22T17:45:08.836538,0.08223,0.27682,-10.34590,0.01643,-0.29953,-0.12914
2025-11-22T17:45:08.846154,0.04788,0.22969,-10.38248,0.14511,-0.25025,-0.03769
2025-11-22T17:45:08.855769,0.04731,0.12084,-10.28135,0.07373,-0.29667,-0.05358
2025-11-22T17:45:08.865385,0.07471,0.18145,-10.29883,0.03193,-0.13612,-0.05963
2025-11-22T17:45:08.875,0.07254,0.25606,-10.24015,0.11699,-0.17837,-0.12319
2025-11-22T17:45:08.884615,0.04094,0.15745,-10.35992,-0.02077,-0.23684,-0.05423
2025-11-22T17:45:08.894231,0.05372,0.24147,-10.26788,0.12678,-0.20260,-0.11742
2025-11-22T17:45:08.903846,0.06748,0.16573,-10.23392,-0.01142,-0.21361,-0.01524
2025-11-22T17:45:08.913462,0.07521,0.20046,-10.16863,-0.01666,-0.27610,0.09983
2025-11-22T17:45:08.923077,0.06112,0.07977,-10.22664,0.14816,-0.27369,-0.06044
2025-11-22T17:45:08.932692,0.04282,0.17869,-10.26875,0.07532,-0.29577,-0.02270
2025-11-22T17:45:08.942308,0.09230,0.19326,-10.29564,0.13473,-0.22777,-0.03824
2025-11-22T17:45:08.951923,0.13061,0.23982,-10.17762,0.03593,-0.35482,0.02755
2025-11-22T17:45:08.961538,0.12901,0.14450,-10.22817,0.14559,-0.27679,-0.02835
2025-11-22T17:45:08.971154,0.13491,0.22110,-10.19803,-0.05051,-0.27317,0.01882
2025-11-22T17:45:08.980769,0.11127,0.23122,-10.21838,0.07219,-0.19624,0.00172
2025-11-22T17:45:08.990385,0.08071,0.17380,-10.15836,0.09333,-0.13047,-0.00485
2025-11-22T17:45:09,0.11949,0.14014,-10.20291,0.21110,-0.14132,-0.05992
2025-11-22T17:45:09.009615,0.09443,0.20020,-10.16817,0.13764,-0.39340,-0.02486
2025-11-22T17:45:09.019231,0.14390,0.14956,-10.16051,0.04006,-0.19289,-0.06481
2025-11-22T17:45:09.028846,0.16362,0.14324,-10.13134,0.10123,-0.30012,0.04858
2025-11-22T17:45:09.038462,0.11997,0.15926,-10.16855,0.01230,-0.22695,-0.03216
2025-11-22T17:45:09.048077,0.08839,0.15796,-10.11401,0.21191,-0.17617,0.04832
2025-11-22T17:45:09.057692,0.08283,0.03615,-10.09254,0.17850,-0.12943,-0.01401
2025-11-22T17:45:09.067308,0.14358,0.16113,-10.01479,0.12969,-0.20419,-0.05921
2025-11-22T17:45:09.076923,0.14752,0.25758,-10.07360,0.06420,-0.16783,-0.02960
2025-11-22T17:45:09.086538,0.11920,0.07264,-9.99917,0.17968,-0.16544,0.06044
2025-11-22T17:45:09.096154,0.16017,0.12909,-10.03405,0.21479,-0.13370,0.01494
2025-11-22T17:45:09.105769,0.15409,0.13555,-10.08664,0.10875,-0.16519,0.00472
2025-11-22T17:45:09.115385,0.15298,0.16480,-10.01688,-0.01354,-0.09076,0.00477
2025-11-22T17:45:09.125,0.14177,0.10516,-10.03401,0.26557,-0.13217,0.09028
2025-11-22T17:45:09.134615,0.09643,0.14891,-10.04392,0.22451,-0.19391,-0.01996
2025-11-22T17:45:09.144231,0.18679,0.10389,-10.03003,0.17412,-0.21185,0.04187
2025-11-22T17:45:09.153846,0.18246,0.10414,-10.07100,0.23960,-0.11612,0.01867
2025-11-22T17:45:09.163462,0.12193,0.16263,-9.98549,0.17694,-0.13875,0.10797
2025-11-22T17:45:09.173077,0.13864,0.13646,-9.93064,0.16733,-0.00894,0.08952
2025-11-22T17:45:09.182692,0.17089,0.04471,-9.95953,0.20920,-0.21775,0.04578
2025-11-22T17:45:09.192308,0.10759,0.05725,-9.97124,0.25713,-0.09723,0.14812
2025-11-22T17:45:09.201923,0.17193,0.05281,-9.89149,0.09888,-0.14628,0.08413
2025-11-22T17:45:09.211538,0.20769,0.05576,-10.01587,-0.01589,-0.19004,0.06334
2025-11-22T17:45:09.221154,0.15158,0.01137,-9.92946,0.19856,-0.06111,0.02780
2025-11-22T17:45:09.230769,0.14349,0.02827,-9.84212,0.18877,-0.12011,0.11645
2025-11-22T17:45:09.240385,0.20800,0.08563,-9.91313,0.20167,-0.15542,0.06273
2025-11-22T17:45:09.25,0.14979,0.02687,-9.84317,0.19306,-0.19024,0.03845
2025-11-22T17:45:09.259615,0.18858,0.04274,-9.89603,0.22020,-0.08668,0.02157
2025-11-22T17:45:09.269231,0.20303,0.00222,-9.78453,0.16975,-0.00200,0.05560
2025-11-22T17:45:09.278846,0.16649,0.02423,-9.85080,0.32848,-0.12304,0.05558
2025-11-22T17:45:09.288462,0.20735,0.07370,-9.85211,0.15605,-0.11654,0.15162
2025-11-22T17:45:09.298077,0.13529,-0.04372,-9.79529,0.24610,-0.17400,0.07272
2025-11-22T17:45:09.307692,0.22251,0.02844,-9.84478,0.18802,-0.03216,0.04359
2025-11-22T17:45:09.317308,0.14903,0.03952,-9.79914,0.20743,0.02243,0.06364
2025-11-22T17:45:09.326923,0.19197,-0.10847,-9.77540,0.26962,0.03296,0.03093
2025-11-22T17:45:09.336538,0.18467,-0.09715,-9.75149,0.23208,-0.02410,0.12434
2025-11-22T17:45:09.346154,0.12119,-0.01668,-9.78527,0.17011,0.03561,0.17108
2025-11-22T17:45:09.355769,0.13602,-0.01836,-9.72743,0.29682,-0.02939,0.09021
2025-11-22T17:45:09.365385,0.14606,0.06771,-9.76523,0.20629,0.03911,0.11767
2025-11-22T17:45:09.375,0.17212,-0.08516,-9.59069,0.19533,0.06304,0.08948
2025-11-22T17:45:09.384615,0.13241,-0.05312,-9.70552,0.29250,-0.05609,0.07920
2025-11-22T17:45:09.394231,0.15244,-0.03038,-9.62370,0.19989,-0.06227,0.04161
2025-11-22T17:45:09.403846,0.18979,-0.05446,-9.64046,0.24262,-0.02481,0.06273
2025-11-22T17:45:09.413462,0.09491,-0.03923,-9.69832,0.24165,0.14449,0.11395
2025-11-22T17:45:09.423077,0.22431,-0.11380,-9.63420,0.25527,0.04010,0.17224
2025-11-22T17:45:09.432692,0.23951,-0.06614,-9.59354,0.29062,-0.02325,0.05047
2025-11-22T17:45:09.442308,0.16808,-0.08307,-9.72797,0.19278,0.01356,0.16332
2025-11-22T17:45:09.451923,0.18567,-0.14947,-9.56675,0.24895,0.15984,0.22459
2025-11-22T17:45:09.461538,0.15034,-0.08871,-9.58334,0.18714,0.15100,0.06479
2025-11-22T17:45:09.471154,0.16050,-0.15075,-9.57431,0.19043,0.03037,0.16464
2025-11-22T17:45:09.480769,0.16403,-0.10852,-9.58804,0.19986,0.14161,0.10138
2025-11-22T17:45:09.490385,0.19112,-0.13666,-9.50548,0.20283,0.20452,0.06515
2025-11-22T17:45:09.5,0.12516,-0.17464,-9.50531,0.19632,0.07074,0.10432
2025-11-22T17:45:09.509615,0.14288,-0.17803,-9.48508,0.17943,0.25326,0.09807
2025-11-22T17:45:09.519231,0.14743,-0.16061,-9.47648,0.23255,0.01798,0.06859
2025-11-22T17:45:09.528846,0.15323,-0.14308,-9.58698,0.11307,0.08940,0.09193
2025-11-22T17:45:09.538462,0.22709,-0.14303,-9.43568,0.12934,0.01169,0.10837
2025-11-22T17:45:09.548077,0.13338,-0.22596,-9.39389,0.14716,0.02032,0.17123
2025-11-22T17:45:09.557692,0.13249,-0.17492,-9.45291,0.22353,0.19470,0.12208
2025-11-22T17:45:09.567308,0.15809,-0.16441,-9.53208,0.22103,0.14975,0.10603
2025-11-22T17:45:09.576923,0.19887,-0.16493,-9.43384,0.14837,0.03593,0.11978
2025-11-22T17:45:09.586538,0.14099,-0.25700,-9.51692,0.31647,0.08189,0.19807
2025-11-22T17:45:09.596154,0.16296,-0.20727,-9.35059,0.17481,0.19630,0.11319
2025-11-22T17:45:09.605769,0.13743,-0.11036,-9.45138,0.21953,0.20387,0.07289
2025-11-22T17:45:09.615385,0.11285,-0.17021,-9.40435,0.15737,0.17033,0.12148
2025-11-22T17:45:09.625,0.11610,-0.08315,-9.47325,0.11780,0.14514,0.22756
2025-11-22T17:45:09.634615,0.13975,-0.18086,-9.33236,0.24000,0.15429,0.13469
2025-11-22T17:45:09.644231,0.10527,-0.20634,-9.47010,0.17926,0.07231,0.13176
2025-11-22T17:45:09.653846,0.16042,-0.17994,-9.32031,0.25600,0.14208,0.19856
2025-11-22T17:45:09.663462,0.10758,-0.24513,-9.33928,0.20874,0.26526,0.13351
2025-11-22T17:45:09.673077,0.12801,-0.19061,-9.35232,0.19725,0.09218,0.11527
2025-11-22T17:45:09.682692,0.16458,-0.23546,-9.34898,0.18676,0.06612,0.09469
2025-11-22T17:45:09.692308,0.08236,-0.17657,-9.29832,0.15543,0.27728,0.13041
2025-11-22T17:45:09.701923,0.11140,-0.24988,-9.27873,0.23106,0.31666,0.09802
2025-11-22T17:45:09.711538,0.12042,-0.21529,-9.36734,0.14955,0.14851,0.14880
2025-11-22T17:45:09.721154,0.12147,-0.28744,-9.31986,0.26463,0.16796,0.11271
2025-11-22T17:45:09.730769,0.17064,-0.26506,-9.37362,0.19553,0.14921,0.10431
2025-11-22T17:45:09.740385,0.11063,-0.22092,-9.33899,0.18979,0.51874,0.14709
2025-11-22T17:45:09.75,0.06896,-0.25106,-9.34067,0.09840,0.36527,0.17317
2025-11-22T17:45:09.759615,0.12403,-0.24765,-9.39567,0.14410,0.31633,-0.01229
2025-11-22T17:45:09.769231,0.10170,-0.26934,-9.34671,0.13973,0.21534,0.13421
2025-11-22T17:45:09.778846,0.09802,-0.24149,-9.25509,0.04606,0.19590,0.17315
2025-11-22T17:45:09.788462,0.11061,-0.21991,-9.33206,0.02062,0.24013,0.03828
2025-11-22T17:45:09.798077,0.08606,-0.29887,-9.26069,0.10392,0.36365,0.12932
2025-11-22T17:45:09.807692,0.09150,-0.31079,-9.29776,0.06365,0.24386,0.12080
2025-11-22T17:45:09.817308,0.05227,-0.29100,-9.23435,0.08505,0.19243,0.08658
2025-11-22T17:45:09.826923,0.06822,-0.27161,-9.31585,0.16561,0.18544,0.12915
2025-11-22T17:45:09.836538,0.04745,-0.31098,-9.35351,0.01993,0.22075,0.05534
2025-11-22T17:45:09.846154,0.05830,-0.31692,-9.31817,0.03155,0.25746,0.18054
2025-11-22T17:45:09.855769,0.05160,-0.24719,-9.28934,-0.04829,0.39633,0.03254
2025-11-22T17:45:09.865385,0.05235,-0.20220,-9.25441,-0.00859,0.35264,0.05173
2025-11-22T17:45:09.875,-0.00143,-0.26970,-9.26387,-0.09484,0.31181,0.03947
2025-11-22T17:45:09.884615,-0.00892,-0.26984,-9.32824,0.10692,0.27863,0.06995
2025-11-22T17:45:09.894231,-0.01869,-0.25748,-9.33796,-0.06518,0.33858,0.10080
2025-11-22T17:45:09.903846,-0.01196,-0.20353,-9.23860,-0.02396,0.32158,0.00368
2025-11-22T17:45:09.913462,0.02388,-0.27908,-9.27280,0.00463,0.27084,0.05356
2025-11-22T17:45:09.923077,0.01777,-0.26768,-9.34582,-0.07716,0.31107,0.13876
2025-11-22T17:45:09.932692,0.00731,-0.32133,-9.22351,-0.00059,0.23696,0.05358
2025-11-22T17:45:09.942308,-0.01037,-0.26972,-9.26273,-0.07194,0.29787,0.07232
2025-11-22T17:45:09.951923,-0.01055,-0.27064,-9.29246,-0.00839,0.37822,-0.00376
2025-11-22T17:45:09.961538,0.00037,-0.25719,-9.15978,0.00999,0.36387,0.03642
2025-11-22T17:45:09.971154,0.00242,-0.25884,-9.28089,-0.05448,0.25844,0.03928
2025-11-22T17:45:09.980769,-0.05399,-0.24399,-9.33756,-0.01313,0.27089,0.12301
2025-11-22T17:45:09.990385,-0.01046,-0.30864,-9.31302,-0.07109,0.24788,0.01914
2025-11-22T17:45:10,-0.01651,-0.26012,-9.38395,-0.02256,0.18422,0.06888
2025-11-22T17:45:10.009615,-0.07716,-0.26665,-9.27285,-0.12185,0.23980,0.05651
2025-11-22T17:45:10.019231,0.01733,-0.24907,-9.28981,-0.08186,0.15136,0.06378
2025-11-22T17:45:10.028846,-0.05500,-0.27745,-9.31859,-0.13249,0.34048,-0.03316
2025-11-22T17:45:10.038462,-0.00367,-0.21600,-9.34092,-0.00298,0.27178,-0.05523
2025-11-22T17:45:10.048077,-0.05831,-0.31417,-9.37255,-0.21849,0.34302,-0.06157
2025-11-22T17:45:10.057692,-0.10485,-0.25360,-9.36685,-0.03867,0.18628,-0.02315
2025-11-22T17:45:10.067308,-0.01274,-0.17758,-9.35278,-0.16131,0.25208,0.05449
2025-11-22T17:45:10.076923,-0.07166,-0.28131,-9.39134,-0.08936,0.20235,0.02946
2025-11-22T17:45:10.086538,-0.03431,-0.26274,-9.32700,-0.24154,0.23538,0.00430
2025-11-22T17:45:10.096154,-0.08321,-0.19503,-9.42053,-0.13715,0.28890,0.00817
2025-11-22T17:45:10.105769,-0.04493,-0.26482,-9.42694,-0.14414,0.18173,0.01913
2025-11-22T17:45:10.115385,-0.07419,-0.29312,-9.36034,-0.16785,0.34100,-0.02869
2025-11-22T17:45:10.125,-0.07115,-0.23977,-9.49131,-0.06970,0.25054,0.02641
2025-11-22T17:45:10.134615,-0.12517,-0.21459,-9.43290,-0.08065,0.24082,0.03409
2025-11-22T17:45:10.144231,-0.11313,-0.22798,-9.36800,-0.15580,0.28691,-0.01879
2025-11-22T17:45:10.153846,-0.06998,-0.23042,-9.42712,-0.20685,0.23388,-0.00966
2025-11-22T17:45:10.163462,-0.14335,-0.19068,-9.45279,-0.23244,0.33561,0.04402
2025-11-22T17:45:10.173077,-0.09101,-0.16994,-9.42273,-0.26183,0.37864,0.02012
2025-11-22T17:45:10.182692,-0.10276,-0.23276,-9.45371,-0.12229,0.19402,-0.09296
2025-11-22T17:45:10.192308,-0.11732,-0.27108,-9.49416,-0.12962,0.27163,-0.08056
2025-11-22T17:45:10.201923,-0.10858,-0.19671,-9.51877,-0.16404,0.32976,-0.03486
2025-11-22T17:45:10.211538,-0.06770,-0.25984,-9.50355,-0.20585,0.22651,-0.03935
2025-11-22T17:45:10.221154,-0.09422,-0.20835,-9.53466,-0.24185,0.08764,-0.03920
2025-11-22T17:45:10.230769,-0.11536,-0.21532,-9.54173,-0.13096,0.35033,0.01751
2025-11-22T17:45:10.240385,-0.13299,-0.22397,-9.61451,-0.28351,0.20792,-0.07535
2025-11-22T17:45:10.25,-0.15205,-0.23565,-9.57342,-0.23173,0.15584,-0.01825
2025-11-22T17:45:10.259615,-0.14551,-0.17967,-9.54773,-0.25148,0.12916,-0.06874
2025-11-22T17:45:10.269231,-0.15834,-0.18031,-9.45740,-0.23174,0.22662,-0.03981
2025-11-22T17:45:10.278846,-0.14568,-0.16871,-9.62339,-0.19952,0.32381,-0.01529
2025-11-22T17:45:10.288462,-0.18035,-0.17758,-9.56080,-0.12227,0.12183,-0.10366
2025-11-22T17:45:10.298077,-0.10223,-0.15321,-9.60966,-0.25167,0.23562,-0.01520
2025-11-22T17:45:10.307692,-0.13201,-0.16089,-9.66058,-0.16338,0.24060,-0.10912
2025-11-22T17:45:10.317308,-0.18875,-0.14487,-9.64844,-0.30533,0.10683,-0.14338
2025-11-22T17:45:10.326923,-0.19452,-0.21838,-9.64329,-0.36727,0.15264,-0.01159
2025-11-22T17:45:10.336538,-0.15738,-0.17736,-9.73827,-0.25230,0.22976,-0.06694
2025-11-22T17:45:10.346154,-0.23568,-0.16178,-9.73429,-0.24198,0.12282,-0.10729
2025-11-22T17:45:10.355769,-0.15407,-0.11946,-9.72191,-0.22227,0.18799,-0.13125
2025-11-22T17:45:10.365385,-0.20513,-0.04695,-9.78934,-0.27733,0.05668,0.00280
2025-11-22T17:45:10.375,-0.18481,-0.10894,-9.75358,-0.26504,-0.13091,-0.10681
2025-11-22T17:45:10.384615,-0.13592,-0.11384,-9.71120,-0.33525,0.16269,-0.14128
2025-11-22T17:45:10.394231,-0.13454,-0.09259,-9.69209,-0.31277,0.17509,-0.14816
2025-11-22T17:45:10.403846,-0.15793,-0.08325,-9.81884,-0.20076,0.21564,-0.14756
2025-11-22T17:45:10.413462,-0.18879,-0.09192,-9.76907,-0.29618,0.06822,-0.12611
2025-11-22T17:45:10.423077,-0.21687,-0.12787,-9.80494,-0.34494,-0.02978,-0.09196
2025-11-22T17:45:10.432692,-0.17179,-0.06582,-9.79682,-0.22501,-0.11034,-0.13829
2025-11-22T17:45:10.442308,-0.18017,-0.03660,-9.83793,-0.16305,0.14338,-0.13463
2025-11-22T17:45:10.451923,-0.16234,-0.07294,-9.92467,-0.25418,0.06756,-0.09625
2025-11-22T17:45:10.461538,-0.11371,-0.04380,-9.93752,-0.30988,0.02310,-0.10367
2025-11-22T17:45:10.471154,-0.18717,-0.06424,-9.84641,-0.22631,0.12315,-0.15195
2025-11-22T17:45:10.480769,-0.22406,-0.08806,-9.90144,-0.18750,-0.00839,-0.16124
2025-11-22T17:45:10.490385,-0.19666,-0.05404,-9.98403,-0.31194,0.10842,-0.13477
2025-11-22T17:45:10.5,-0.19966,0.03091,-9.86137,-0.26806,-0.08668,-0.02662
2025-11-22T17:45:10.509615,-0.15305,0.00900,-9.88070,-0.31819,0.03273,-0.20206
2025-11-22T17:45:10.519231,-0.15254,-0.00105,-9.96817,-0.28904,-0.05813,-0.10480
2025-11-22T17:45:10.528846,-0.16393,0.01177,-9.97494,-0.37778,-0.09626,-0.18480
2025-11-22T17:45:10.538462,-0.16868,0.00004,-10.09922,-0.39782,-0.01309,-0.04853
2025-11-22T17:45:10.548077,-0.19314,0.01017,-9.94321,-0.29339,-0.06899,-0.07734
2025-11-22T17:45:10.557692,-0.19818,0.07092,-10.00435,-0.23755,-0.01921,-0.17457
2025-11-22T17:45:10.567308,-0.14758,0.01319,-10.10678,-0.38416,-0.15701,-0.11932
2025-11-22T17:45:10.576923,-0.17085,0.02533,-10.02379,-0.25392,-0.23350,-0.16720
2025-11-22T17:45:10.586538,-0.12280,-0.02005,-10.07676,-0.37282,0.05495,-0.10104
2025-11-22T17:45:10.596154,-0.13027,0.08943,-10.01474,-0.22922,-0.08347,-0.11385
2025-11-22T17:45:10.605769,-0.18039,0.09274,-10.00260,-0.31143,-0.08499,-0.13506
2025-11-22T17:45:10.615385,-0.11135,0.07066,-10.07219,-0.13343,-0.10545,-0.15729
2025-11-22T17:45:10.625,-0.21040,0.08999,-10.09047,-0.27333,-0.08843,-0.11492
2025-11-22T17:45:10.634615,-0.14248,-0.00500,-10.08969,-0.36830,-0.09694,-0.21115
2025-11-22T17:45:10.644231,-0.21056,0.07775,-10.15684,-0.35341,-0.05913,-0.25240
2025-11-22T17:45:10.653846,-0.13444,0.13028,-10.09296,-0.25560,-0.27299,-0.13299
2025-11-22T17:45:10.663462,-0.14194,0.03682,-10.18604,-0.10609,-0.20929,-0.20949
2025-11-22T17:45:10.673077,-0.18847,0.15136,-10.14811,-0.26458,-0.19725,-0.04915
2025-11-22T17:45:10.682692,-0.12326,0.07514,-10.20790,-0.13281,-0.02149,-0.24466
2025-11-22T17:45:10.692308,-0.17800,0.11207,-10.26051,-0.26272,-0.18647,-0.17494
2025-11-22T17:45:10.701923,-0.09661,0.12684,-10.11376,-0.23710,-0.17557,-0.06104
2025-11-22T17:45:10.711538,-0.11888,0.06298,-10.17806,-0.18070,-0.05475,-0.10332
2025-11-22T17:45:10.721154,-0.16292,0.20214,-10.29976,-0.31686,-0.11036,-0.06529
2025-11-22T17:45:10.730769,-0.19335,0.10289,-10.32657,-0.15766,-0.26439,-0.20901
2025-11-22T17:45:10.740385,-0.13456,0.15066,-10.21508,-0.22248,-0.23873,-0.11531
2025-11-22T17:45:10.75,-0.11664,0.08596,-10.21618,-0.20245,-0.20176,-0.15659
2025-11-22T17:45:10.759615,-0.16464,0.09765,-10.27548,-0.08417,-0.09987,-0.22206
2025-11-22T17:45:10.769231,-0.15331,0.04108,-10.27063,-0.11318,-0.06781,-0.18158
2025-11-22T17:45:10.778846,-0.12502,0.12964,-10.21698,-0.09533,-0.11777,-0.20345
2025-11-22T17:45:10.788462,-0.15990,0.06787,-10.22988,-0.19313,-0.27971,-0.14408
2025-11-22T17:45:10.798077,-0.15201,0.23004,-10.23835,-0.19816,-0.21540,-0.11331
2025-11-22T17:45:10.807692,-0.14097,0.15569,-10.35336,-0.24697,-0.08435,-0.12580
2025-11-22T17:45:10.817308,-0.11447,0.18069,-10.29117,-0.31336,-0.18966,-0.10778
2025-11-22T17:45:10.826923,-0.15924,0.12592,-10.36125,-0.10476,-0.39874,-0.14574
2025-11-22T17:45:10.836538,-0.06043,0.10348,-10.39159,-0.04934,-0.20569,-0.11524
2025-11-22T17:45:10.846154,-0.11695,0.21981,-10.17975,-0.10956,-0.26122,-0.24404
2025-11-22T17:45:10.855769,-0.10864,0.16050,-10.28759,-0.03305,-0.23453,-0.13442
2025-11-22T17:45:10.865385,-0.09009,0.19462,-10.31486,0.01914,-0.19340,-0.05334
2025-11-22T17:45:10.875,-0.08961,0.19658,-10.29301,-0.11974,-0.05895,-0.03609
2025-11-22T17:45:10.884615,-0.01001,0.12570,-10.26178,-0.18568,-0.27008,-0.07588
2025-11-22T17:45:10.894231,-0.07322,0.18930,-10.34201,-0.04947,0.00706,-0.07934
2025-11-22T17:45:10.903846,-0.06248,0.14981,-10.31125,-0.07049,-0.26853,0.00270
2025-11-22T17:45:10.913462,-0.02837,0.22492,-10.27222,-0.06493,-0.16495,-0.12593
2025-11-22T17:45:10.923077,0.00306,0.12411,-10.38246,-0.03002,-0.42628,-0.06409
2025-11-22T17:45:10.932692,-0.04998,0.14929,-10.36371,-0.11476,-0.29041,-0.12149
2025-11-22T17:45:10.942308,0.02444,0.17768,-10.32049,-0.11325,-0.28556,-0.16563
2025-11-22T17:45:10.951923,-0.02095,0.23748,-10.42662,-0.10383,-0.34140,-0.08934
2025-11-22T17:45:10.961538,-0.02255,0.25342,-10.31351,-0.11108,-0.23577,-0.11312
2025-11-22T17:45:10.971154,-0.05677,0.20277,-10.34092,-0.01219,-0.18962,-0.04339
2025-11-22T17:45:10.980769,-0.03656,0.14329,-10.49298,-0.04762,-0.30599,-0.04281
2025-11-22T17:45:10.990385,0.00913,0.15504,-10.31044,-0.07408,-0.25118,-0.02829
2025-11-22T17:45:11,-0.02400,0.17782,-10.29628,-0.09893,-0.26150,-0.07262
2025-11-22T17:45:11.009615,-0.04974,0.21667,-10.27667,-0.14523,-0.22309,0.00565
2025-11-22T17:45:11.019231,-0.01709,0.19856,-10.30877,-0.00540,-0.26115,-0.09776
2025-11-22T17:45:11.028846,0.02263,0.19902,-10.23301,-0.04814,-0.15821,-0.07538
2025-11-22T17:45:11.038462,0.01319,0.26006,-10.28887,-0.05818,-0.27320,0.02297
2025-11-22T17:45:11.048077,0.02315,0.20059,-10.33260,0.17592,-0.22949,-0.03168
2025-11-22T17:45:11.057692,0.06289,0.12435,-10.32433,0.09194,-0.13451,-0.06212
2025-11-22T17:45:11.067308,0.01927,0.17871,-10.25181,-0.01199,-0.38031,-0.08332
2025-11-22T17:45:11.076923,0.03432,0.13195,-10.20716,0.18522,-0.31485,-0.00019
2025-11-22T17:45:11.086538,0.10257,0.16693,-10.29654,-0.02480,-0.15833,-0.17091
2025-11-22T17:45:11.096154,0.03382,0.21789,-10.21479,-0.05021,-0.08955,-0.07359
2025-11-22T17:45:11.105769,0.04368,0.16452,-10.26878,0.07063,-0.29778,-0.00877
2025-11-22T17:45:11.115385,0.03936,0.13223,-10.27990,0.09366,-0.22193,0.10702
2025-11-22T17:45:11.125,0.06910,0.20798,-10.21444,0.05910,-0.21505,-0.02349
2025-11-22T17:45:11.134615,0.09717,0.17135,-10.26557,0.06156,-0.23478,0.08401
2025-11-22T17:45:11.144231,0.06181,0.19419,-10.19810,0.02017,-0.30814,0.02142
2025-11-22T17:45:11.153846,0.06197,0.18843,-10.21984,0.19108,-0.31468,0.14765
2025-11-22T17:45:11.163462,0.08657,0.11647,-10.21362,0.09368,-0.22535,-0.00662
2025-11-22T17:45:11.173077,0.12612,0.15076,-10.24930,-0.01251,-0.21921,-0.02250
2025-11-22T17:45:11.182692,0.04426,0.21040,-10.18210,0.10924,-0.27487,0.08463
2025-11-22T17:45:11.192308,0.10807,0.08235,-10.26050,0.04044,-0.17301,0.05170
2025-11-22T17:45:11.201923,0.12371,0.14068,-10.21419,0.15225,-0.19690,0.02584
2025-11-22T17:45:11.211538,0.10615,0.12412,-10.22024,0.13680,-0.24305,0.01169
2025-11-22T17:45:11.221154,0.12052,0.11458,-10.17119,0.18222,-0.34899,0.10796
2025-11-22T17:45:11.230769,0.10361,0.21767,-10.04606,0.19316,-0.15040,-0.01966
2025-11-22T17:45:11.240385,0.09851,0.13193,-10.14048,0.21039,-0.30480,0.08253
2025-11-22T17:45:11.25,0.13600,0.07575,-10.09541,0.14035,-0.20925,0.06054
2025-11-22T17:45:11.259615,0.13081,0.10387,-10.12061,0.27201,-0.12745,0.07017
2025-11-22T17:45:11.269231,0.12111,0.09658,-10.13852,0.19317,-0.18523,0.07672
2025-11-22T17:45:11.278846,0.11782,0.02089,-10.14206,0.22436,-0.04941,0.06554
2025-11-22T17:45:11.288462,0.13537,0.08731,-10.03866,0.23760,-0.10809,0.07087
2025-11-22T17:45:11.298077,0.15181,0.12647,-10.00611,0.20008,-0.12105,0.15460
2025-11-22T17:45:11.307692,0.12654,0.10095,-10.02164,0.16395,0.06627,0.03772
2025-11-22T17:45:11.317308,0.15423,0.18197,-10.05138,0.13923,-0.11489,0.07718
2025-11-22T17:45:11.326923,0.17271,0.01963,-10.07838,0.17804,-0.21572,0.20025
2025-11-22T17:45:11.336538,0.16815,0.04281,-10.04856,0.34083,-0.16815,0.11923
2025-11-22T17:45:11.346154,0.19007,0.08803,-9.93396,0.14389,-0.11280,0.12232
2025-11-22T17:45:11.355769,0.22113,0.02250,-9.94180,0.12409,-0.17269,0.09447
2025-11-22T17:45:11.365385,0.13341,0.07384,-9.96467,0.14601,-0.10102,0.19227
2025-11-22T17:45:11.375,0.12182,-0.00663,-9.97347,0.30313,-0.02794,0.10388
2025-11-22T17:45:11.384615,0.14011,0.05046,-9.90785,0.36016,0.03099,0.21666
2025-11-22T17:45:11.394231,0.18634,0.01099,-9.79580,0.24537,-0.02952,0.16165
2025-11-22T17:45:11.403846,0.22510,0.01032,-9.93138,0.16677,-0.15470,0.19198
2025-11-22T17:45:11.413462,0.20536,-0.01636,-9.85819,0.13030,-0.05749,0.29188
2025-11-22T17:45:11.423077,0.15420,0.00152,-9.82194,0.19407,0.01573,0.11927
2025-11-22T17:45:11.432692,0.13854,0.02503,-9.81279,0.09707,-0.00472,0.08632
2025-11-22T17:45:11.442308,0.23001,0.03133,-9.84873,0.08493,-0.05618,0.11302
2025-11-22T17:45:11.451923,0.20319,-0.03036,-9.78830,0.22521,0.08325,0.19304
2025-11-22T17:45:11.461538,0.16694,-0.04464,-9.90444,0.27276,0.02202,0.18569
2025-11-22T17:45:11.471154,0.16500,-0.01538,-9.71469,0.21278,0.09058,0.17984
2025-11-22T17:45:11.480769,0.13549,-0.03210,-9.80749,0.15735,-0.10793,0.17798
2025-11-22T17:45:11.490385,0.19560,0.04518,-9.69398,0.17581,-0.00130,0.18958
2025-11-22T17:45:11.5,0.20569,-0.01538,-9.78041,0.17192,0.01941,0.22215
2025-11-22T17:45:11.509615,0.16182,-0.08056,-9.65263,0.18099,0.05128,0.17395
2025-11-22T17:45:11.519231,0.16981,-0.02057,-9.66588,0.14021,0.05234,0.09250
2025-11-22T17:45:11.528846,0.16718,-0.04199,-9.74873,0.21011,0.04635,0.24703
2025-11-22T17:45:11.538462,0.21998,-0.10106,-9.56801,0.15276,0.01319,0.23891
2025-11-22T17:45:11.548077,0.17575,-0.05087,-9.62228,0.22829,0.13367,0.17001
2025-11-22T17:45:11.557692,0.17063,-0.11740,-9.60817,0.33424,0.07614,0.18124
2025-11-22T17:45:11.567308,0.18984,-0.07498,-9.58353,0.28752,0.16741,0.26203
2025-11-22T17:45:11.576923,0.16349,-0.16877,-9.54088,0.27298,0.23514,0.27182
2025-11-22T17:45:11.586538,0.17373,-0.17828,-9.54400,0.17714,0.14898,0.21168
2025-11-22T17:45:11.596154,0.19303,-0.23893,-9.53549,0.29721,0.27394,0.24658
2025-11-22T17:45:11.605769,0.16302,-0.11587,-9.53098,0.15524,0.11573,0.15523
2025-11-22T17:45:11.615385,0.14991,-0.16667,-9.49167,0.26135,0.08132,0.14714
2025-11-22T17:45:11.625,0.17476,-0.08620,-9.42235,0.25484,0.21863,0.32463
2025-11-22T17:45:11.634615,0.18125,-0.17113,-9.42800,0.19666,0.18667,0.19864
2025-11-22T17:45:11.644231,0.16124,-0.19528,-9.42932,0.24112,0.26272,0.15608
2025-11-22T17:45:11.653846,0.23721,-0.12020,-9.49201,0.22086,0.24487,0.14409
2025-11-22T17:45:11.663462,0.14452,-0.17633,-9.39470,0.13378,0.08248,0.22847
2025-11-22T17:45:11.673077,0.17969,-0.16041,-9.38781,0.22535,0.37856,0.18254
2025-11-22T17:45:11.682692,0.16948,-0.19221,-9.34233,0.13981,0.31605,0.24106
2025-11-22T17:45:11.692308,0.14517,-0.18154,-9.42735,0.12268,0.20164,0.12653
2025-11-22T17:45:11.701923,0.12721,-0.17574,-9.36414,0.04218,0.22604,0.23278
2025-11-22T17:45:11.711538,0.10535,-0.28936,-9.35510,0.12320,0.11655,0.20080
2025-11-22T17:45:11.721154,0.19622,-0.24649,-9.38118,0.06964,0.24955,0.20079
2025-11-22T17:45:11.730769,0.10729,-0.23817,-9.32741,0.27596,0.33227,0.14601
2025-11-22T17:45:11.740385,0.14508,-0.28905,-9.40677,0.14253,0.29115,0.19143
2025-11-22T17:45:11.75,0.13312,-0.27789,-9.27284,0.08013,0.38799,0.30383
2025-11-22T17:45:11.759615,0.01693,-0.24141,-9.29434,0.19447,0.18712,0.18611
2025-11-22T17:45:11.769231,0.04844,-0.19310,-9.28241,0.08978,0.31489,0.18785
2025-11-22T17:45:11.778846,0.11902,-0.30849,-9.42560,0.10750,0.26929,0.21007
2025-11-22T17:45:11.788462,0.10047,-0.23785,-9.31727,0.17913,0.32983,0.21614
2025-11-22T17:45:11.798077,0.03725,-0.25434,-9.33053,0.14224,0.29609,0.22056
2025-11-22T17:45:11.807692,0.04573,-0.23975,-9.40856,0.11862,0.19678,0.16956
2025-11-22T17:45:11.817308,0.03161,-0.28584,-9.38420,-0.03196,0.31251,0.21386
2025-11-22T17:45:11.826923,0.07555,-0.27339,-9.35778,0.04816,0.21618,0.14055
2025-11-22T17:45:11.836538,0.16269,-0.31958,-9.30587,-0.02853,0.28566,0.16226
2025-11-22T17:45:11.846154,0.05978,-0.28603,-9.36568,0.01753,0.28992,0.17998
2025-11-22T17:45:11.855769,0.05265,-0.34051,-9.26516,0.00639,0.37253,0.23863
2025-11-22T17:45:11.865385,0.05435,-0.26036,-9.30496,0.00744,0.36297,0.19408
2025-11-22T17:45:11.875,0.06311,-0.30740,-9.27603,0.04923,0.19429,0.16950
2025-11-22T17:45:11.884615,0.04745,-0.35797,-9.22098,0.05905,0.24499,0.12218
2025-11-22T17:45:11.894231,0.02376,-0.24780,-9.37309,-0.05115,0.18713,0.11270
2025-11-22T17:45:11.903846,0.03985,-0.30807,-9.29368,0.04644,0.22434,0.12481
2025-11-22T17:45:11.913462,0.00473,-0.28347,-9.26812,-0.03903,0.34095,0.17959
2025-11-22T17:45:11.923077,0.02030,-0.22414,-9.30994,-0.09663,0.35458,0.19864
2025-11-22T17:45:11.932692,0.09888,-0.34416,-9.28614,0.07370,0.25188,0.12812
2025-11-22T17:45:11.942308,0.01760,-0.26924,-9.26285,-0.08973,0.22394,0.14890
2025-11-22T17:45:11.951923,0.06097,-0.20786,-9.33331,0.00974,0.40070,0.16902
2025-11-22T17:45:11.961538,-0.00128,-0.28263,-9.36553,0.00624,0.32178,0.14957
2025-11-22T17:45:11.971154,-0.00840,-0.25631,-9.30144,-0.14955,0.37979,0.08101
2025-11-22T17:45:11.980769,-0.00426,-0.29142,-9.40152,-0.08334,0.42146,0.09395
2025-11-22T17:45:11.990385,0.00538,-0.24622,-9.43743,0.05607,0.38350,0.23456
2025-11-22T17:45:12,-0.02398,-0.29740,-9.27055,0.00120,0.33186,0.09434
2025-11-22T17:45:12.009615,-0.04009,-0.24396,-9.24519,-0.00692,0.32490,-0.00578
2025-11-22T17:45:12.019231,-0.03945,-0.31109,-9.31467,-0.16427,0.24543,0.15710
2025-11-22T17:45:12.028846,-0.01256,-0.24625,-9.27985,-0.07899,0.38384,0.15932
2025-11-22T17:45:12.038462,-0.06266,-0.25330,-9.35741,0.00459,0.32652,0.08958
2025-11-22T17:45:12.048077,-0.04708,-0.24328,-9.40663,-0.13735,0.38645,0.08320
2025-11-22T17:45:12.057692,-0.10858,-0.24631,-9.29717,-0.13941,0.35361,0.11174
2025-11-22T17:45:12.067308,-0.05765,-0.23856,-9.40668,-0.14815,0.30535,0.08991
2025-11-22T17:45:12.076923,-0.03128,-0.29368,-9.37138,-0.25403,0.26905,0.08931
2025-11-22T17:45:12.086538,-0.05755,-0.18577,-9.40302,-0.26422,0.24174,0.02279
2025-11-22T17:45:12.096154,-0.04176,-0.20462,-9.34973,-0.00911,0.28630,-0.02920
2025-11-22T17:45:12.105769,-0.10719,-0.24212,-9.38982,-0.18038,0.22428,0.04632
2025-11-22T17:45:12.115385,-0.11455,-0.30932,-9.43537,-0.14745,0.32638,0.00127
2025-11-22T17:45:12.125,-0.13612,-0.29160,-9.37106,-0.23561,0.22829,0.04339
2025-11-22T17:45:12.134615,-0.09552,-0.23740,-9.50411,-0.26888,0.11652,0.11666
2025-11-22T17:45:12.144231,-0.10039,-0.30967,-9.43895,-0.07234,0.29605,-0.00361
2025-11-22T17:45:12.153846,-0.11128,-0.31352,-9.48603,-0.29456,0.27194,0.02946
2025-11-22T17:45:12.163462,-0.11145,-0.19621,-9.46989,0.00086,0.23568,-0.03159
2025-11-22T17:45:12.173077,-0.16992,-0.22217,-9.55988,-0.20800,0.17440,-0.01096
2025-11-22T17:45:12.182692,-0.15507,-0.23503,-9.51374,-0.28703,0.21247,0.04386
2025-11-22T17:45:12.192308,-0.11454,-0.26429,-9.50916,-0.28892,0.31182,-0.08468
2025-11-22T17:45:12.201923,-0.11068,-0.16926,-9.43541,-0.20216,0.24307,0.03163
2025-11-22T17:45:12.211538,-0.12210,-0.25333,-9.52162,-0.23713,0.25907,0.03349
2025-11-22T17:45:12.221154,-0.15236,-0.20314,-9.56239,-0.26531,0.41758,-0.00953
2025-11-22T17:45:12.230769,-0.11225,-0.17122,-9.50873,-0.24236,0.29909,0.03976
2025-11-22T17:45:12.240385,-0.11963,-0.23182,-9.59777,-0.26676,0.09698,0.01245
2025-11-22T17:45:12.25,-0.15634,-0.18796,-9.59410,-0.27315,0.20669,-0.05632
2025-11-22T17:45:12.259615,-0.21639,-0.19148,-9.61564,-0.24430,0.10086,-0.06391
2025-11-22T17:45:12.269231,-0.14647,-0.22418,-9.63207,-0.21653,0.11021,-0.04771
2025-11-22T17:45:12.278846,-0.07857,-0.18681,-9.60092,-0.33690,0.22265,-0.00502
2025-11-22T17:45:12.288462,-0.18916,-0.20940,-9.58748,-0.32650,0.00802,0.03504
2025-11-22T17:45:12.298077,-0.11577,-0.16250,-9.66357,-0.37791,0.05365,-0.06613
2025-11-22T17:45:12.307692,-0.18196,-0.14912,-9.76351,-0.26369,0.17035,0.03641
2025-11-22T17:45:12.317308,-0.17141,-0.15604,-9.66631,-0.29772,0.06168,-0.14841
2025-11-22T17:45:12.326923,-0.16970,-0.10328,-9.65392,-0.28437,0.08356,-0.06110
2025-11-22T17:45:12.336538,-0.15165,-0.14712,-9.73130,-0.31453,0.12756,-0.01658
2025-11-22T17:45:12.346154,-0.17833,-0.17620,-9.70432,-0.35984,0.09663,0.01347
2025-11-22T17:45:12.355769,-0.16619,-0.12057,-9.65473,-0.25561,0.05952,-0.15283
2025-11-22T17:45:12.365385,-0.22197,-0.08941,-9.78500,-0.27698,0.13319,-0.11697
2025-11-22T17:45:12.375,-0.19340,-0.12036,-9.73190,-0.33585,0.18854,-0.00096
2025-11-22T17:45:12.384615,-0.18870,-0.04975,-9.82246,-0.37865,0.04138,-0.11432
2025-11-22T17:45:12.394231,-0.14399,-0.06418,-9.83775,-0.34687,0.11197,-0.05586
2025-11-22T17:45:12.403846,-0.17801,-0.05297,-9.85839,-0.40023,0.00624,-0.11207
2025-11-22T17:45:12.413462,-0.22453,-0.09257,-9.87397,-0.26611,0.01569,-0.12450
2025-11-22T17:45:12.423077,-0.18908,-0.08717,-9.88589,-0.24353,-0.02774,-0.14793
2025-11-22T17:45:12.432692,-0.16436,-0.03725,-9.89145,-0.34719,0.09074,-0.05040
2025-11-22T17:45:12.442308,-0.14534,-0.05995,-9.94413,-0.33476,0.08063,-0.08401
2025-11-22T17:45:12.451923,-0.18013,-0.06086,-9.95837,-0.29401,0.00659,-0.18215
2025-11-22T17:45:12.461538,-0.13622,-0.08639,-9.94848,-0.37125,-0.06597,-0.13989
2025-11-22T17:45:12.471154,-0.20721,-0.09576,-10.04185,-0.35905,-0.05210,-0.12876
2025-11-22T17:45:12.480769,-0.15191,0.04994,-10.06670,-0.37656,-0.07755,-0.11210
2025-11-22T17:45:12.490385,-0.18054,-0.01230,-9.90837,-0.32026,0.00030,-0.15858
2025-11-22T17:45:12.5,-0.11516,0.02550,-9.99012,-0.38588,0.02616,-0.19040
2025-11-22T17:45:12.509615,-0.12088,0.08360,-10.04206,-0.36284,-0.16231,-0.11991
2025-11-22T17:45:12.519231,-0.15075,0.00723,-10.00712,-0.36253,-0.01967,-0.15029
2025-11-22T17:45:12.528846,-0.17439,0.05430,-10.12864,-0.38559,-0.08586,-0.19803
2025-11-22T17:45:12.538462,-0.13537,0.03553,-10.01360,-0.28722,-0.11405,-0.11993
2025-11-22T17:45:12.548077,-0.17666,-0.02885,-10.16564,-0.32820,-0.24970,-0.03743
2025-11-22T17:45:12.557692,-0.20383,0.08532,-10.14984,-0.37338,-0.14904,-0.12187
2025-11-22T17:45:12.567308,-0.13688,0.05127,-10.05725,-0.34556,-0.23215,-0.16133
2025-11-22T17:45:12.576923,-0.19453,0.03974,-10.09108,-0.17475,-0.23459,-0.19217
2025-11-22T17:45:12.586538,-0.16925,0.03605,-10.09973,-0.22384,-0.12411,-0.16842
2025-11-22T17:45:12.596154,-0.16752,0.05124,-10.10247,-0.26901,-0.05913,-0.06043
2025-11-22T17:45:12.605769,-0.12611,0.09695,-10.03136,-0.26027,-0.09146,-0.11218
2025-11-22T17:45:12.615385,-0.14537,0.10564,-10.11624,-0.25559,-0.18121,-0.14232
2025-11-22T17:45:12.625,-0.16715,0.12981,-10.17220,-0.25094,-0.16535,-0.16445
2025-11-22T17:45:12.634615,-0.14406,0.14231,-10.12846,-0.29573,-0.13563,-0.12172
2025-11-22T17:45:12.644231,-0.12628,0.08336,-10.22522,-0.27364,-0.02541,-0.21439
2025-11-22T17:45:12.653846,-0.15940,0.09808,-10.18648,-0.20511,-0.16794,-0.06660
2025-11-22T17:45:12.663462,-0.15271,0.13469,-10.20533,-0.30702,-0.29836,-0.22073
2025-11-22T17:45:12.673077,-0.16778,0.16229,-10.23269,-0.14936,-0.16987,-0.17110
2025-11-22T17:45:12.682692,-0.14463,0.06814,-10.24486,-0.30758,-0.12444,-0.13615
2025-11-22T17:45:12.692308,-0.11990,0.18819,-10.30350,-0.24217,-0.23797,-0.14781
2025-11-22T17:45:12.701923,-0.12290,0.15666,-10.27840,-0.29435,-0.14427,-0.07477
2025-11-22T17:45:12.711538,-0.14364,0.16264,-10.26205,-0.16217,-0.24558,-0.15502
2025-11-22T17:45:12.721154,-0.10488,0.08346,-10.31202,-0.13978,-0.27901,-0.06538
2025-11-22T17:45:12.730769,-0.11091,0.21958,-10.34920,-0.15627,-0.16075,-0.13935
2025-11-22T17:45:12.740385,-0.14539,0.13589,-10.23366,-0.15929,-0.25131,-0.09462
2025-11-22T17:45:12.75,-0.11273,0.21949,-10.23788,-0.14096,-0.30468,-0.14814
2025-11-22T17:45:12.759615,-0.14408,0.18169,-10.24503,-0.14036,-0.29805,-0.13354
2025-11-22T17:45:12.769231,-0.07264,0.18955,-10.26002,-0.25218,-0.23999,-0.10853
2025-11-22T17:45:12.778846,-0.05156,0.22478,-10.29802,-0.17273,-0.27770,-0.17349
2025-11-22T17:45:12.788462,-0.06033,0.19914,-10.38573,-0.22163,-0.15591,-0.06848
2025-11-22T17:45:12.798077,-0.03759,0.21226,-10.40040,-0.03447,-0.20049,-0.08674
2025-11-22T17:45:12.807692,-0.05895,0.21973,-10.30638,-0.24268,-0.28798,0.08122
2025-11-22T17:45:12.817308,-0.08959,0.25091,-10.29039,-0.03379,-0.25769,-0.00824
2025-11-22T17:45:12.826923,-0.04521,0.23754,-10.31887,-0.16769,-0.27359,-0.15048
2025-11-22T17:45:12.836538,-0.05951,0.17377,-10.29477,-0.01764,-0.24338,0.03415
2025-11-22T17:45:12.846154,-0.03545,0.13455,-10.28948,-0.27807,-0.32424,-0.05659
2025-11-22T17:45:12.855769,0.01815,0.23163,-10.37200,-0.13116,-0.37469,-0.01785
2025-11-22T17:45:12.865385,-0.02834,0.20629,-10.28944,-0.09478,-0.31318,0.05096
2025-11-22T17:45:12.875,-0.04185,0.21735,-10.40972,-0.11331,-0.37315,-0.07376
2025-11-22T17:45:12.884615,0.00160,0.25122,-10.33713,-0.00269,-0.25256,-0.03275
2025-11-22T17:45:12.894231,-0.03333,0.15270,-10.38492,0.00608,-0.21153,-0.06039
2025-11-22T17:45:12.903846,0.00796,0.18869,-10.32275,-0.09143,-0.22014,-0.01125
2025-11-22T17:45:12.913462,0.01300,0.20975,-10.37538,-0.01995,-0.23594,0.03455
2025-11-22T17:45:12.923077,-0.02134,0.17380,-10.31619,-0.04589,-0.36992,-0.07441
2025-11-22T17:45:12.932692,0.00368,0.18549,-10.20581,0.09715,-0.35934,-0.00507
2025-11-22T17:45:12.942308,-0.02148,0.18106,-10.32658,-0.00225,-0.24373,-0.02399
2025-11-22T17:45:12.951923,-0.02020,0.12919,-10.28012,-0.03495,-0.42011,-0.00483
2025-11-22T17:45:12.961538,0.00844,0.21524,-10.25275,-0.06954,-0.28248,0.03154
2025-11-22T17:45:12.971154,-0.00845,0.20874,-10.32562,0.03032,-0.22177,0.04289
2025-11-22T17:45:12.980769,0.05769,0.24475,-10.29663,0.02582,-0.21899,-0.00945
2025-11-22T17:45:12.990385,0.03641,0.13475,-10.26302,0.12293,-0.39608,0.07185
2025-11-22T17:45:13,0.10330,0.16780,-10.27619,0.08449,-0.39961,0.03003
2025-11-22T17:45:13.009615,0.01646,0.16332,-10.31927,-0.03308,-0.19771,0.03348
2025-11-22T17:45:13.019231,0.04203,0.15706,-10.32778,0.02937,-0.29865,-0.00000
2025-11-22T17:45:13.028846,0.04754,0.16744,-10.14787,0.20395,-0.34388,-0.00208
2025-11-22T17:45:13.038462,0.05754,0.17977,-10.14675,0.06272,-0.21696,0.07542
2025-11-22T17:45:13.048077,0.04917,0.22053,-10.26632,0.03780,-0.33862,0.00895
2025-11-22T17:45:13.057692,0.07276,0.14316,-10.18738,0.10854,-0.30772,0.03799
2025-11-22T17:45:13.067308,0.06009,0.13101,-10.27282,-0.01727,-0.23218,0.07682
2025-11-22T17:45:13.076923,0.16158,0.15296,-10.21852,0.00286,-0.20013,0.07833
2025-11-22T17:45:13.086538,0.10503,0.16004,-10.18725,0.05329,-0.16061,0.18063
2025-11-22T17:45:13.096154,0.01286,0.17429,-10.27603,0.07145,-0.33049,0.07302
2025-11-22T17:45:13.105769,0.09302,0.12253,-10.09142,0.14534,-0.31545,0.06589
2025-11-22T17:45:13.115385,0.08076,0.12771,-10.16983,0.08421,-0.34699,0.06118
2025-11-22T17:45:13.125,0.10959,0.13915,-10.03441,0.12905,-0.14469,0.07072
2025-11-22T17:45:13.134615,0.09372,0.12034,-10.08784,0.07878,-0.21503,0.14159
2025-11-22T17:45:13.144231,0.12327,0.11667,-10.21924,0.11484,-0.18258,0.19888
2025-11-22T17:45:13.153846,0.08882,0.11282,-10.04409,0.08484,-0.13437,0.15368
2025-11-22T17:45:13.163462,0.09939,0.18336,-10.05954,0.17661,-0.22397,0.12424
2025-11-22T17:45:13.173077,0.15475,0.07534,-10.15019,0.16424,-0.31031,0.11143
2025-11-22T17:45:13.182692,0.19580,0.02299,-9.94862,0.14738,-0.15641,0.06206
2025-11-22T17:45:13.192308,0.13794,0.01727,-10.04385,0.22804,-0.18987,0.19662
2025-11-22T17:45:13.201923,0.19095,0.09043,-10.03004,0.18067,-0.16088,0.01142
2025-11-22T17:45:13.211538,0.19506,0.14578,-9.97470,0.16174,-0.22853,0.11498
2025-11-22T17:45:13.221154,0.07861,0.11714,-9.92684,0.29902,-0.07736,0.21276
2025-11-22T17:45:13.230769,0.15298,0.09427,-9.99302,0.17443,-0.20947,0.10733
2025-11-22T17:45:13.240385,0.15477,0.07402,-10.01951,0.23604,-0.01060,0.08558
2025-11-22T17:45:13.25,0.17322,0.12172,-9.85273,0.17844,-0.07832,0.17077
2025-11-22T17:45:13.259615,0.17991,0.05784,-9.98252,0.16580,-0.14890,0.12883
2025-11-22T17:45:13.269231,0.19137,0.00791,-9.95114,0.31030,-0.11993,0.17674
2025-11-22T17:45:13.278846,0.19919,0.07972,-9.90464,0.14337,0.03502,0.22221
2025-11-22T17:45:13.288462,0.14985,0.08451,-9.81566,0.14265,-0.05027,0.22253
2025-11-22T17:45:13.298077,0.21060,0.02159,-9.93519,0.20121,-0.08197,0.13438
2025-11-22T17:45:13.307692,0.17631,-0.00802,-9.86403,0.21148,-0.05802,0.24659
2025-11-22T17:45:13.317308,0.15366,0.01299,-9.78385,0.30458,0.05998,0.20125
2025-11-22T17:45:13.326923,0.18462,-0.04401,-9.82661,0.42748,-0.03396,0.15502
2025-11-22T17:45:13.336538,0.14392,0.07573,-9.75356,0.24098,-0.07356,0.18602
2025-11-22T17:45:13.346154,0.08110,0.08101,-9.78118,0.24196,0.03906,0.22803
2025-11-22T17:45:13.355769,0.13736,-0.01208,-9.70221,0.17344,-0.07883,0.26886
2025-11-22T17:45:13.365385,0.16355,-0.03337,-9.83597,0.18163,-0.00258,0.22187
2025-11-22T17:45:13.375,0.22043,-0.00167,-9.74829,0.17611,-0.00829,0.24272
2025-11-22T17:45:13.384615,0.17156,-0.01428,-9.66145,0.28140,-0.00262,0.17434
2025-11-22T17:45:13.394231,0.18287,-0.03246,-9.77895,0.18431,0.02581,0.17347
2025-11-22T17:45:13.403846,0.15324,-0.05861,-9.67245,0.15973,0.00093,0.24410
2025-11-22T17:45:13.413462,0.12845,-0.08493,-9.74194,0.19406,0.14356,0.15389
2025-11-22T17:45:13.423077,0.18622,-0.09036,-9.66797,0.24746,0.15478,0.19821
2025-11-22T17:45:13.432692,0.17633,-0.13929,-9.66757,0.15255,0.12028,0.20110
2025-11-22T17:45:13.442308,0.17429,-0.08518,-9.68896,0.18485,0.20883,0.27473
2025-11-22T17:45:13.451923,0.14378,-0.05116,-9.69005,0.19581,-0.03141,0.24242
2025-11-22T17:45:13.461538,0.20274,-0.12773,-9.58188,0.26830,-0.03208,0.19340
2025-11-22T17:45:13.471154,0.21118,-0.12089,-9.59908,0.14751,0.10358,0.21706
2025-11-22T17:45:13.480769,0.18350,-0.14196,-9.60711,0.23629,-0.12269,0.20265
2025-11-22T17:45:13.490385,0.15196,-0.14891,-9.55643,0.16163,0.06946,0.23844
2025-11-22T17:45:13.5,0.19632,-0.15064,-9.59026,0.11954,0.11031,0.24949
2025-11-22T17:45:13.509615,0.18410,-0.10139,-9.51079,0.24165,0.26732,0.21949
2025-11-22T17:45:13.519231,0.21160,-0.07644,-9.55832,0.14266,0.09987,0.29602
2025-11-22T17:45:13.528846,0.22155,-0.14141,-9.47597,0.17551,0.16319,0.15915
2025-11-22T17:45:13.538462,0.08584,-0.17261,-9.50381,0.16474,0.09991,0.18496
2025-11-22T17:45:13.548077,0.14225,-0.22201,-9.46970,0.16113,0.11396,0.12663
2025-11-22T17:45:13.557692,0.15030,-0.20570,-9.47983,0.25806,0.19104,0.29053
2025-11-22T17:45:13.567308,0.09196,-0.19232,-9.45955,0.25847,0.12581,0.24665
2025-11-22T17:45:13.576923,0.13824,-0.15262,-9.52181,0.05504,0.00867,0.27192
2025-11-22T17:45:13.586538,0.11864,-0.21425,-9.43124,0.26409,0.29414,0.27136
2025-11-22T17:45:13.596154,0.12786,-0.21318,-9.42064,0.08933,0.17021,0.17469
2025-11-22T17:45:13.605769,0.17487,-0.26840,-9.30850,0.04239,0.10528,0.19823
2025-11-22T17:45:13.615385,0.12099,-0.24047,-9.46216,0.22618,0.25156,0.29546
2025-11-22T17:45:13.625,0.08716,-0.19555,-9.40204,0.10204,0.12473,0.27361
2025-11-22T17:45:13.634615,0.10156,-0.21230,-9.44105,0.12616,0.03108,0.14607
2025-11-22T17:45:13.644231,0.06250,-0.27414,-9.35434,0.25303,0.22806,0.25767
2025-11-22T17:45:13.653846,0.11483,-0.25561,-9.32042,0.01049,0.28185,0.22246
2025-11-22T17:45:13.663462,0.07870,-0.18603,-9.35895,0.13603,0.16340,0.21682
2025-11-22T17:45:13.673077,0.11484,-0.22566,-9.38604,0.08606,0.26777,0.20533
2025-11-22T17:45:13.682692,0.07072,-0.19960,-9.39137,0.14916,0.28469,0.18788
2025-11-22T17:45:13.692308,0.07623,-0.22591,-9.38076,0.10330,0.13648,0.19905
2025-11-22T17:45:13.701923,0.07500,-0.29853,-9.35352,0.02419,0.15233,0.26209
2025-11-22T17:45:13.711538,0.06659,-0.21808,-9.35281,0.18737,0.18856,0.23019
2025-11-22T17:45:13.721154,0.03922,-0.29592,-9.25088,0.01905,0.32080,0.18044
2025-11-22T17:45:13.730769,0.05731,-0.29659,-9.29321,0.07463,0.28861,0.17424
2025-11-22T17:45:13.740385,0.03969,-0.22159,-9.30581,0.03791,0.29204,0.19163
2025-11-22T17:45:13.75,0.09727,-0.26431,-9.38024,0.07794,0.22374,0.14828
2025-11-22T17:45:13.759615,0.00147,-0.30390,-9.28671,0.15624,0.30460,0.14615
2025-11-22T17:45:13.769231,0.06323,-0.25341,-9.33382,0.08698,0.23253,0.21953
2025-11-22T17:45:13.778846,0.03769,-0.22924,-9.28949,0.11792,0.30645,0.17462
2025-11-22T17:45:13.788462,0.05895,-0.36901,-9.33445,0.11964,0.18514,0.22122
2025-11-22T17:45:13.798077,-0.02037,-0.30195,-9.17993,-0.04546,0.21934,0.12323
2025-11-22T17:45:13.807692,0.01536,-0.22431,-9.25386,-0.05721,0.19089,0.22692
2025-11-22T17:45:13.817308,-0.02473,-0.32693,-9.34431,-0.14395,0.20090,0.11887
2025-11-22T17:45:13.826923,0.01536,-0.29020,-9.25686,-0.02522,0.30694,0.17458
2025-11-22T17:45:13.836538,0.04527,-0.32777,-9.26429,-0.07194,0.31095,0.08742
2025-11-22T17:45:13.846154,0.04243,-0.26516,-9.24106,0.00172,0.29231,0.12655
2025-11-22T17:45:13.855769,0.00515,-0.29050,-9.20565,-0.03380,0.28578,0.17142
2025-11-22T17:45:13.865385,0.01292,-0.28770,-9.19504,0.01489,0.23877,0.17907
2025-11-22T17:45:13.875,-0.01961,-0.27871,-9.29452,-0.04412,0.21819,0.16675
2025-11-22T17:45:13.884615,-0.00964,-0.30262,-9.25300,-0.11171,0.35554,0.18737
2025-11-22T17:45:13.894231,-0.02938,-0.28144,-9.27683,-0.10320,0.37208,0.15745
2025-11-22T17:45:13.903846,-0.01730,-0.32902,-9.34118,0.03231,0.40541,0.17408
2025-11-22T17:45:13.913462,-0.00894,-0.27132,-9.27698,-0.02812,0.22438,0.15531
2025-11-22T17:45:13.923077,-0.04044,-0.26443,-9.34121,-0.17958,0.35501,0.09124
2025-11-22T17:45:13.932692,0.00190,-0.24815,-9.32598,-0.17770,0.24849,0.13732
2025-11-22T17:45:13.942308,-0.03539,-0.25051,-9.32171,-0.07125,0.20155,0.23150
2025-11-22T17:45:13.951923,-0.03004,-0.29565,-9.32533,-0.11063,0.20425,0.12069
2025-11-22T17:45:13.961538,-0.02850,-0.25181,-9.41910,-0.17331,0.36284,0.30126
2025-11-22T17:45:13.971154,-0.04175,-0.30922,-9.28948,-0.20234,0.17794,0.02494
2025-11-22T17:45:13.980769,-0.05962,-0.27367,-9.40291,-0.17954,0.21611,0.01325
2025-11-22T17:45:13.990385,-0.05042,-0.24415,-9.41912,-0.16060,0.38607,0.02937
2025-11-22T17:45:14,0.00774,-0.00078,-9.77193,-0.07931,-0.00999,0.06333
2025-11-22T17:45:14.009615,-0.03502,0.00527,-9.73344,-0.12218,-0.03596,0.04797
2025-11-22T17:45:14.019231,-0.05148,-0.07123,-9.80464,-0.14995,-0.00277,0.11732
2025-11-22T17:45:14.028846,0.00070,-0.11797,-9.75109,-0.03878,0.01430,0.15594
2025-11-22T17:45:14.038462,-0.08177,-0.08645,-9.76263,-0.04711,-0.10075,-0.01190
2025-11-22T17:45:14.048077,-0.03293,-0.02344,-9.80756,-0.09286,-0.06898,0.07220
2025-11-22T17:45:14.057692,0.01049,-0.03701,-9.79066,-0.12124,-0.06728,0.03926
2025-11-22T17:45:14.067308,-0.03606,-0.06093,-9.78219,-0.07012,0.05878,0.04352
2025-11-22T17:45:14.076923,0.02882,0.02831,-9.71678,-0.05842,-0.02011,0.06123
2025-11-22T17:45:14.086538,-0.02106,-0.00661,-9.77689,-0.05196,-0.10587,0.06196
2025-11-22T17:45:14.096154,-0.01311,-0.06655,-9.77292,0.08281,0.02290,0.13121
2025-11-22T17:45:14.105769,0.03807,0.03031,-9.82392,-0.10454,0.02944,0.05855
2025-11-22T17:45:14.115385,-0.00317,-0.06778,-9.70635,-0.12570,0.03043,0.08489
2025-11-22T17:45:14.125,-0.02065,-0.07038,-9.75922,-0.07436,-0.02385,-0.01426
2025-11-22T17:45:14.134615,0.00638,-0.02387,-9.81453,-0.09431,0.11579,-0.03727
2025-11-22T17:45:14.144231,-0.03212,-0.05998,-9.81946,-0.11761,-0.01585,-0.06989
2025-11-22T17:45:14.153846,0.00149,-0.09810,-9.71196,-0.09016,-0.03520,0.02884
2025-11-22T17:45:14.163462,0.04342,0.05524,-9.75039,0.02765,0.10134,0.07084
2025-11-22T17:45:14.173077,0.02793,-0.03787,-9.77021,-0.17597,0.00140,-0.01886
2025-11-22T17:45:14.182692,0.00992,-0.08814,-9.78814,-0.03874,-0.00647,0.01306
2025-11-22T17:45:14.192308,0.00143,-0.02588,-9.84767,-0.06087,0.05729,0.10671
2025-11-22T17:45:14.201923,-0.01228,-0.08302,-9.82072,-0.14628,-0.02943,0.08980
2025-11-22T17:45:14.211538,0.00135,-0.05224,-9.73521,-0.09111,-0.06025,0.01577
2025-11-22T17:45:14.221154,0.01992,-0.04877,-9.78528,0.04097,0.07302,-0.02431
2025-11-22T17:45:14.230769,0.01079,-0.06178,-9.77169,-0.16906,0.08193,0.08368
2025-11-22T17:45:14.240385,-0.01357,-0.11139,-9.80383,-0.08196,-0.11344,0.09670
2025-11-22T17:45:14.25,0.00315,-0.05544,-9.76644,-0.04949,-0.09667,0.02516
2025-11-22T17:45:14.259615,0.01140,-0.04279,-9.77773,-0.15481,0.02542,0.05790
2025-11-22T17:45:14.269231,-0.00770,-0.03017,-9.64685,-0.03444,-0.02611,0.00831
2025-11-22T17:45:14.278846,-0.03087,-0.02597,-9.81205,-0.06123,-0.12127,0.12473
2025-11-22T17:45:14.288462,-0.03257,0.00711,-9.81363,-0.02451,0.03707,0.08120
2025-11-22T17:45:14.298077,0.02472,-0.04697,-9.80494,-0.05552,-0.13475,0.06704
2025-11-22T17:45:14.307692,-0.00473,-0.03664,-9.73484,-0.10521,0.07934,0.10469
2025-11-22T17:45:14.317308,-0.02944,-0.10059,-9.77501,-0.09940,0.06146,0.02329
2025-11-22T17:45:14.326923,0.01080,-0.07022,-9.78823,0.02128,-0.01451,0.06324
2025-11-22T17:45:14.336538,-0.04702,-0.02705,-9.78072,0.01482,0.01947,0.04701
2025-11-22T17:45:14.346154,-0.00503,-0.03278,-9.80433,-0.01531,-0.04952,0.13941
2025-11-22T17:45:14.355769,0.02995,0.01904,-9.86580,-0.14708,-0.04589,0.05901
2025-11-22T17:45:14.365385,-0.04556,0.00350,-9.68118,0.04214,0.05239,0.06817
2025-11-22T17:45:14.375,0.00586,0.04172,-9.80655,-0.07933,0.05370,0.11546
2025-11-22T17:45:14.384615,-0.00418,-0.06252,-9.78553,0.02983,-0.08031,0.11117
2025-11-22T17:45:14.394231,0.07343,-0.02964,-9.79392,-0.00714,-0.04785,-0.03316
2025-11-22T17:45:14.403846,-0.00407,-0.10603,-9.79278,-0.19202,-0.04880,0.06869
2025-11-22T17:45:14.413462,-0.00873,-0.04570,-9.82839,-0.04651,-0.02061,0.01141
2025-11-22T17:45:14.423077,0.01142,-0.04887,-9.66820,-0.05706,-0.04443,0.03521
2025-11-22T17:45:14.432692,0.02413,-0.06961,-9.81770,-0.08483,-0.09404,-0.03131
2025-11-22T17:45:14.442308,0.02973,-0.03422,-9.71134,0.00547,0.01138,0.15028
2025-11-22T17:45:14.451923,0.00541,-0.04250,-9.71224,-0.04686,-0.07089,0.08544
2025-11-22T17:45:14.461538,0.01950,-0.02543,-9.79896,-0.00738,-0.12986,0.06411
2025-11-22T17:45:14.471154,0.08934,-0.03570,-9.81936,-0.14341,0.06546,0.03836
2025-11-22T17:45:14.480769,0.01354,-0.01588,-9.75791,-0.04548,-0.01498,0.06737
2025-11-22T17:45:14.490385,0.01617,0.00197,-9.78684,-0.10398,-0.03643,0.09336
2025-11-22T17:45:14.5,-0.05002,-0.00502,-9.71372,-0.13531,-0.01950,0.03559
2025-11-22T17:45:14.509615,0.01255,-0.09341,-9.84514,-0.06778,-0.03691,-0.00083
2025-11-22T17:45:14.519231,-0.00916,-0.05850,-9.77571,-0.05565,0.03169,0.00869
2025-11-22T17:45:14.528846,-0.00595,-0.03916,-9.85194,-0.14371,-0.01437,0.01737
2025-11-22T17:45:14.538462,0.03228,-0.06678,-9.73247,-0.04451,-0.00670,0.04458
2025-11-22T17:45:14.548077,0.01417,-0.08692,-9.79631,-0.02091,-0.15280,0.05237
2025-11-22T17:45:14.557692,0.01032,-0.04217,-9.75291,0.02830,0.00441,0.09797
2025-11-22T17:45:14.567308,0.08795,-0.09008,-9.81653,0.01678,0.02478,0.07921
2025-11-22T17:45:14.576923,-0.05927,0.02230,-9.80040,0.04096,-0.17045,0.06756
2025-11-22T17:45:14.586538,0.02038,-0.02852,-9.77196,-0.12032,-0.03228,0.04561
2025-11-22T17:45:14.596154,0.03288,-0.03513,-9.85413,-0.03859,0.15429,0.13681
2025-11-22T17:45:14.605769,0.01146,-0.16006,-9.78722,0.01919,-0.04144,0.03140
2025-11-22T17:45:14.615385,0.01972,-0.08696,-9.73101,-0.04991,-0.09431,0.11051
2025-11-22T17:45:14.625,-0.01352,-0.06383,-9.68331,-0.09388,-0.17989,0.02508
2025-11-22T17:45:14.634615,0.02664,0.05017,-9.72022,-0.03271,-0.09163,0.13526
2025-11-22T17:45:14.644231,-0.01665,-0.05752,-9.85324,-0.07835,-0.04573,0.09048
2025-11-22T17:45:14.653846,-0.03495,-0.10492,-9.78021,-0.04064,-0.06840,0.03045
2025-11-22T17:45:14.663462,0.04477,-0.07191,-9.78630,0.02142,-0.08410,0.05293
2025-11-22T17:45:14.673077,-0.03631,-0.03390,-9.78923,-0.00673,-0.11304,0.05409
2025-11-22T17:45:14.682692,0.06534,0.01063,-9.84972,-0.01395,-0.06395,0.06767
