Timestamp,Acceleration_X,Acceleration_Y,Acceleration_Z,Gyro_X,Gyro_Y,Gyro_Z
2025-11-23T06:30:30,-0.13697,0.18947,-10.26373,-0.18690,-0.13566,-0.13699
2025-11-23T06:30:30.009615,-0.09515,0.21715,-10.26957,-0.18564,-0.18843,-0.17741
2025-11-23T06:30:30.019231,-0.14001,0.14434,-10.24316,-0.26452,-0.22546,-0.09994
2025-11-23T06:30:30.028846,-0.11280,0.22092,-10.23356,-0.27486,-0.28494,-0.15406
2025-11-23T06:30:30.038462,-0.11605,0.22618,-10.20227,-0.20029,-0.26606,-0.09674
2025-11-23T06:30:30.048077,-0.08460,0.28623,-10.33054,-0.09072,-0.25631,-0.13123
2025-11-23T06:30:30.057692,-0.11780,0.23902,-10.23045,-0.15530,-0.22296,-0.09916
2025-11-23T06:30:30.067308,-0.09691,0.24808,-10.28796,-0.12416,-0.35962,-0.12125
2025-11-23T06:30:30.076923,-0.03699,0.19068,-10.30944,-0.07855,-0.42139,-0.11167
2025-11-23T06:30:30.086538,-0.04527,0.23394,-10.29244,-0.13190,-0.18031,-0.10593
2025-11-23T06:30:30.096154,-0.06408,0.24228,-10.33339,-0.10556,-0.32268,-0.02203
2025-11-23T06:30:30.105769,-0.03483,0.23946,-10.22813,-0.09532,-0.25508,-0.14049
2025-11-23T06:30:30.115385,-0.11028,0.24348,-10.32815,-0.07347,-0.14268,-0.11293
2025-11-23T06:30:30.125,-0.02869,0.25093,-10.29523,-0.02564,-0.26692,-0.11823
2025-11-23T06:30:30.134615,-0.06932,0.27043,-10.32897,0.00352,-0.29292,-0.05710
2025-11-23T06:30:30.144231,-0.09175,0.21655,-10.26841,-0.20310,-0.24984,-0.14370
2025-11-23T06:30:30.153846,-0.00254,0.26852,-10.36323,0.04387,-0.21044,-0.05433
2025-11-23T06:30:30.163462,-0.04920,0.30841,-10.31271,-0.03651,-0.36873,-0.07682
2025-11-23T06:30:30.173077,-0.01858,0.30399,-10.28342,-0.07080,-0.33748,-0.06784
2025-11-23T06:30:30.182692,-0.01693,0.21081,-10.32230,0.10440,-0.36256,-0.08668
2025-11-23T06:30:30.192308,-0.04552,0.25791,-10.31077,-0.12379,-0.26466,-0.02915
2025-11-23T06:30:30.201923,0.01779,0.24468,-10.28287,-0.06718,-0.40132,0.04495
2025-11-23T06:30:30.211538,0.00919,0.24830,-10.29703,0.06545,-0.33696,-0.02312
2025-11-23T06:30:30.221154,0.03666,0.28065,-10.29507,-0.06443,-0.24855,0.03918
2025-11-23T06:30:30.230769,0.04572,0.29768,-10.21543,0.01138,-0.20770,-0.06494
2025-11-23T06:30:30.240385,0.05450,0.33839,-10.18125,-0.02594,-0.43023,0.04488
2025-11-23T06:30:30.25,0.05946,0.19597,-10.35431,0.08330,-0.30674,-0.00151
2025-11-23T06:30:30.259615,-0.00520,0.25325,-10.29010,-0.03902,-0.27181,0.01455
2025-11-23T06:30:30.269231,0.02635,0.21785,-10.27794,0.10052,-0.35893,0.04235
2025-11-23T06:30:30.278846,0.01014,0.29092,-10.22957,0.09660,-0.40207,0.00853
2025-11-23T06:30:30.288462,0.06012,0.24108,-10.15825,0.10672,-0.45061,0.00400
2025-11-23T06:30:30.298077,0.04280,0.22852,-10.13960,0.12206,-0.37421,-0.00131
2025-11-23T06:30:30.307692,0.07042,0.24431,-10.19407,0.18556,-0.24856,0.06368
2025-11-23T06:30:30.317308,0.05397,0.28664,-10.24870,0.12982,-0.28242,-0.00614
2025-11-23T06:30:30.326923,0.06601,0.26991,-10.15481,-0.03337,-0.25861,0.06425
2025-11-23T06:30:30.336538,0.07714,0.22780,-10.10240,0.18294,-0.27032,0.15101
2025-11-23T06:30:30.346154,0.03592,0.29330,-10.10113,0.23347,-0.21648,0.08731
2025-11-23T06:30:30.355769,0.08938,0.22806,-10.06080,0.21775,-0.26035,0.06007
2025-11-23T06:30:30.365385,0.11563,0.22368,-10.14025,0.11056,-0.25347,0.13994
2025-11-23T06:30:30.375,0.09860,0.22019,-10.18866,0.18083,-0.30073,0.14768
2025-11-23T06:30:30.384615,0.06868,0.27138,-10.11032,0.16407,-0.21926,0.11050
2025-11-23T06:30:30.394231,0.17485,0.19442,-10.08998,0.14164,-0.20168,0.05535
2025-11-23T06:30:30.403846,0.09156,0.24212,-9.98839,0.24127,-0.17626,0.22236
2025-11-23T06:30:30.413462,0.08230,0.19443,-9.97504,0.29833,-0.27155,0.08894
2025-11-23T06:30:30.423077,0.12074,0.19501,-10.01818,0.21799,-0.19868,0.14893
2025-11-23T06:30:30.432692,0.18684,0.20358,-10.01390,0.12830,-0.15863,0.04805
2025-11-23T06:30:30.442308,0.15553,0.16718,-10.08554,0.22743,-0.22288,0.18392
2025-11-23T06:30:30.451923,0.11439,0.11943,-9.98588,0.24781,-0.24525,0.16446
2025-11-23T06:30:30.461538,0.17289,0.20255,-9.98955,0.30261,-0.16286,0.14565
2025-11-23T06:30:30.471154,0.10072,0.18366,-9.95792,0.28778,-0.07218,0.08474
2025-11-23T06:30:30.480769,0.15862,0.12938,-9.87919,0.29302,-0.21565,0.13102
2025-11-23T06:30:30.490385,0.09250,0.19080,-9.88284,0.37761,-0.14573,0.16877
2025-11-23T06:30:30.5,0.14659,0.19268,-9.92701,0.29993,-0.22378,0.17025
2025-11-23T06:30:30.509615,0.18618,0.13483,-9.92861,0.25782,-0.12662,0.19257
2025-11-23T06:30:30.519231,0.14681,0.07231,-9.92253,0.29363,-0.02017,0.12405
2025-11-23T06:30:30.528846,0.12834,0.13947,-9.86551,0.40552,-0.12386,0.22511
2025-11-23T06:30:30.538462,0.17675,0.09098,-9.79092,0.30054,-0.13241,0.20575
2025-11-23T06:30:30.548077,0.13316,0.08738,-9.88862,0.35222,-0.11908,0.12539
2025-11-23T06:30:30.557692,0.11560,0.03714,-9.82112,0.22988,-0.00366,0.17996
2025-11-23T06:30:30.567308,0.13941,0.08962,-9.81398,0.22597,-0.14543,0.31778
2025-11-23T06:30:30.576923,0.16165,0.07032,-9.74442,0.44581,-0.07631,0.15100
2025-11-23T06:30:30.586538,0.18524,0.08832,-9.77654,0.21587,-0.01498,0.30233
2025-11-23T06:30:30.596154,0.13056,0.08868,-9.76405,0.29371,-0.08209,0.18755
2025-11-23T06:30:30.605769,0.15054,0.00383,-9.78665,0.28616,0.03471,0.23559
2025-11-23T06:30:30.615385,0.16011,0.02866,-9.60940,0.44395,0.04082,0.20458
2025-11-23T06:30:30.625,0.13908,0.01945,-9.70826,0.35479,0.05667,0.25823
2025-11-23T06:30:30.634615,0.13192,0.00394,-9.66591,0.32735,0.07714,0.18016
2025-11-23T06:30:30.644231,0.14062,-0.00666,-9.72486,0.31552,0.10147,0.24263
2025-11-23T06:30:30.653846,0.12834,-0.01393,-9.63162,0.31320,0.02000,0.26427
2025-11-23T06:30:30.663462,0.14272,0.01077,-9.67042,0.33621,0.13459,0.26832
2025-11-23T06:30:30.673077,0.14614,0.00607,-9.54919,0.31517,0.02475,0.28240
2025-11-23T06:30:30.682692,0.15872,-0.08971,-9.50747,0.28665,-0.03348,0.27542
2025-11-23T06:30:30.692308,0.13019,0.01563,-9.55741,0.31173,0.27904,0.33700
2025-11-23T06:30:30.701923,0.10872,-0.07080,-9.50228,0.31580,0.17711,0.30746
2025-11-23T06:30:30.711538,0.16556,-0.02726,-9.45511,0.31078,0.16025,0.27593
2025-11-23T06:30:30.721154,0.15789,-0.06029,-9.47880,0.15859,0.16864,0.22761
2025-11-23T06:30:30.730769,0.12705,-0.02948,-9.46123,0.22936,0.20521,0.29491
2025-11-23T06:30:30.740385,0.14979,-0.04519,-9.38180,0.34445,0.23992,0.27131
2025-11-23T06:30:30.75,0.12848,-0.04315,-9.35606,0.24699,0.22617,0.26496
2025-11-23T06:30:30.759615,0.16975,-0.12478,-9.45087,0.23699,0.29583,0.30579
2025-11-23T06:30:30.769231,0.13155,-0.11897,-9.50591,0.31588,0.28624,0.27636
2025-11-23T06:30:30.778846,0.10982,-0.05505,-9.46419,0.17532,0.27655,0.21444
2025-11-23T06:30:30.788462,0.08472,-0.10204,-9.42560,0.29076,0.22814,0.22513
2025-11-23T06:30:30.798077,0.16759,-0.10823,-9.38716,0.32517,0.27353,0.19549
2025-11-23T06:30:30.807692,0.07777,-0.18215,-9.46065,0.25522,0.23859,0.23415
2025-11-23T06:30:30.817308,0.08746,-0.10163,-9.42470,0.17379,0.22899,0.29440
2025-11-23T06:30:30.826923,0.08164,-0.13546,-9.33724,0.07756,0.23669,0.21519
2025-11-23T06:30:30.836538,0.08341,-0.10283,-9.26217,0.16271,0.29179,0.29068
2025-11-23T06:30:30.846154,0.06591,-0.05877,-9.27305,0.20821,0.37304,0.12440
2025-11-23T06:30:30.855769,0.08844,-0.11257,-9.36980,0.03949,0.35811,0.18409
2025-11-23T06:30:30.865385,0.05932,-0.23607,-9.28684,0.16453,0.41689,0.31526
2025-11-23T06:30:30.875,0.03677,-0.19548,-9.36849,0.14109,0.20517,0.22822
2025-11-23T06:30:30.884615,0.05422,-0.16293,-9.34350,0.08621,0.30817,0.12151
2025-11-23T06:30:30.894231,0.11073,-0.10037,-9.30179,0.06491,0.45724,0.19713
2025-11-23T06:30:30.903846,0.04780,-0.17317,-9.33927,0.02442,0.33475,0.30800
2025-11-23T06:30:30.913462,0.05467,-0.12962,-9.38955,0.07373,0.42930,0.20124
2025-11-23T06:30:30.923077,0.01194,-0.15647,-9.35943,0.18029,0.23195,0.14779
2025-11-23T06:30:30.932692,0.04399,-0.10546,-9.41248,0.11611,0.35105,0.14133
2025-11-23T06:30:30.942308,-0.04303,-0.17722,-9.40981,0.00564,0.40002,0.18330
2025-11-23T06:30:30.951923,-0.03328,-0.19344,-9.38282,-0.04680,0.40634,0.12832
2025-11-23T06:30:30.961538,0.00279,-0.14935,-9.33428,0.06998,0.37979,0.21508
2025-11-23T06:30:30.971154,0.01183,-0.22195,-9.35130,-0.00512,0.39233,0.07783
2025-11-23T06:30:30.980769,-0.04341,-0.23175,-9.36142,-0.00602,0.32761,0.14269
2025-11-23T06:30:30.990385,-0.03540,-0.16428,-9.30347,0.16750,0.30685,0.10701
2025-11-23T06:30:31,-0.05468,-0.18111,-9.35973,-0.09379,0.30928,0.09846
2025-11-23T06:30:31.009615,-0.03917,-0.15443,-9.37414,-0.16220,0.34213,0.15403
2025-11-23T06:30:31.019231,-0.05991,-0.13338,-9.40115,-0.13254,0.31615,0.17826
2025-11-23T06:30:31.028846,-0.05412,-0.11902,-9.41037,-0.07431,0.54346,0.13583
2025-11-23T06:30:31.038462,-0.03634,-0.10568,-9.41359,-0.19768,0.34636,0.08977
2025-11-23T06:30:31.048077,-0.04294,-0.11879,-9.45373,-0.02741,0.50860,0.11908
2025-11-23T06:30:31.057692,-0.00505,-0.18526,-9.41449,-0.06817,0.40930,0.04994
2025-11-23T06:30:31.067308,-0.06118,-0.14997,-9.47696,-0.11392,0.41339,0.01477
2025-11-23T06:30:31.076923,-0.10292,-0.13356,-9.48450,-0.04489,0.50809,0.15551
2025-11-23T06:30:31.086538,-0.07310,-0.13263,-9.36638,-0.22832,0.41370,0.04319
2025-11-23T06:30:31.096154,-0.10269,-0.12115,-9.41988,-0.14489,0.36708,0.01079
2025-11-23T06:30:31.105769,-0.06717,-0.12151,-9.46678,-0.08603,0.29346,-0.00722
2025-11-23T06:30:31.115385,-0.13525,-0.07466,-9.51628,-0.24652,0.40566,0.01452
2025-11-23T06:30:31.125,-0.07104,-0.06923,-9.52036,-0.15163,0.35893,-0.02158
2025-11-23T06:30:31.134615,-0.12022,-0.13089,-9.51090,-0.18827,0.26033,-0.01932
2025-11-23T06:30:31.144231,-0.08257,-0.05714,-9.50056,-0.04135,0.23263,0.03380
2025-11-23T06:30:31.153846,-0.06291,-0.17711,-9.59471,-0.16340,0.33569,0.02168
2025-11-23T06:30:31.163462,-0.09894,-0.09552,-9.51162,-0.37729,0.31430,-0.07528
2025-11-23T06:30:31.173077,-0.14959,-0.07065,-9.62572,-0.29186,0.14931,-0.03324
2025-11-23T06:30:31.182692,-0.13137,-0.03666,-9.59684,-0.24292,0.28783,0.01282
2025-11-23T06:30:31.192308,-0.13591,-0.06799,-9.66072,-0.17243,0.20789,-0.02504
2025-11-23T06:30:31.201923,-0.12308,-0.08063,-9.53297,-0.22597,0.34816,-0.00812
2025-11-23T06:30:31.211538,-0.12525,-0.05366,-9.65018,-0.27908,0.08467,-0.07509
2025-11-23T06:30:31.221154,-0.16338,-0.07682,-9.68255,-0.24659,0.09815,-0.15881
2025-11-23T06:30:31.230769,-0.17362,0.02351,-9.74360,-0.22622,0.08918,-0.06379
2025-11-23T06:30:31.240385,-0.13032,0.03837,-9.70045,-0.26876,0.10355,-0.05674
2025-11-23T06:30:31.25,-0.15120,0.04615,-9.82893,-0.30336,0.21960,-0.11038
2025-11-23T06:30:31.259615,-0.19352,-0.01018,-9.62752,-0.20706,0.06622,-0.14321
2025-11-23T06:30:31.269231,-0.17874,-0.03388,-9.72519,-0.23076,0.10340,-0.16189
2025-11-23T06:30:31.278846,-0.22271,0.03249,-9.82089,-0.26113,0.24585,-0.05354
2025-11-23T06:30:31.288462,-0.12248,-0.01848,-9.85708,-0.30548,-0.01171,-0.04458
2025-11-23T06:30:31.298077,-0.16644,0.01124,-9.82114,-0.28122,0.07060,-0.06691
2025-11-23T06:30:31.307692,-0.18065,0.03463,-9.83843,-0.36590,0.02571,-0.08947
2025-11-23T06:30:31.317308,-0.09859,0.13076,-9.94256,-0.28223,0.23113,-0.09494
2025-11-23T06:30:31.326923,-0.17631,0.03899,-9.91684,-0.25192,0.01247,-0.16091
2025-11-23T06:30:31.336538,-0.18690,0.04936,-9.85696,-0.27857,0.06046,-0.12545
2025-11-23T06:30:31.346154,-0.16902,0.09607,-9.98285,-0.20987,0.01228,-0.18476
2025-11-23T06:30:31.355769,-0.15440,0.04608,-9.89092,-0.35739,-0.16441,-0.18759
2025-11-23T06:30:31.365385,-0.12657,0.10976,-10.03407,-0.35440,0.10398,-0.13849
2025-11-23T06:30:31.375,-0.08361,0.14471,-9.97911,-0.27400,0.00753,-0.18807
2025-11-23T06:30:31.384615,-0.18416,0.09933,-9.99986,-0.13215,-0.11029,-0.16618
2025-11-23T06:30:31.394231,-0.12262,0.09103,-10.06399,-0.40749,-0.13048,-0.13555
2025-11-23T06:30:31.403846,-0.16320,0.12067,-10.01562,-0.33022,-0.09797,-0.25521
2025-11-23T06:30:31.413462,-0.21538,0.11454,-10.04733,-0.31035,-0.15163,-0.16887
2025-11-23T06:30:31.423077,-0.20351,0.13067,-10.11809,-0.31739,-0.09358,-0.13493
2025-11-23T06:30:31.432692,-0.11662,0.19188,-10.03508,-0.17611,-0.13386,-0.17643
2025-11-23T06:30:31.442308,-0.13497,0.13191,-10.12643,-0.38908,-0.19994,-0.16913
2025-11-23T06:30:31.451923,-0.14030,0.15359,-10.16508,-0.23226,-0.16859,-0.13779
2025-11-23T06:30:31.461538,-0.17920,0.13456,-10.21145,-0.33694,-0.07324,-0.15634
2025-11-23T06:30:31.471154,-0.09260,0.16223,-10.18675,-0.26895,-0.15770,-0.13488
2025-11-23T06:30:31.480769,-0.09074,0.23851,-10.13368,-0.34418,-0.19945,-0.14999
2025-11-23T06:30:31.490385,-0.13277,0.15418,-10.10769,-0.18159,-0.18721,-0.11777
2025-11-23T06:30:31.5,-0.19112,0.17111,-10.21522,-0.28782,-0.20052,-0.10253
2025-11-23T06:30:31.509615,-0.05175,0.18674,-10.26584,-0.19253,-0.19606,-0.19504
2025-11-23T06:30:31.519231,-0.13528,0.21832,-10.17674,-0.24334,-0.21370,-0.16173
2025-11-23T06:30:31.528846,-0.06085,0.21519,-10.23197,-0.13782,-0.18477,-0.09059
2025-11-23T06:30:31.538462,-0.11310,0.24347,-10.20619,-0.07942,-0.22807,-0.09744
2025-11-23T06:30:31.548077,-0.13595,0.18140,-10.31595,-0.05443,-0.32617,-0.08501
2025-11-23T06:30:31.557692,-0.05552,0.22965,-10.26209,-0.14806,-0.26353,-0.16892
2025-11-23T06:30:31.567308,-0.13075,0.24892,-10.30467,-0.12876,-0.22541,-0.14070
2025-11-23T06:30:31.576923,-0.04039,0.21896,-10.23460,-0.11658,-0.47301,-0.17070
2025-11-23T06:30:31.586538,-0.05875,0.25754,-10.34192,-0.01635,-0.17276,-0.12622
2025-11-23T06:30:31.596154,-0.03451,0.35911,-10.24015,-0.01497,-0.26793,-0.17132
2025-11-23T06:30:31.605769,-0.06085,0.26560,-10.23572,-0.06095,-0.28480,-0.15424
2025-11-23T06:30:31.615385,-0.06924,0.20519,-10.34615,-0.11077,-0.44693,-0.17733
2025-11-23T06:30:31.625,-0.02901,0.34046,-10.35985,-0.11021,-0.25810,-0.11430
2025-11-23T06:30:31.634615,-0.04463,0.21622,-10.35206,-0.02513,-0.30468,-0.16525
2025-11-23T06:30:31.644231,-0.01032,0.23864,-10.25546,0.00558,-0.45426,-0.10521
2025-11-23T06:30:31.653846,-0.08490,0.25455,-10.24844,0.09050,-0.48553,0.04839
2025-11-23T06:30:31.663462,0.02325,0.30630,-10.27714,-0.08700,-0.29036,-0.11047
2025-11-23T06:30:31.673077,0.01445,0.34041,-10.32790,0.11154,-0.22428,0.01082
2025-11-23T06:30:31.682692,-0.00511,0.17989,-10.36424,0.02982,-0.40563,-0.06710
2025-11-23T06:30:31.692308,0.04615,0.26610,-10.21463,-0.01659,-0.35978,-0.00515
2025-11-23T06:30:31.701923,-0.02540,0.27210,-10.18852,-0.00005,-0.31965,-0.08711
2025-11-23T06:30:31.711538,0.06486,0.36099,-10.24020,0.01704,-0.28469,-0.05037
2025-11-23T06:30:31.721154,0.03656,0.28948,-10.28668,0.05341,-0.45238,-0.04701
2025-11-23T06:30:31.730769,0.00636,0.26753,-10.22755,-0.00323,-0.38600,-0.06320
2025-11-23T06:30:31.740385,0.06749,0.24740,-10.16863,0.00454,-0.22059,-0.03984
2025-11-23T06:30:31.75,0.09606,0.21760,-10.22430,0.10973,-0.31418,-0.07209
2025-11-23T06:30:31.759615,0.06210,0.30395,-10.21882,0.30325,-0.36654,0.02424
2025-11-23T06:30:31.769231,0.10188,0.21499,-10.18555,0.14835,-0.38399,0.00313
2025-11-23T06:30:31.778846,0.09113,0.27513,-10.22947,0.10283,-0.28487,0.02486
2025-11-23T06:30:31.788462,0.10018,0.24362,-10.19698,0.11978,-0.36121,-0.01096
2025-11-23T06:30:31.798077,0.10344,0.22465,-10.18530,0.10762,-0.17509,0.07393
2025-11-23T06:30:31.807692,0.13191,0.22591,-10.12593,0.39514,-0.36769,0.11677
2025-11-23T06:30:31.817308,0.11612,0.28192,-10.18099,0.24751,-0.33542,0.03274
2025-11-23T06:30:31.826923,0.10342,0.24381,-10.20506,0.37237,-0.18102,0.11378
2025-11-23T06:30:31.836538,0.12135,0.23636,-10.20299,0.29547,-0.04472,-0.00881
2025-11-23T06:30:31.846154,0.10648,0.26968,-10.16145,0.26547,-0.13822,0.08493
2025-11-23T06:30:31.855769,0.10140,0.27055,-10.13064,0.32759,-0.32233,0.13849
2025-11-23T06:30:31.865385,0.11990,0.15640,-10.08963,0.38611,-0.30105,0.05858
2025-11-23T06:30:31.875,0.17239,0.20657,-10.09439,0.28077,-0.12003,0.17029
2025-11-23T06:30:31.884615,0.12590,0.16221,-9.93153,0.29573,-0.27731,0.10609
2025-11-23T06:30:31.894231,0.12943,0.15098,-10.01096,0.18394,-0.27652,0.18020
2025-11-23T06:30:31.903846,0.17528,0.19741,-9.99209,0.46621,-0.12126,0.12925
2025-11-23T06:30:31.913462,0.11509,0.16568,-9.98224,0.17967,-0.16779,0.14107
2025-11-23T06:30:31.923077,0.13408,0.15283,-9.94881,0.24705,-0.09556,0.10106
2025-11-23T06:30:31.932692,0.12691,0.12503,-9.87889,0.30815,-0.14776,0.18261
2025-11-23T06:30:31.942308,0.12571,0.09603,-9.96954,0.28078,-0.17170,0.19415
2025-11-23T06:30:31.951923,0.16627,0.09873,-9.88668,0.46551,-0.07297,0.15323
2025-11-23T06:30:31.961538,0.16465,0.15502,-9.91466,0.33836,-0.00088,0.16736
2025-11-23T06:30:31.971154,0.13334,0.08972,-9.74321,0.32934,-0.10175,0.17124
2025-11-23T06:30:31.980769,0.16594,0.18379,-9.82050,0.46330,-0.02924,0.23598
2025-11-23T06:30:31.990385,0.15969,0.08248,-9.91796,0.42701,-0.05948,0.18979
2025-11-23T06:30:32,0.17518,0.03200,-9.83599,0.38845,-0.00580,0.19852
2025-11-23T06:30:32.009615,0.16211,0.12064,-9.82149,0.47684,0.05960,0.20001
2025-11-23T06:30:32.019231,0.11250,0.01235,-9.76829,0.34887,-0.01894,0.23259
2025-11-23T06:30:32.028846,0.12214,0.02800,-9.74778,0.29151,-0.06220,0.18191
2025-11-23T06:30:32.038462,0.18161,0.00515,-9.74621,0.30814,0.08194,0.13456
2025-11-23T06:30:32.048077,0.14083,0.04900,-9.63468,0.39604,0.14082,0.24698
2025-11-23T06:30:32.057692,0.16069,0.08352,-9.65798,0.37696,0.01926,0.22926
2025-11-23T06:30:32.067308,0.18219,0.03046,-9.63253,0.21459,0.09309,0.27914
2025-11-23T06:30:32.076923,0.09008,0.03401,-9.66002,0.42755,-0.01222,0.28397
2025-11-23T06:30:32.086538,0.13206,-0.02687,-9.49562,0.30532,0.08368,0.23774
2025-11-23T06:30:32.096154,0.20969,-0.03948,-9.67527,0.44167,0.22684,0.29445
2025-11-23T06:30:32.105769,0.15070,-0.07575,-9.64153,0.42389,0.11816,0.36871
2025-11-23T06:30:32.115385,0.17720,0.04274,-9.52842,0.26497,0.20689,0.32445
2025-11-23T06:30:32.125,0.18097,-0.03249,-9.59046,0.31792,0.14347,0.27099
2025-11-23T06:30:32.134615,0.16870,-0.10924,-9.49811,0.40101,0.24344,0.30776
2025-11-23T06:30:32.144231,0.17197,-0.09775,-9.61013,0.40313,0.17567,0.24060
2025-11-23T06:30:32.153846,0.10575,-0.07777,-9.46793,0.16305,0.29350,0.19601
2025-11-23T06:30:32.163462,0.13432,-0.13281,-9.37911,0.25563,0.27225,0.26388
2025-11-23T06:30:32.173077,0.16265,-0.10879,-9.40079,0.25389,0.24327,0.34702
2025-11-23T06:30:32.182692,0.19526,-0.07218,-9.48395,0.34960,0.19916,0.30655
2025-11-23T06:30:32.192308,0.10452,-0.08682,-9.42939,0.22011,0.33443,0.14553
2025-11-23T06:30:32.201923,0.11028,-0.08857,-9.47919,0.31960,0.29434,0.21218
2025-11-23T06:30:32.211538,0.12418,-0.14609,-9.40302,0.34212,0.39102,0.31935
2025-11-23T06:30:32.221154,0.13866,-0.10153,-9.33927,0.25748,0.41367,0.27989
2025-11-23T06:30:32.230769,0.11445,-0.11065,-9.37420,0.31450,0.30481,0.32018
2025-11-23T06:30:32.240385,0.09408,-0.13557,-9.27475,0.21159,0.26134,0.19312
2025-11-23T06:30:32.25,0.09709,-0.09370,-9.41814,0.24560,0.40724,0.31395
2025-11-23T06:30:32.259615,0.09388,-0.17699,-9.36159,0.18977,0.20633,0.24846
2025-11-23T06:30:32.269231,0.03841,-0.08160,-9.34076,0.26634,0.47606,0.18677
2025-11-23T06:30:32.278846,0.07030,-0.14852,-9.34845,0.25978,0.39357,0.19906
2025-11-23T06:30:32.288462,0.03881,-0.16912,-9.34621,0.12854,0.38351,0.16979
2025-11-23T06:30:32.298077,0.07251,-0.15469,-9.23019,0.17684,0.39194,0.20873
2025-11-23T06:30:32.307692,0.05168,-0.07171,-9.38088,0.18866,0.33340,0.27735
2025-11-23T06:30:32.317308,0.07313,-0.10821,-9.39034,0.10148,0.31068,0.18596
2025-11-23T06:30:32.326923,0.01793,-0.17619,-9.37096,0.14819,0.51852,0.07487
2025-11-23T06:30:32.336538,0.04623,-0.20075,-9.34079,0.02369,0.46452,0.16840
2025-11-23T06:30:32.346154,0.01700,-0.22633,-9.30444,0.10182,0.40757,0.20445
2025-11-23T06:30:32.355769,-0.00615,-0.10338,-9.26497,0.01503,0.33758,0.11483
2025-11-23T06:30:32.365385,0.01109,-0.21715,-9.39904,0.11587,0.37353,0.13441
2025-11-23T06:30:32.375,-0.00711,-0.16442,-9.38333,0.15904,0.46722,0.07388
2025-11-23T06:30:32.384615,0.01024,-0.09285,-9.27789,-0.01604,0.41510,0.05581
2025-11-23T06:30:32.394231,0.06982,-0.16152,-9.45652,-0.04033,0.42808,0.04776
2025-11-23T06:30:32.403846,-0.00813,-0.17102,-9.40257,0.04692,0.38057,0.07610
2025-11-23T06:30:32.413462,-0.00590,-0.22768,-9.36879,0.02717,0.38932,0.10341
2025-11-23T06:30:32.423077,0.00057,-0.15171,-9.46099,-0.11102,0.48073,0.16730
2025-11-23T06:30:32.432692,-0.05764,-0.16644,-9.38204,-0.02277,0.30125,0.11880
2025-11-23T06:30:32.442308,-0.08693,-0.14218,-9.42450,-0.23276,0.46005,0.06957
2025-11-23T06:30:32.451923,-0.04886,-0.18327,-9.39724,-0.15382,0.34460,0.07106
2025-11-23T06:30:32.461538,-0.00961,-0.11528,-9.37346,-0.05798,0.42557,0.11447
2025-11-23T06:30:32.471154,-0.09475,-0.15601,-9.49462,-0.13278,0.42103,0.10407
2025-11-23T06:30:32.480769,-0.08338,-0.17112,-9.49799,-0.11790,0.25589,0.02689
2025-11-23T06:30:32.490385,-0.10918,-0.19234,-9.35852,-0.22921,0.47789,0.04124
2025-11-23T06:30:32.5,-0.05366,-0.06281,-9.51305,-0.16896,0.43354,0.01790
2025-11-23T06:30:32.509615,-0.07458,-0.17671,-9.37649,-0.21159,0.19581,-0.01524
2025-11-23T06:30:32.519231,-0.10674,-0.12151,-9.46718,-0.06145,0.33578,0.03302
2025-11-23T06:30:32.528846,-0.09979,-0.11385,-9.55885,-0.09915,0.23245,0.02968
2025-11-23T06:30:32.538462,-0.13040,-0.11774,-9.50617,-0.14326,0.33820,0.01092
2025-11-23T06:30:32.548077,-0.15960,-0.07150,-9.53947,-0.23508,0.38754,-0.01381
2025-11-23T06:30:32.557692,-0.16109,-0.05246,-9.44050,-0.25252,0.29905,-0.07049
2025-11-23T06:30:32.567308,-0.08347,-0.12742,-9.50468,-0.29116,0.30033,-0.00940
2025-11-23T06:30:32.576923,-0.14755,-0.09894,-9.60457,-0.15488,0.17712,-0.05321
2025-11-23T06:30:32.586538,-0.11665,-0.01199,-9.59678,-0.18385,0.29317,0.00409
2025-11-23T06:30:32.596154,-0.14236,-0.07599,-9.68917,-0.38276,0.21275,-0.12873
2025-11-23T06:30:32.605769,-0.09520,-0.04571,-9.67294,-0.30916,0.16974,-0.15945
2025-11-23T06:30:32.615385,-0.14681,-0.10478,-9.69398,-0.32898,0.22103,-0.01804
2025-11-23T06:30:32.625,-0.19329,-0.09621,-9.78542,-0.22199,0.14095,-0.11622
2025-11-23T06:30:32.634615,-0.10526,-0.05828,-9.73873,-0.33499,0.24009,-0.17842
2025-11-23T06:30:32.644231,-0.19204,-0.00314,-9.61401,-0.35334,0.22956,-0.12208
2025-11-23T06:30:32.653846,-0.15895,-0.04057,-9.66684,-0.42157,0.17348,-0.12526
2025-11-23T06:30:32.663462,-0.12751,0.00232,-9.76349,-0.24348,-0.01180,-0.07479
2025-11-23T06:30:32.673077,-0.12499,-0.05087,-9.81132,-0.35201,0.07280,-0.10689
2025-11-23T06:30:32.682692,-0.21391,0.00846,-9.82195,-0.34703,0.04683,-0.06712
2025-11-23T06:30:32.692308,-0.18187,0.07215,-9.74238,-0.27631,0.03022,-0.18867
2025-11-23T06:30:32.701923,-0.11464,0.09031,-9.86489,-0.25554,0.11604,-0.09504
2025-11-23T06:30:32.711538,-0.16980,0.01240,-9.88409,-0.31630,-0.02248,-0.25772
2025-11-23T06:30:32.721154,-0.09966,0.07860,-9.85059,-0.33734,0.02432,-0.16842
2025-11-23T06:30:32.730769,-0.15531,0.04925,-9.98352,-0.27330,-0.00562,-0.13580
2025-11-23T06:30:32.740385,-0.15376,0.06462,-9.98398,-0.32703,0.04842,-0.15845
2025-11-23T06:30:32.75,-0.16844,0.06431,-9.96194,-0.32841,-0.05672,-0.15513
2025-11-23T06:30:32.759615,-0.11536,0.13009,-10.01886,-0.23578,-0.08890,-0.14108
2025-11-23T06:30:32.769231,-0.16502,0.06883,-9.99983,-0.27827,-0.05142,-0.22786
2025-11-23T06:30:32.778846,-0.20884,0.11837,-9.97179,-0.26727,-0.09749,-0.21126
2025-11-23T06:30:32.788462,-0.16729,0.08066,-9.98738,-0.28281,-0.01938,-0.21657
2025-11-23T06:30:32.798077,-0.13343,0.15956,-10.05280,-0.32354,-0.15675,-0.12249
2025-11-23T06:30:32.807692,-0.10060,0.17873,-10.05559,-0.29837,0.04701,-0.18674
2025-11-23T06:30:32.817308,-0.18393,0.09038,-10.07890,-0.23641,-0.14976,-0.26548
2025-11-23T06:30:32.826923,-0.18185,0.18809,-10.05802,-0.05865,-0.08639,-0.23662
2025-11-23T06:30:32.836538,-0.14605,0.13649,-10.14030,-0.18120,-0.11960,-0.17720
2025-11-23T06:30:32.846154,-0.08727,0.12563,-10.16950,-0.33785,-0.06325,-0.14098
2025-11-23T06:30:32.855769,-0.12138,0.16654,-10.15711,-0.24498,-0.15389,-0.22435
2025-11-23T06:30:32.865385,-0.13097,0.17890,-10.19702,-0.16548,-0.22256,-0.18821
2025-11-23T06:30:32.875,-0.09038,0.14823,-10.15416,-0.18317,-0.33228,-0.24812
2025-11-23T06:30:32.884615,-0.14816,0.22706,-10.21248,-0.17523,-0.25880,-0.18314
2025-11-23T06:30:32.894231,-0.09017,0.20586,-10.23500,-0.26747,-0.22871,-0.17826
2025-11-23T06:30:32.903846,-0.08476,0.17959,-10.19586,-0.00642,-0.27285,-0.17537
2025-11-23T06:30:32.913462,-0.09312,0.18809,-10.16381,-0.18623,-0.31678,-0.19944
2025-11-23T06:30:32.923077,-0.09272,0.16784,-10.25354,-0.10207,-0.13460,-0.14911
2025-11-23T06:30:32.932692,-0.05470,0.29387,-10.19654,-0.15215,-0.26383,-0.17101
2025-11-23T06:30:32.942308,-0.10271,0.14814,-10.29180,-0.27291,-0.28603,-0.17491
2025-11-23T06:30:32.951923,-0.04703,0.24072,-10.18151,0.01306,-0.38344,-0.11811
2025-11-23T06:30:32.961538,-0.03866,0.21236,-10.30031,-0.16239,-0.35944,-0.16933
2025-11-23T06:30:32.971154,-0.04289,0.24215,-10.25645,-0.22307,-0.36837,-0.18631
2025-11-23T06:30:32.980769,-0.02562,0.24613,-10.27876,-0.07592,-0.27018,-0.17592
2025-11-23T06:30:32.990385,-0.04229,0.25322,-10.25670,0.00838,-0.25909,-0.12704
2025-11-23T06:30:33,-0.00254,0.25318,-10.38867,0.04531,-0.32258,-0.19758
2025-11-23T06:30:33.009615,0.02977,0.27644,-10.36464,0.00441,-0.36218,-0.03610
2025-11-23T06:30:33.019231,-0.02431,0.24450,-10.30740,-0.16906,-0.30782,-0.04092
2025-11-23T06:30:33.028846,-0.03634,0.35386,-10.26423,-0.01756,-0.26303,-0.09068
2025-11-23T06:30:33.038462,-0.02755,0.18942,-10.18299,-0.01405,-0.38503,-0.09220
2025-11-23T06:30:33.048077,-0.02015,0.24083,-10.27862,0.10388,-0.37685,-0.07643
2025-11-23T06:30:33.057692,0.00879,0.22415,-10.22575,0.07205,-0.34305,-0.15979
2025-11-23T06:30:33.067308,0.03020,0.25691,-10.31540,0.11987,-0.29352,-0.11402
2025-11-23T06:30:33.076923,0.00682,0.26606,-10.30737,0.03902,-0.35436,0.00078
2025-11-23T06:30:33.086538,0.07146,0.25838,-10.24479,0.14657,-0.32106,0.05380
2025-11-23T06:30:33.096154,0.06932,0.24222,-10.27225,-0.11001,-0.26910,-0.01712
2025-11-23T06:30:33.105769,0.08784,0.25505,-10.20252,0.06190,-0.36090,0.00382
2025-11-23T06:30:33.115385,0.05484,0.24736,-10.28186,0.15878,-0.36071,-0.11842
2025-11-23T06:30:33.125,0.00536,0.26098,-10.20114,0.18735,-0.41374,-0.04677
2025-11-23T06:30:33.134615,0.03818,0.20253,-10.17143,0.23400,-0.29695,-0.05186
2025-11-23T06:30:33.144231,0.08927,0.19572,-10.20489,0.15930,-0.39475,-0.00133
2025-11-23T06:30:33.153846,0.08252,0.18516,-10.20177,0.21417,-0.29075,0.05104
2025-11-23T06:30:33.163462,0.08417,0.25598,-10.08075,0.24038,-0.36473,0.04686
2025-11-23T06:30:33.173077,0.16150,0.24631,-10.13794,0.24961,-0.16901,0.03009
2025-11-23T06:30:33.182692,0.04753,0.28548,-10.08621,0.25853,-0.27172,0.03349
2025-11-23T06:30:33.192308,0.11497,0.24345,-10.12675,0.30839,-0.24328,0.07170
2025-11-23T06:30:33.201923,0.16655,0.19694,-10.13698,0.30935,-0.20214,0.07483
2025-11-23T06:30:33.211538,0.07097,0.17883,-10.08751,0.23769,-0.20245,0.21011
2025-11-23T06:30:33.221154,0.08495,0.17993,-10.15192,0.23217,-0.32498,0.02871
2025-11-23T06:30:33.230769,0.07439,0.14471,-10.05931,0.28426,-0.16566,0.12279
2025-11-23T06:30:33.240385,0.07868,0.28373,-10.00502,0.27518,-0.30734,0.09831
2025-11-23T06:30:33.25,0.14906,0.18839,-10.07164,0.36647,-0.28659,0.10212
2025-11-23T06:30:33.259615,0.14496,0.13836,-9.93386,0.26818,-0.06213,0.04160
2025-11-23T06:30:33.269231,0.09506,0.17692,-9.97655,0.22859,-0.10564,0.06464
2025-11-23T06:30:33.278846,0.15711,0.09084,-9.91060,0.36526,-0.20504,0.06134
2025-11-23T06:30:33.288462,0.15934,0.14112,-10.02888,0.29666,-0.05213,0.10382
2025-11-23T06:30:33.298077,0.16031,0.14833,-9.98317,0.23194,-0.22958,0.10390
2025-11-23T06:30:33.307692,0.16620,0.14709,-9.92198,0.27658,-0.28419,0.10921
2025-11-23T06:30:33.317308,0.14433,0.07987,-9.96853,0.34600,-0.11069,0.10952
2025-11-23T06:30:33.326923,0.12461,0.12253,-9.79870,0.31112,-0.02235,0.21800
2025-11-23T06:30:33.336538,0.21802,0.11671,-9.88519,0.34698,-0.04684,0.15817
2025-11-23T06:30:33.346154,0.13795,0.06135,-9.81242,0.41650,0.00286,0.10822
2025-11-23T06:30:33.355769,0.21429,0.04407,-9.82067,0.35135,-0.16961,0.13198
2025-11-23T06:30:33.365385,0.14122,0.11956,-9.76162,0.44279,-0.09808,0.17041
2025-11-23T06:30:33.375,0.14161,0.10872,-9.71244,0.29538,-0.20900,0.10604
2025-11-23T06:30:33.384615,0.18345,0.06043,-9.80511,0.38845,-0.07880,0.18113
2025-11-23T06:30:33.394231,0.19008,0.02356,-9.79956,0.34812,-0.11087,0.15151
2025-11-23T06:30:33.403846,0.15307,0.01599,-9.79649,0.29689,0.01539,0.18149
2025-11-23T06:30:33.413462,0.19764,0.04854,-9.70960,0.23852,-0.05453,0.23316
2025-11-23T06:30:33.423077,0.18844,0.01261,-9.70804,0.33192,0.11970,0.21670
2025-11-23T06:30:33.432692,0.18166,0.03254,-9.71142,0.49706,0.08509,0.20319
2025-11-23T06:30:33.442308,0.16143,0.03179,-9.70392,0.33009,-0.07561,0.26640
2025-11-23T06:30:33.451923,0.13796,-0.03800,-9.64109,0.39101,0.14084,0.29629
2025-11-23T06:30:33.461538,0.14345,0.02059,-9.60493,0.33675,0.10650,0.20655
2025-11-23T06:30:33.471154,0.14437,-0.04660,-9.55685,0.24664,0.08497,0.28884
2025-11-23T06:30:33.480769,0.17821,-0.09188,-9.44635,0.17986,0.24362,0.29024
2025-11-23T06:30:33.490385,0.24372,-0.04350,-9.54087,0.29332,0.21428,0.15714
2025-11-23T06:30:33.5,0.11922,-0.05783,-9.53346,0.25673,0.25343,0.23054
2025-11-23T06:30:33.509615,0.12652,-0.07802,-9.52128,0.29496,0.25344,0.17824
2025-11-23T06:30:33.519231,0.17231,-0.08166,-9.53435,0.25742,0.24005,0.25994
2025-11-23T06:30:33.528846,0.15074,-0.07654,-9.47418,0.32908,0.31537,0.25943
2025-11-23T06:30:33.538462,0.18062,-0.06366,-9.49032,0.40650,0.19875,0.19704
2025-11-23T06:30:33.548077,0.16164,-0.13202,-9.49289,0.26333,0.28933,0.20601
2025-11-23T06:30:33.557692,0.12897,-0.15015,-9.43545,0.33255,0.24938,0.30962
2025-11-23T06:30:33.567308,0.13151,-0.10600,-9.38953,0.37500,0.17122,0.25783
2025-11-23T06:30:33.576923,0.13666,-0.15499,-9.48417,0.41621,0.29123,0.13151
2025-11-23T06:30:33.586538,0.06259,-0.20349,-9.49406,0.29768,0.28097,0.18682
2025-11-23T06:30:33.596154,0.04984,-0.13031,-9.44444,0.18211,0.25631,0.18967
2025-11-23T06:30:33.605769,0.09324,-0.04373,-9.44563,0.13974,0.32365,0.22183
2025-11-23T06:30:33.615385,0.13232,-0.16156,-9.44026,0.20428,0.30601,0.22354
2025-11-23T06:30:33.625,0.12484,-0.13237,-9.33010,0.13731,0.21213,0.22212
2025-11-23T06:30:33.634615,0.08822,-0.16031,-9.38975,0.32147,0.15339,0.22269
2025-11-23T06:30:33.644231,0.08475,-0.11657,-9.26860,0.12893,0.34416,0.16404
2025-11-23T06:30:33.653846,0.09913,-0.16698,-9.35136,0.15301,0.29851,0.16081
2025-11-23T06:30:33.663462,0.12033,-0.15967,-9.41759,0.26463,0.29902,0.18754
2025-11-23T06:30:33.673077,0.07213,-0.18107,-9.34177,0.31722,0.20055,0.15937
2025-11-23T06:30:33.682692,0.01955,-0.07515,-9.35864,0.30761,0.39986,0.15356
2025-11-23T06:30:33.692308,0.08962,-0.14716,-9.32991,0.16142,0.46154,0.18401
2025-11-23T06:30:33.701923,0.05763,-0.19223,-9.35389,0.06902,0.35252,0.15750
2025-11-23T06:30:33.711538,0.10337,-0.17272,-9.17415,0.19278,0.40891,0.10428
2025-11-23T06:30:33.721154,0.03982,-0.09474,-9.40241,0.24271,0.35921,0.15812
2025-11-23T06:30:33.730769,0.01746,-0.14595,-9.32930,0.01589,0.44511,0.14913
2025-11-23T06:30:33.740385,0.05407,-0.17534,-9.40303,-0.01460,0.47469,0.14219
2025-11-23T06:30:33.75,0.01523,-0.17433,-9.35409,0.01989,0.53246,0.11019
2025-11-23T06:30:33.759615,-0.01426,-0.14700,-9.30227,0.04000,0.38469,0.07543
2025-11-23T06:30:33.769231,0.01192,-0.07683,-9.38175,0.03215,0.44235,0.07019
2025-11-23T06:30:33.778846,-0.00299,-0.16186,-9.35324,0.09856,0.44888,0.09021
2025-11-23T06:30:33.788462,0.00378,-0.13815,-9.35085,0.04642,0.35489,-0.00502
2025-11-23T06:30:33.798077,-0.00604,-0.11029,-9.35723,0.06214,0.46779,0.10667
2025-11-23T06:30:33.807692,-0.02222,-0.21193,-9.34326,0.06010,0.33849,0.14686
2025-11-23T06:30:33.817308,-0.03985,-0.19906,-9.35377,-0.02323,0.48481,0.06981
2025-11-23T06:30:33.826923,-0.08166,-0.17218,-9.42563,0.02910,0.36214,0.11387
2025-11-23T06:30:33.836538,-0.03876,-0.15776,-9.35962,0.01435,0.30971,0.04628
2025-11-23T06:30:33.846154,-0.05970,-0.19097,-9.47460,0.02048,0.35830,0.02771
2025-11-23T06:30:33.855769,-0.08495,-0.11790,-9.38156,-0.04705,0.38165,0.00269
2025-11-23T06:30:33.865385,-0.05402,-0.10657,-9.37906,-0.05466,0.36459,0.08272
2025-11-23T06:30:33.875,-0.09608,-0.16634,-9.48826,-0.09110,0.35262,-0.11656
2025-11-23T06:30:33.884615,-0.07125,-0.18658,-9.38489,-0.15888,0.24102,-0.07700
2025-11-23T06:30:33.894231,-0.04703,-0.13552,-9.52117,-0.16733,0.25600,-0.04081
2025-11-23T06:30:33.903846,-0.06827,-0.14510,-9.45226,-0.19798,0.20833,-0.07262
2025-11-23T06:30:33.913462,-0.10677,-0.08590,-9.50582,-0.03700,0.33482,-0.07215
2025-11-23T06:30:33.923077,-0.12641,-0.18671,-9.49151,-0.15677,0.28602,-0.07876
2025-11-23T06:30:33.932692,-0.12513,-0.07316,-9.44870,-0.13913,0.15960,-0.09683
2025-11-23T06:30:33.942308,-0.06170,-0.17174,-9.50165,-0.21615,0.36358,-0.07907
2025-11-23T06:30:33.951923,-0.15530,-0.15528,-9.58215,-0.25300,0.34415,-0.01671
2025-11-23T06:30:33.961538,-0.12106,-0.13185,-9.49579,-0.16774,0.28315,-0.11184
2025-11-23T06:30:33.971154,-0.15530,-0.08292,-9.58073,-0.25414,0.21009,-0.02158
2025-11-23T06:30:33.980769,-0.13272,-0.11879,-9.62442,-0.16855,0.34660,-0.19677
2025-11-23T06:30:33.990385,-0.13224,-0.09120,-9.63776,-0.14273,0.18052,-0.12187
2025-11-23T06:30:34,-0.13846,-0.03643,-9.63924,-0.20765,0.19691,-0.17317
2025-11-23T06:30:34.009615,-0.13094,-0.09745,-9.71020,-0.20951,0.22441,-0.21837
2025-11-23T06:30:34.019231,-0.14303,-0.01857,-9.67221,-0.27431,0.32817,-0.19116
2025-11-23T06:30:34.028846,-0.17487,-0.05750,-9.67514,-0.06930,0.09872,-0.14671
2025-11-23T06:30:34.038462,-0.18152,-0.02913,-9.70804,-0.21110,0.22686,-0.10031
2025-11-23T06:30:34.048077,-0.18080,-0.04273,-9.72148,-0.27475,0.14076,-0.19865
2025-11-23T06:30:34.057692,-0.16168,-0.01313,-9.76341,-0.16216,0.15047,-0.15967
2025-11-23T06:30:34.067308,-0.18190,0.00619,-9.80667,-0.21649,0.11506,-0.11469
2025-11-23T06:30:34.076923,-0.18120,0.01194,-9.80150,-0.24319,0.09685,-0.12825
2025-11-23T06:30:34.086538,-0.19974,0.04431,-9.90826,-0.32940,-0.03960,-0.09845
2025-11-23T06:30:34.096154,-0.17209,-0.06742,-9.84580,-0.21457,0.05036,-0.13843
2025-11-23T06:30:34.105769,-0.16841,0.02689,-9.75326,-0.23691,0.06251,-0.22119
2025-11-23T06:30:34.115385,-0.19081,-0.01478,-9.87226,-0.29291,0.17145,-0.31306
2025-11-23T06:30:34.125,-0.19138,0.00459,-9.86483,-0.14928,-0.04430,-0.27790
2025-11-23T06:30:34.134615,-0.16787,-0.04956,-9.83279,-0.27702,0.08445,-0.20498
2025-11-23T06:30:34.144231,-0.11341,0.10498,-10.03102,-0.32792,0.11587,-0.22474
2025-11-23T06:30:34.153846,-0.16039,0.05228,-9.96666,-0.28284,-0.05467,-0.19293
2025-11-23T06:30:34.163462,-0.16073,0.11695,-9.94232,-0.26707,0.00064,-0.19226
2025-11-23T06:30:34.173077,-0.17190,0.09346,-9.88934,-0.16302,-0.05379,-0.23590
2025-11-23T06:30:34.182692,-0.15701,0.02254,-10.08841,-0.23004,-0.01084,-0.17729
2025-11-23T06:30:34.192308,-0.16869,0.10549,-9.99340,-0.30738,-0.11991,-0.32308
2025-11-23T06:30:34.201923,-0.13780,0.10064,-9.98562,-0.22256,-0.13649,-0.20376
2025-11-23T06:30:34.211538,-0.13946,0.06677,-10.04793,-0.23949,-0.12694,-0.17764
2025-11-23T06:30:34.221154,-0.15720,0.02440,-10.07080,-0.26928,-0.26979,-0.20894
2025-11-23T06:30:34.230769,-0.15538,0.08353,-10.04213,-0.33991,-0.15331,-0.12648
2025-11-23T06:30:34.240385,-0.14588,0.08294,-10.09734,-0.19974,-0.21558,-0.20728
2025-11-23T06:30:34.25,-0.18603,0.09847,-10.19136,-0.14730,-0.11360,-0.18922
2025-11-23T06:30:34.259615,-0.13307,0.14891,-10.16788,-0.20599,-0.12324,-0.21267
2025-11-23T06:30:34.269231,-0.13976,0.15866,-10.15214,-0.23919,-0.22847,-0.18766
2025-11-23T06:30:34.278846,-0.15755,0.13429,-10.14438,-0.27247,-0.27961,-0.23896
2025-11-23T06:30:34.288462,-0.08081,0.16066,-10.18095,-0.29205,-0.24283,-0.14949
2025-11-23T06:30:34.298077,-0.09945,0.17214,-10.18799,-0.17839,-0.16617,-0.19679
2025-11-23T06:30:34.307692,-0.13951,0.16844,-10.23654,-0.10820,-0.37060,-0.22872
2025-11-23T06:30:34.317308,-0.14608,0.18433,-10.13610,-0.18122,-0.19043,-0.21066
2025-11-23T06:30:34.326923,-0.10535,0.16946,-10.23556,-0.13450,-0.21422,-0.17460
2025-11-23T06:30:34.336538,-0.08681,0.18424,-10.23521,-0.25579,-0.29209,-0.24680
2025-11-23T06:30:34.346154,-0.09637,0.20696,-10.28609,-0.18628,-0.32062,-0.16206
2025-11-23T06:30:34.355769,-0.14267,0.18985,-10.19630,-0.17699,-0.25912,-0.24638
2025-11-23T06:30:34.365385,-0.05386,0.15884,-10.30156,-0.04731,-0.29017,-0.21348
2025-11-23T06:30:34.375,-0.05918,0.21727,-10.22972,-0.15965,-0.24794,-0.23200
2025-11-23T06:30:34.384615,-0.04957,0.24148,-10.22848,-0.29172,-0.23226,-0.20639
2025-11-23T06:30:34.394231,-0.11310,0.20327,-10.23303,0.00751,-0.34067,-0.23357
2025-11-23T06:30:34.403846,-0.00348,0.23053,-10.31520,-0.01201,-0.18441,-0.25556
2025-11-23T06:30:34.413462,-0.01533,0.21668,-10.35426,-0.03483,-0.24347,-0.07424
2025-11-23T06:30:34.423077,-0.06119,0.21416,-10.29380,-0.11704,-0.33245,-0.30127
2025-11-23T06:30:34.432692,0.02886,0.26810,-10.30600,-0.00812,-0.40343,-0.19898
2025-11-23T06:30:34.442308,-0.02430,0.19319,-10.28723,0.03016,-0.28687,-0.14433
2025-11-23T06:30:34.451923,-0.03317,0.27916,-10.32713,-0.10340,-0.24483,-0.20437
2025-11-23T06:30:34.461538,-0.00346,0.31395,-10.25203,0.04092,-0.39205,-0.18685
2025-11-23T06:30:34.471154,0.01805,0.33834,-10.27096,0.01234,-0.25975,-0.14521
2025-11-23T06:30:34.480769,0.01224,0.20397,-10.26023,-0.08961,-0.25532,-0.19151
2025-11-23T06:30:34.490385,-0.02446,0.29484,-10.32472,0.02604,-0.36692,-0.24930
2025-11-23T06:30:34.5,-0.03824,0.27118,-10.32214,-0.03729,-0.33381,-0.16153
2025-11-23T06:30:34.509615,0.02340,0.28799,-10.37853,-0.07673,-0.29528,-0.14503
2025-11-23T06:30:34.519231,-0.00366,0.20576,-10.41254,0.07042,-0.39951,-0.09867
2025-11-23T06:30:34.528846,0.06546,0.29121,-10.22947,-0.01530,-0.36239,-0.13497
2025-11-23T06:30:34.538462,0.03301,0.25629,-10.24875,0.04363,-0.24236,-0.09143
2025-11-23T06:30:34.548077,0.02445,0.28466,-10.27651,0.07290,-0.37751,-0.06065
2025-11-23T06:30:34.557692,0.01005,0.26692,-10.28193,-0.01565,-0.28543,-0.12203
2025-11-23T06:30:34.567308,0.07452,0.28473,-10.27718,0.10115,-0.41677,0.00392
2025-11-23T06:30:34.576923,0.03489,0.15897,-10.16436,0.13032,-0.31407,-0.07011
2025-11-23T06:30:34.586538,0.00272,0.28209,-10.25929,0.10196,-0.19897,-0.01975
2025-11-23T06:30:34.596154,0.06119,0.25755,-10.22815,0.05812,-0.37128,-0.12141
2025-11-23T06:30:34.605769,0.09292,0.20380,-10.20306,0.19463,-0.34731,-0.05893
2025-11-23T06:30:34.615385,0.09438,0.21249,-10.20284,0.04616,-0.30846,0.01525
2025-11-23T06:30:34.625,0.09412,0.22851,-10.22447,0.16505,-0.25855,-0.07648
2025-11-23T06:30:34.634615,0.02566,0.18214,-10.26675,0.09010,-0.21653,-0.04011
2025-11-23T06:30:34.644231,0.12222,0.19839,-10.10553,0.22273,-0.28947,-0.00091
2025-11-23T06:30:34.653846,0.08648,0.23866,-10.17853,0.19630,-0.21538,0.05462
2025-11-23T06:30:34.663462,0.08275,0.19745,-10.13149,0.19328,-0.31191,0.07364
2025-11-23T06:30:34.673077,0.11452,0.27832,-10.13038,0.30943,-0.29985,-0.02659
2025-11-23T06:30:34.682692,0.15986,0.15360,-10.03913,0.16123,-0.27802,0.04664
2025-11-23T06:30:34.692308,0.06002,0.20901,-10.15824,0.41994,-0.26870,0.02107
2025-11-23T06:30:34.701923,0.07533,0.22826,-10.10596,0.28750,-0.29347,-0.00672
2025-11-23T06:30:34.711538,0.06443,0.19951,-10.13527,0.22503,-0.17321,-0.01599
2025-11-23T06:30:34.721154,0.16743,0.23030,-10.08676,0.24823,-0.28643,0.04143
2025-11-23T06:30:34.730769,0.15430,0.11819,-10.09082,0.14504,-0.07175,0.04074
2025-11-23T06:30:34.740385,0.16267,0.08067,-10.03084,0.43134,-0.23647,0.04491
2025-11-23T06:30:34.75,0.13505,0.19671,-10.00649,0.30918,-0.22457,0.06595
2025-11-23T06:30:34.759615,0.15962,0.14182,-10.12232,0.33930,-0.13739,0.01029
2025-11-23T06:30:34.769231,0.16900,0.10211,-10.00648,0.31026,-0.09449,0.06105
2025-11-23T06:30:34.778846,0.19326,0.18032,-9.97156,0.20233,-0.22524,0.09660
2025-11-23T06:30:34.788462,0.15811,0.14223,-9.91724,0.33989,-0.21933,0.05683
2025-11-23T06:30:34.798077,0.13576,0.16586,-9.94080,0.25265,-0.24146,0.10525
2025-11-23T06:30:34.807692,0.15414,0.15762,-9.96727,0.32540,-0.18547,0.09229
2025-11-23T06:30:34.817308,0.12514,0.15900,-9.92201,0.24560,-0.13908,0.01543
2025-11-23T06:30:34.826923,0.15093,0.12212,-9.89658,0.32105,-0.21695,0.09546
2025-11-23T06:30:34.836538,0.15602,0.10060,-9.94567,0.21432,-0.12610,0.12161
2025-11-23T06:30:34.846154,0.19954,0.10503,-9.84676,0.25415,-0.15996,0.07891
2025-11-23T06:30:34.855769,0.16209,0.07121,-9.79666,0.34314,-0.06158,0.12185
2025-11-23T06:30:34.865385,0.17794,0.08607,-9.82159,0.30127,0.08841,0.07241
2025-11-23T06:30:34.875,0.12961,0.06613,-9.70313,0.39716,-0.01543,0.14373
2025-11-23T06:30:34.884615,0.16037,0.03653,-9.77039,0.39622,-0.02514,0.15135
2025-11-23T06:30:34.894231,0.23585,0.09882,-9.77392,0.27408,-0.01743,0.07156
2025-11-23T06:30:34.903846,0.19482,0.09187,-9.84229,0.35422,-0.07432,0.05348
2025-11-23T06:30:34.913462,0.19716,-0.03150,-9.67089,0.47486,0.02776,0.15409
2025-11-23T06:30:34.923077,0.18213,0.03669,-9.66975,0.51290,0.04822,0.15068
2025-11-23T06:30:34.932692,0.13152,-0.00169,-9.72213,0.38077,-0.01366,0.21875
2025-11-23T06:30:34.942308,0.15372,0.03001,-9.63207,0.25626,0.04419,0.16918
2025-11-23T06:30:34.951923,0.20101,-0.03563,-9.64984,0.27080,0.07146,0.09240
2025-11-23T06:30:34.961538,0.19278,-0.01630,-9.71255,0.45089,0.02983,0.20624
2025-11-23T06:30:34.971154,0.21741,-0.00472,-9.55364,0.22101,0.11379,0.12671
2025-11-23T06:30:34.980769,0.17157,0.04020,-9.70052,0.32527,0.01343,0.19825
2025-11-23T06:30:34.990385,0.18288,-0.01550,-9.61218,0.36587,0.14525,0.12101
2025-11-23T06:30:35,0.16704,-0.00711,-9.60485,0.39411,-0.06045,0.04899
2025-11-23T06:30:35.009615,0.15648,-0.05201,-9.56554,0.36258,0.06193,0.07881
2025-11-23T06:30:35.019231,0.08321,-0.06329,-9.47474,0.34168,0.04702,0.14230
2025-11-23T06:30:35.028846,0.12446,-0.03308,-9.52082,0.38074,0.21233,0.12498
2025-11-23T06:30:35.038462,0.20221,-0.04322,-9.50813,0.46678,0.05191,0.18701
2025-11-23T06:30:35.048077,0.14889,-0.01706,-9.55302,0.25622,0.02269,0.16570
2025-11-23T06:30:35.057692,0.11111,-0.09889,-9.44126,0.27614,0.18724,0.16700
2025-11-23T06:30:35.067308,0.16980,-0.08439,-9.43147,0.14184,0.03663,0.03246
2025-11-23T06:30:35.076923,0.15398,-0.09914,-9.46193,0.33008,0.14006,0.15819
2025-11-23T06:30:35.086538,0.12204,-0.04981,-9.47660,0.26064,0.12722,0.11271
2025-11-23T06:30:35.096154,0.09936,-0.23482,-9.47423,0.12655,0.05026,0.17504
2025-11-23T06:30:35.105769,0.15184,-0.09802,-9.47404,0.30896,0.07199,0.07317
2025-11-23T06:30:35.115385,0.14879,-0.17558,-9.48218,0.18401,0.20719,0.11431
2025-11-23T06:30:35.125,0.07972,-0.14805,-9.41313,0.17809,0.22003,0.21954
2025-11-23T06:30:35.134615,0.15455,-0.15964,-9.44855,0.15872,0.23486,0.15149
2025-11-23T06:30:35.144231,0.14767,-0.10457,-9.46795,0.22647,0.22051,0.15862
2025-11-23T06:30:35.153846,0.09105,-0.21574,-9.39138,0.17708,0.25170,0.06804
2025-11-23T06:30:35.163462,0.06807,-0.12170,-9.40605,0.24151,0.14632,0.12076
2025-11-23T06:30:35.173077,0.08012,-0.13122,-9.36702,0.18961,0.28862,0.12187
2025-11-23T06:30:35.182692,0.08831,-0.17078,-9.35334,0.16415,0.26229,0.16402
2025-11-23T06:30:35.192308,0.04685,-0.16549,-9.37010,0.26203,0.21335,0.09447
2025-11-23T06:30:35.201923,0.07557,-0.09876,-9.28412,0.22005,0.26351,0.05265
2025-11-23T06:30:35.211538,0.08188,-0.19157,-9.35427,0.15443,0.27114,0.16825
2025-11-23T06:30:35.221154,0.04108,-0.23752,-9.38902,0.19750,0.28109,0.06290
2025-11-23T06:30:35.230769,0.02237,-0.23360,-9.38863,0.24871,0.16302,0.15047
2025-11-23T06:30:35.240385,0.05812,-0.20490,-9.34396,0.18631,0.26050,0.13361
2025-11-23T06:30:35.25,0.06398,-0.18561,-9.32301,0.05326,0.29103,0.08942
2025-11-23T06:30:35.259615,0.01966,-0.22028,-9.32449,-0.01347,0.20992,-0.00170
2025-11-23T06:30:35.269231,0.05284,-0.14372,-9.29685,0.19530,0.30845,0.04606
2025-11-23T06:30:35.278846,0.01936,-0.12865,-9.29701,0.11851,0.32168,0.10825
2025-11-23T06:30:35.288462,-0.00313,-0.18651,-9.36968,0.18879,0.30679,0.01868
2025-11-23T06:30:35.298077,0.02784,-0.17092,-9.32343,-0.05053,0.24815,0.07936
2025-11-23T06:30:35.307692,-0.01751,-0.17301,-9.37009,0.08864,0.30065,0.08289
2025-11-23T06:30:35.317308,-0.01963,-0.25122,-9.31137,0.06179,0.15936,0.00062
2025-11-23T06:30:35.326923,0.04111,-0.16354,-9.43046,0.04939,0.30598,0.05723
2025-11-23T06:30:35.336538,0.05687,-0.13678,-9.34858,-0.02170,0.41595,0.00431
2025-11-23T06:30:35.346154,-0.02974,-0.18428,-9.36448,0.07359,0.29397,0.12351
2025-11-23T06:30:35.355769,0.02674,-0.20660,-9.36911,0.18497,0.21305,-0.00393
2025-11-23T06:30:35.365385,-0.07587,-0.15308,-9.39438,-0.01877,0.24304,-0.03437
2025-11-23T06:30:35.375,0.05378,-0.16517,-9.32264,-0.09540,0.26567,-0.05033
2025-11-23T06:30:35.384615,-0.02252,-0.19723,-9.39452,-0.10557,0.30586,-0.06621
2025-11-23T06:30:35.394231,-0.05032,-0.18204,-9.32070,0.00938,0.27666,-0.00184
2025-11-23T06:30:35.403846,-0.02355,-0.22839,-9.43925,-0.01657,0.23301,0.02019
2025-11-23T06:30:35.413462,-0.04211,-0.11107,-9.34111,0.07558,0.26418,-0.08673
2025-11-23T06:30:35.423077,-0.01650,-0.21674,-9.40528,-0.01600,0.13115,-0.03848
2025-11-23T06:30:35.432692,-0.05377,-0.11206,-9.42597,-0.09954,0.09329,0.02086
2025-11-23T06:30:35.442308,-0.04576,-0.17538,-9.49833,0.05384,0.22060,-0.04103
2025-11-23T06:30:35.451923,-0.03113,-0.20451,-9.41211,-0.03187,0.30916,-0.03372
2025-11-23T06:30:35.461538,-0.08399,-0.19605,-9.55282,-0.12385,0.30770,-0.03166
2025-11-23T06:30:35.471154,-0.13127,-0.18565,-9.40927,-0.02633,0.17819,-0.00518
2025-11-23T06:30:35.480769,-0.05331,-0.23324,-9.54366,-0.04000,0.23033,-0.04674
2025-11-23T06:30:35.490385,-0.05593,-0.09865,-9.46679,-0.20593,0.31119,-0.03246
2025-11-23T06:30:35.5,-0.01517,-0.16061,-9.44107,-0.22747,0.17575,-0.10282
2025-11-23T06:30:35.509615,-0.11193,-0.09045,-9.53133,-0.13645,0.22702,-0.13689
2025-11-23T06:30:35.519231,-0.10266,-0.07921,-9.48557,-0.09223,0.13686,-0.16389
2025-11-23T06:30:35.528846,-0.11189,-0.12056,-9.62103,-0.19816,0.06973,-0.01874
2025-11-23T06:30:35.538462,-0.13550,-0.11084,-9.53454,-0.10977,0.04847,-0.03293
2025-11-23T06:30:35.548077,-0.06937,-0.14989,-9.53489,-0.08134,0.21403,-0.10937
2025-11-23T06:30:35.557692,-0.08896,-0.09989,-9.53915,-0.00605,0.06923,-0.11430
2025-11-23T06:30:35.567308,-0.16233,-0.07634,-9.52526,-0.22739,0.22414,-0.15929
2025-11-23T06:30:35.576923,-0.13237,-0.17109,-9.58438,-0.21978,0.16650,-0.11456
2025-11-23T06:30:35.586538,-0.16150,-0.17466,-9.59212,-0.04696,0.21415,-0.15082
2025-11-23T06:30:35.596154,-0.09438,-0.13164,-9.55524,-0.11626,0.12728,-0.10744
2025-11-23T06:30:35.605769,-0.09554,0.05366,-9.57272,-0.15874,0.06764,-0.07584
2025-11-23T06:30:35.615385,-0.12045,-0.15328,-9.54513,-0.09289,0.09064,-0.16177
2025-11-23T06:30:35.625,-0.12087,-0.07404,-9.61935,-0.15543,0.08285,-0.12073
2025-11-23T06:30:35.634615,-0.09263,-0.03999,-9.67499,-0.20178,0.21049,-0.05388
2025-11-23T06:30:35.644231,-0.13260,-0.03807,-9.70873,-0.13713,0.08401,-0.02898
2025-11-23T06:30:35.653846,-0.15222,-0.03838,-9.64765,-0.26203,0.11167,-0.21992
2025-11-23T06:30:35.663462,-0.18439,-0.10204,-9.74613,-0.15225,0.14360,-0.16910
2025-11-23T06:30:35.673077,-0.20760,-0.14564,-9.67570,-0.14640,0.14718,-0.17220
2025-11-23T06:30:35.682692,-0.13155,-0.09239,-9.76287,-0.29346,-0.01213,-0.12317
2025-11-23T06:30:35.692308,-0.18302,-0.07764,-9.71556,-0.28020,0.04874,-0.27720
2025-11-23T06:30:35.701923,-0.12509,-0.09490,-9.79744,-0.14434,0.02402,-0.20054
2025-11-23T06:30:35.711538,-0.12015,-0.00986,-9.80305,-0.21085,0.03807,-0.24512
2025-11-23T06:30:35.721154,-0.20277,0.00494,-9.77534,-0.21402,0.07092,-0.15665
2025-11-23T06:30:35.730769,-0.16298,-0.03808,-9.71074,-0.13932,-0.04105,-0.20066
2025-11-23T06:30:35.740385,-0.15061,0.07069,-9.91230,-0.13471,0.04533,-0.22235
2025-11-23T06:30:35.75,-0.15632,0.02595,-9.91232,-0.11563,-0.02076,-0.11478
2025-11-23T06:30:35.759615,-0.14139,0.03604,-9.84872,-0.26681,0.04351,-0.15733
2025-11-23T06:30:35.769231,-0.16477,0.04204,-9.92970,-0.22474,0.13575,-0.12466
2025-11-23T06:30:35.778846,-0.12347,0.03759,-9.86301,-0.19210,-0.08301,-0.22407
2025-11-23T06:30:35.788462,-0.10355,0.00002,-10.01750,-0.23206,-0.01166,-0.18140
2025-11-23T06:30:35.798077,-0.11414,-0.00626,-9.87670,-0.22831,-0.12417,-0.13199
2025-11-23T06:30:35.807692,-0.14579,0.01302,-9.88963,-0.21441,-0.08098,-0.09662
2025-11-23T06:30:35.817308,-0.19084,0.00432,-9.90944,-0.16689,-0.05806,-0.24165
2025-11-23T06:30:35.826923,-0.16795,0.03109,-9.99882,-0.19435,-0.11379,-0.24842
2025-11-23T06:30:35.836538,-0.12086,0.05020,-9.92257,-0.14868,0.00926,-0.09119
2025-11-23T06:30:35.846154,-0.15739,-0.08557,-10.05479,-0.20013,-0.03995,-0.23968
2025-11-23T06:30:35.855769,-0.16708,0.11889,-9.91132,-0.16681,-0.16157,-0.13857
2025-11-23T06:30:35.865385,-0.14988,0.04719,-9.95905,-0.14256,-0.01602,-0.18390
2025-11-23T06:30:35.875,-0.12566,0.05908,-9.88031,-0.21150,-0.15097,-0.15644
2025-11-23T06:30:35.884615,-0.15732,0.09890,-9.99803,-0.13860,-0.13957,-0.19310
2025-11-23T06:30:35.894231,-0.24133,0.05264,-10.09184,-0.20532,-0.11433,-0.16926
2025-11-23T06:30:35.903846,-0.14623,0.16495,-10.09666,-0.16488,-0.02557,-0.19851
2025-11-23T06:30:35.913462,-0.15657,0.09630,-10.02617,-0.15009,-0.16179,-0.17151
2025-11-23T06:30:35.923077,-0.13379,0.11709,-10.10810,-0.21164,-0.14955,-0.26396
2025-11-23T06:30:35.932692,-0.14775,0.11205,-10.10998,-0.17420,-0.15757,-0.21297
2025-11-23T06:30:35.942308,-0.15891,0.16034,-10.21097,-0.24627,-0.09741,-0.22345
2025-11-23T06:30:35.951923,-0.16696,0.12784,-10.23726,-0.19956,-0.21989,-0.18871
2025-11-23T06:30:35.961538,-0.08464,0.10678,-10.24044,-0.33020,-0.07403,-0.21955
2025-11-23T06:30:35.971154,-0.16285,0.19013,-10.15263,-0.03385,-0.20288,-0.33202
2025-11-23T06:30:35.980769,-0.13424,0.20418,-10.17205,-0.07318,-0.19630,-0.25128
2025-11-23T06:30:35.990385,-0.08720,0.18520,-10.16583,-0.10700,-0.16325,-0.22648
2025-11-23T06:30:36,-0.10236,0.11397,-10.17358,-0.11557,-0.26459,-0.23227
2025-11-23T06:30:36.009615,-0.13903,0.17468,-10.11158,-0.11425,-0.32830,-0.20372
2025-11-23T06:30:36.019231,-0.08062,0.18689,-10.17555,-0.15198,-0.25737,-0.22124
2025-11-23T06:30:36.028846,-0.09764,0.15497,-10.20175,-0.10085,-0.34104,-0.24510
2025-11-23T06:30:36.038462,-0.11478,0.16139,-10.25666,-0.07507,-0.21346,-0.28697
2025-11-23T06:30:36.048077,-0.05160,0.15799,-10.24035,-0.11037,-0.25235,-0.20578
2025-11-23T06:30:36.057692,-0.07371,0.22561,-10.27665,0.00801,-0.19543,-0.15293
2025-11-23T06:30:36.067308,-0.08236,0.16316,-10.12063,-0.06444,-0.26542,-0.18889
2025-11-23T06:30:36.076923,-0.07323,0.23729,-10.16770,-0.18432,-0.28749,-0.24324
2025-11-23T06:30:36.086538,-0.06692,0.15053,-10.26191,-0.01957,-0.29533,-0.19866
2025-11-23T06:30:36.096154,-0.05889,0.20961,-10.22442,-0.15369,-0.31632,-0.22114
2025-11-23T06:30:36.105769,-0.07414,0.27096,-10.19276,-0.12903,-0.31251,-0.10286
2025-11-23T06:30:36.115385,-0.02564,0.18078,-10.27626,-0.06633,-0.33119,-0.23476
2025-11-23T06:30:36.125,-0.08259,0.19722,-10.29035,-0.16100,-0.17055,-0.30009
2025-11-23T06:30:36.134615,-0.10652,0.23247,-10.20833,-0.11891,-0.26333,-0.23551
2025-11-23T06:30:36.144231,-0.05362,0.26552,-10.25082,0.04227,-0.23681,-0.23688
2025-11-23T06:30:36.153846,-0.09884,0.26663,-10.27394,-0.01931,-0.34695,-0.17006
2025-11-23T06:30:36.163462,-0.04837,0.13073,-10.21176,-0.11614,-0.43970,-0.21840
2025-11-23T06:30:36.173077,-0.07349,0.22890,-10.32992,0.12329,-0.25130,-0.06919
2025-11-23T06:30:36.182692,-0.07002,0.24246,-10.24970,-0.13585,-0.37135,-0.22187
2025-11-23T06:30:36.192308,-0.06539,0.16307,-10.27996,0.02087,-0.38596,-0.18793
2025-11-23T06:30:36.201923,-0.05284,0.25462,-10.24332,0.03720,-0.31041,-0.05718
2025-11-23T06:30:36.211538,-0.03062,0.27090,-10.32598,0.02454,-0.29419,-0.18798
2025-11-23T06:30:36.221154,-0.03846,0.14452,-10.17188,0.10908,-0.21276,-0.13395
2025-11-23T06:30:36.230769,0.01316,0.26182,-10.33095,0.04068,-0.33732,-0.20428
2025-11-23T06:30:36.240385,0.01912,0.17090,-10.19709,0.12052,-0.32744,-0.16453
2025-11-23T06:30:36.25,-0.01910,0.18169,-10.26576,-0.11990,-0.29159,-0.07950
2025-11-23T06:30:36.259615,0.01207,0.25518,-10.27381,-0.02640,-0.31753,-0.13708
2025-11-23T06:30:36.269231,0.01479,0.19594,-10.31516,0.02565,-0.20459,-0.11251
2025-11-23T06:30:36.278846,0.03357,0.23745,-10.27836,0.05313,-0.18348,-0.13303
2025-11-23T06:30:36.288462,0.01360,0.26084,-10.27873,-0.00501,-0.31978,-0.16610
2025-11-23T06:30:36.298077,0.03397,0.25797,-10.42484,0.08183,-0.42639,-0.10808
2025-11-23T06:30:36.307692,0.06279,0.15581,-10.25517,0.06154,-0.43174,-0.07965
2025-11-23T06:30:36.317308,0.00505,0.35165,-10.27985,-0.05203,-0.36321,-0.12598
2025-11-23T06:30:36.326923,0.00014,0.24363,-10.27939,-0.01436,-0.35368,-0.12246
2025-11-23T06:30:36.336538,0.02622,0.22139,-10.23909,0.23045,-0.33812,-0.07541
2025-11-23T06:30:36.346154,0.04681,0.22558,-10.26758,0.13425,-0.22096,-0.03777
2025-11-23T06:30:36.355769,0.11640,0.17314,-10.22685,0.16352,-0.28029,-0.05698
2025-11-23T06:30:36.365385,0.08905,0.20649,-10.22153,0.10399,-0.31667,-0.08624
2025-11-23T06:30:36.375,0.10629,0.28140,-10.16071,0.04691,-0.17943,-0.11650
2025-11-23T06:30:36.384615,0.02765,0.24456,-10.20316,0.11021,-0.34432,-0.05507
2025-11-23T06:30:36.394231,0.10108,0.15324,-10.23484,0.10488,-0.36269,-0.12756
2025-11-23T06:30:36.403846,0.01927,0.18422,-10.17564,0.04904,-0.34138,0.01226
2025-11-23T06:30:36.413462,0.03271,0.21798,-10.25282,0.12194,-0.30487,-0.03459
2025-11-23T06:30:36.423077,0.04080,0.24043,-10.19228,0.02611,-0.23512,-0.02269
2025-11-23T06:30:36.432692,0.09500,0.24506,-10.16793,0.18894,-0.26916,-0.07263
2025-11-23T06:30:36.442308,0.07706,0.18357,-10.11974,0.19159,-0.20084,-0.12786
2025-11-23T06:30:36.451923,0.06594,0.15571,-10.09602,0.22108,-0.30771,-0.10148
2025-11-23T06:30:36.461538,0.14402,0.12767,-10.23814,0.15079,-0.25236,-0.03353
2025-11-23T06:30:36.471154,0.08791,0.16050,-10.22438,0.19116,-0.18879,-0.04877
2025-11-23T06:30:36.480769,0.14750,0.19161,-10.17877,0.13483,-0.35113,-0.11821
2025-11-23T06:30:36.490385,0.16445,0.17194,-10.12697,0.10693,-0.16973,-0.00756
2025-11-23T06:30:36.5,0.12635,0.09507,-10.06695,0.19910,-0.26115,-0.04356
2025-11-23T06:30:36.509615,0.10904,0.22688,-10.00150,0.11403,-0.27431,0.02683
2025-11-23T06:30:36.519231,0.06244,0.23501,-10.02813,0.23124,-0.20775,-0.03508
2025-11-23T06:30:36.528846,0.09859,0.20528,-10.09413,0.14255,-0.12668,-0.01726
2025-11-23T06:30:36.538462,0.05572,0.17326,-10.12486,0.28384,-0.32040,-0.09919
2025-11-23T06:30:36.548077,0.12958,0.09788,-10.00091,0.10979,-0.23851,-0.04130
2025-11-23T06:30:36.557692,0.11041,0.16394,-9.99825,0.09661,-0.28172,-0.01707
2025-11-23T06:30:36.567308,0.07442,0.16501,-9.98316,0.20851,-0.29078,0.00631
2025-11-23T06:30:36.576923,0.13263,0.16003,-10.02932,0.32500,-0.34910,-0.04091
2025-11-23T06:30:36.586538,0.15998,0.07684,-9.99009,0.16354,-0.21233,0.02243
2025-11-23T06:30:36.596154,0.20508,0.12035,-10.03020,0.29589,-0.11757,0.07856
2025-11-23T06:30:36.605769,0.17474,0.16001,-9.96850,0.25132,-0.37869,-0.00763
2025-11-23T06:30:36.615385,0.12922,0.12027,-9.92642,0.35139,-0.28527,0.02678
2025-11-23T06:30:36.625,0.14631,0.17838,-9.87595,0.27780,-0.33814,0.02161
2025-11-23T06:30:36.634615,0.14763,0.22049,-9.93896,0.17482,-0.13136,0.01575
2025-11-23T06:30:36.644231,0.17477,0.10074,-9.97469,0.23588,-0.10827,0.01147
2025-11-23T06:30:36.653846,0.12365,0.09804,-9.80173,0.35668,-0.13848,0.08297
2025-11-23T06:30:36.663462,0.17170,0.08906,-9.86144,0.24784,-0.10471,0.01558
2025-11-23T06:30:36.673077,0.15489,0.10566,-9.96187,0.19645,-0.01934,0.13236
2025-11-23T06:30:36.682692,0.12003,0.08147,-9.82054,0.14949,-0.07421,0.07176
2025-11-23T06:30:36.692308,0.17562,0.00080,-9.77113,0.26422,-0.18762,0.11734
2025-11-23T06:30:36.701923,0.22666,0.01429,-9.81597,0.33887,-0.25790,0.10292
2025-11-23T06:30:36.711538,0.12925,0.06143,-9.87321,0.18947,-0.12305,-0.00587
2025-11-23T06:30:36.721154,0.13981,0.02918,-9.80362,0.31369,-0.02715,0.04291
2025-11-23T06:30:36.730769,0.18787,0.06338,-9.81571,0.11486,0.07288,0.10807
2025-11-23T06:30:36.740385,0.14817,-0.01094,-9.79264,0.24402,-0.11359,-0.01001
2025-11-23T06:30:36.75,0.14946,0.02359,-9.86572,0.24545,-0.07103,0.00378
2025-11-23T06:30:36.759615,0.14036,0.03584,-9.76940,0.30381,-0.07889,-0.00812
2025-11-23T06:30:36.769231,0.18457,-0.00813,-9.75432,0.32040,0.03380,0.10720
2025-11-23T06:30:36.778846,0.18803,0.03861,-9.70083,0.26443,-0.03057,0.19137
2025-11-23T06:30:36.788462,0.15392,-0.00426,-9.69524,0.18048,-0.17186,0.08769
2025-11-23T06:30:36.798077,0.16887,0.03679,-9.61047,0.28485,-0.06471,0.01586
2025-11-23T06:30:36.807692,0.10223,-0.01271,-9.68122,0.30348,-0.04210,0.08127
2025-11-23T06:30:36.817308,0.11063,-0.01714,-9.58994,0.26883,0.01416,0.02853
2025-11-23T06:30:36.826923,0.18727,-0.02413,-9.70222,0.32824,-0.00318,0.08788
2025-11-23T06:30:36.836538,0.15111,-0.01609,-9.66153,0.25962,-0.04384,0.00566
2025-11-23T06:30:36.846154,0.16204,0.00637,-9.71294,0.26258,-0.14484,0.02897
2025-11-23T06:30:36.855769,0.10485,-0.04108,-9.61191,0.24396,-0.03921,0.18996
2025-11-23T06:30:36.865385,0.20979,-0.02886,-9.62185,0.33358,0.03500,0.11526
2025-11-23T06:30:36.875,0.18730,-0.05316,-9.64146,0.19468,0.09783,0.06538
2025-11-23T06:30:36.884615,0.16062,-0.12673,-9.54699,0.31159,0.09848,0.16531
2025-11-23T06:30:36.894231,0.20292,-0.08332,-9.48012,0.36498,0.09941,0.17696
2025-11-23T06:30:36.903846,0.18771,-0.06459,-9.53455,0.25186,0.14647,0.11298
2025-11-23T06:30:36.913462,0.17368,-0.11256,-9.56544,0.21153,0.01540,0.10307
2025-11-23T06:30:36.923077,0.18575,-0.04848,-9.47530,0.32896,0.03807,0.12046
2025-11-23T06:30:36.932692,0.13424,-0.11531,-9.53483,0.14605,0.10738,0.08471
2025-11-23T06:30:36.942308,0.16749,-0.12443,-9.51596,0.11671,-0.07820,-0.01131
2025-11-23T06:30:36.951923,0.15765,-0.04724,-9.52300,0.34007,0.21273,0.13278
2025-11-23T06:30:36.961538,0.11926,-0.09084,-9.51187,0.13151,0.00047,0.20100
2025-11-23T06:30:36.971154,0.11892,-0.11139,-9.49135,0.19079,0.01142,0.01462
2025-11-23T06:30:36.980769,0.19869,-0.07983,-9.37827,0.25005,0.09636,0.01871
2025-11-23T06:30:36.990385,0.12482,-0.06184,-9.44333,0.29145,0.08177,0.01569
2025-11-23T06:30:37,0.16731,-0.05286,-9.48746,0.18353,0.10422,0.06645
2025-11-23T06:30:37.009615,0.13919,-0.12128,-9.50176,0.19671,-0.00168,0.12880
2025-11-23T06:30:37.019231,0.11192,-0.16479,-9.48570,0.07681,0.24698,0.09505
2025-11-23T06:30:37.028846,0.11934,-0.12397,-9.42335,0.27935,0.16620,0.09697
2025-11-23T06:30:37.038462,0.15412,-0.23368,-9.42286,0.16252,0.11525,-0.01871
2025-11-23T06:30:37.048077,0.10913,-0.17520,-9.49227,0.15589,0.01233,0.03165
2025-11-23T06:30:37.057692,0.11422,-0.16489,-9.29461,0.21280,0.06057,0.04673
2025-11-23T06:30:37.067308,0.09099,-0.19781,-9.31210,0.18048,0.12715,0.06319
2025-11-23T06:30:37.076923,0.11989,-0.12273,-9.54385,0.19524,0.22945,0.17287
2025-11-23T06:30:37.086538,0.11960,-0.19551,-9.47125,0.12401,0.23363,0.13258
2025-11-23T06:30:37.096154,0.17375,-0.22208,-9.37958,0.06103,0.25619,0.09301
2025-11-23T06:30:37.105769,0.09245,-0.17190,-9.46447,0.22656,0.23209,0.04924
2025-11-23T06:30:37.115385,0.13780,-0.16501,-9.36263,0.11607,0.06693,0.03712
2025-11-23T06:30:37.125,0.08911,-0.15572,-9.33804,0.16564,0.22198,0.07423
2025-11-23T06:30:37.134615,0.03108,-0.13854,-9.41970,0.19951,0.18061,0.11819
2025-11-23T06:30:37.144231,0.11112,-0.18421,-9.34509,0.14109,0.25331,0.10147
2025-11-23T06:30:37.153846,0.06275,-0.19016,-9.25743,0.15673,0.18011,0.11808
2025-11-23T06:30:37.163462,0.07547,-0.25696,-9.29587,0.15391,0.16987,-0.00126
2025-11-23T06:30:37.173077,0.04733,-0.24203,-9.31971,0.00654,0.03705,0.03108
2025-11-23T06:30:37.182692,0.04578,-0.18863,-9.34911,0.07050,0.16321,0.08227
2025-11-23T06:30:37.192308,0.07895,-0.33604,-9.38589,0.08446,0.21217,-0.03288
2025-11-23T06:30:37.201923,0.03507,-0.19961,-9.35122,0.04731,0.23552,0.02252
2025-11-23T06:30:37.211538,0.04589,-0.25122,-9.26934,0.01820,0.32526,0.08708
2025-11-23T06:30:37.221154,0.08040,-0.21734,-9.39089,0.09627,0.34358,-0.03503
2025-11-23T06:30:37.230769,0.03701,-0.22676,-9.34639,0.15508,0.24794,-0.01330
2025-11-23T06:30:37.240385,0.05601,-0.20512,-9.27007,0.10130,0.28177,0.03234
2025-11-23T06:30:37.25,0.09614,-0.24145,-9.27027,0.10277,0.22164,0.00213
2025-11-23T06:30:37.259615,-0.01388,-0.18614,-9.40812,0.16466,0.19131,0.03975
2025-11-23T06:30:37.269231,0.01429,-0.23015,-9.33745,0.13132,0.29087,0.08770
2025-11-23T06:30:37.278846,-0.03228,-0.19041,-9.29031,0.02337,0.26881,0.08510
2025-11-23T06:30:37.288462,0.02277,-0.28606,-9.35756,0.01658,0.24995,-0.02594
2025-11-23T06:30:37.298077,0.00780,-0.21424,-9.28719,0.09474,0.22476,0.02579
2025-11-23T06:30:37.307692,0.05076,-0.31668,-9.34708,0.05449,0.29249,-0.04453
2025-11-23T06:30:37.317308,-0.01360,-0.29361,-9.35904,-0.05780,0.25891,-0.03596
2025-11-23T06:30:37.326923,-0.02899,-0.23730,-9.39879,0.04717,0.31749,-0.00784
2025-11-23T06:30:37.336538,-0.00017,-0.12465,-9.41796,0.09983,0.29483,-0.09476
2025-11-23T06:30:37.346154,0.01507,-0.23349,-9.35993,0.05676,0.22027,0.00677
2025-11-23T06:30:37.355769,-0.04191,-0.14870,-9.37273,-0.05496,0.25640,0.01422
2025-11-23T06:30:37.365385,-0.06365,-0.24811,-9.32115,-0.06585,0.23489,-0.03121
2025-11-23T06:30:37.375,-0.06299,-0.25823,-9.41087,-0.00303,0.20837,0.03222
2025-11-23T06:30:37.384615,-0.02264,-0.21822,-9.35647,0.03639,0.26176,-0.04754
2025-11-23T06:30:37.394231,-0.02846,-0.31138,-9.40068,0.00663,0.16565,-0.08025
2025-11-23T06:30:37.403846,-0.04920,-0.15758,-9.31814,-0.11026,0.39075,-0.07528
2025-11-23T06:30:37.413462,-0.04362,-0.26155,-9.38994,0.03828,0.21587,-0.04576
2025-11-23T06:30:37.423077,-0.02137,-0.21936,-9.38564,-0.04156,0.20751,-0.03934
2025-11-23T06:30:37.432692,-0.04160,-0.20978,-9.46180,-0.09941,0.14741,-0.04364
2025-11-23T06:30:37.442308,-0.07889,-0.20283,-9.47970,-0.25820,0.18915,-0.12784
2025-11-23T06:30:37.451923,-0.04483,-0.24990,-9.40549,-0.09694,0.10323,-0.12830
2025-11-23T06:30:37.461538,-0.04492,-0.12617,-9.41409,-0.04942,0.17767,-0.04870
2025-11-23T06:30:37.471154,-0.01266,-0.27158,-9.42363,-0.04433,0.19330,-0.10641
2025-11-23T06:30:37.480769,-0.10898,-0.19651,-9.46565,-0.12015,0.22682,-0.11570
2025-11-23T06:30:37.490385,-0.06818,-0.18929,-9.44249,-0.15609,0.12092,-0.10985
2025-11-23T06:30:37.5,-0.05275,-0.20924,-9.45970,-0.20645,0.01625,-0.11454
2025-11-23T06:30:37.509615,-0.14235,-0.16493,-9.51371,-0.21652,0.32934,-0.06699
2025-11-23T06:30:37.519231,-0.11581,-0.11980,-9.56041,-0.19610,0.15324,-0.11803
2025-11-23T06:30:37.528846,-0.11886,-0.17045,-9.46592,-0.04057,0.18230,0.02570
2025-11-23T06:30:37.538462,-0.07520,-0.18918,-9.51909,-0.14840,0.10882,-0.14464
2025-11-23T06:30:37.548077,-0.09319,-0.23654,-9.41236,-0.00279,0.22612,-0.10308
2025-11-23T06:30:37.557692,-0.10275,-0.14707,-9.56203,-0.05216,0.08850,-0.09130
2025-11-23T06:30:37.567308,-0.09668,-0.18345,-9.55951,-0.07647,0.13436,-0.03876
2025-11-23T06:30:37.576923,-0.09987,-0.22298,-9.61317,-0.07502,0.06018,-0.13621
2025-11-23T06:30:37.586538,-0.14620,-0.13824,-9.60315,-0.12008,0.20511,-0.09212
2025-11-23T06:30:37.596154,-0.11963,-0.18896,-9.50214,-0.26671,0.25529,-0.14355
2025-11-23T06:30:37.605769,-0.16412,-0.14460,-9.56674,-0.11165,0.19346,-0.16040
2025-11-23T06:30:37.615385,-0.13540,-0.18107,-9.64280,-0.10126,0.16995,-0.16065
2025-11-23T06:30:37.625,-0.17649,-0.13272,-9.64742,-0.27982,0.11751,-0.13245
2025-11-23T06:30:37.634615,-0.13841,-0.09343,-9.56759,-0.19778,0.04298,-0.04637
2025-11-23T06:30:37.644231,-0.14407,-0.13463,-9.66208,-0.11283,0.18530,-0.14857
2025-11-23T06:30:37.653846,-0.18226,-0.14976,-9.58335,-0.00680,0.11833,-0.18641
2025-11-23T06:30:37.663462,-0.16095,-0.05853,-9.62020,-0.26800,-0.02950,-0.09420
2025-11-23T06:30:37.673077,-0.13015,-0.13681,-9.76571,-0.11874,0.03535,-0.18995
2025-11-23T06:30:37.682692,-0.16861,-0.08381,-9.69633,-0.10284,0.04762,-0.17578
2025-11-23T06:30:37.692308,-0.12510,0.01833,-9.75834,-0.25327,0.09204,-0.12265
2025-11-23T06:30:37.701923,-0.19647,-0.10966,-9.66437,-0.06990,0.05073,-0.16235
2025-11-23T06:30:37.711538,-0.13571,-0.12214,-9.70464,-0.11886,0.00658,-0.21890
2025-11-23T06:30:37.721154,-0.12304,-0.08311,-9.76769,-0.21906,-0.02163,-0.20241
2025-11-23T06:30:37.730769,-0.12012,-0.12974,-9.75128,-0.23178,0.14741,-0.14503
2025-11-23T06:30:37.740385,-0.15272,-0.09406,-9.68587,-0.14320,0.15794,-0.10321
2025-11-23T06:30:37.75,-0.18829,-0.04104,-9.77193,-0.14742,0.03068,-0.19759
2025-11-23T06:30:37.759615,-0.11848,-0.07480,-9.76632,-0.09977,-0.03320,-0.18273
2025-11-23T06:30:37.769231,-0.15017,-0.07577,-9.88460,-0.21002,0.08780,-0.18293
2025-11-23T06:30:37.778846,-0.19558,-0.04938,-9.78605,-0.25299,-0.04574,-0.15829
2025-11-23T06:30:37.788462,-0.15339,-0.03662,-9.87517,-0.24628,0.03655,-0.11720
2025-11-23T06:30:37.798077,-0.12758,-0.00932,-9.84413,-0.16697,0.05643,-0.08633
2025-11-23T06:30:37.807692,-0.16477,-0.04157,-9.79912,-0.14482,-0.07825,-0.19112
2025-11-23T06:30:37.817308,-0.13526,-0.03026,-9.86134,-0.17898,0.11089,-0.17727
2025-11-23T06:30:37.826923,-0.17607,-0.04203,-9.95144,-0.12782,-0.00228,-0.15767
2025-11-23T06:30:37.836538,-0.18458,-0.04607,-9.87469,-0.19446,0.08518,-0.22041
2025-11-23T06:30:37.846154,-0.12031,-0.05788,-9.87115,-0.10358,-0.04428,-0.14867
2025-11-23T06:30:37.855769,-0.21027,0.00377,-9.92205,-0.25637,0.02409,-0.16857
2025-11-23T06:30:37.865385,-0.20437,-0.00431,-9.83084,-0.25212,-0.01892,-0.21478
2025-11-23T06:30:37.875,-0.16726,-0.06144,-9.97402,-0.11953,-0.07167,-0.15801
2025-11-23T06:30:37.884615,-0.14716,0.02773,-9.99013,-0.22767,-0.04148,-0.21971
2025-11-23T06:30:37.894231,-0.22903,0.01538,-10.00383,-0.25921,-0.04040,-0.21577
2025-11-23T06:30:37.903846,-0.15406,-0.03415,-10.02314,-0.13723,-0.09281,-0.23258
2025-11-23T06:30:37.913462,-0.14967,0.05855,-10.04025,-0.21828,-0.09897,-0.19475
2025-11-23T06:30:37.923077,-0.19605,0.09391,-9.93494,-0.08169,-0.03209,-0.21852
2025-11-23T06:30:37.932692,-0.13692,0.00917,-10.05306,-0.16435,0.02798,-0.19648
2025-11-23T06:30:37.942308,-0.18819,-0.00000,-10.03742,-0.26077,-0.11080,-0.22228
2025-11-23T06:30:37.951923,-0.12440,0.06676,-10.04778,-0.18489,-0.09885,-0.16802
2025-11-23T06:30:37.961538,-0.18949,0.09358,-9.97321,-0.17843,-0.21188,-0.13000
2025-11-23T06:30:37.971154,-0.15542,0.09185,-10.05207,-0.10310,-0.07741,-0.19091
2025-11-23T06:30:37.980769,-0.14179,0.10029,-10.13315,-0.22908,-0.09416,-0.29172
2025-11-23T06:30:37.990385,-0.13769,0.06005,-10.20690,-0.18268,-0.22497,-0.16499
2025-11-23T06:30:38,-0.12407,0.06361,-10.06335,-0.09555,-0.11166,-0.13150
2025-11-23T06:30:38.009615,-0.13294,0.05075,-10.11878,-0.21566,-0.18351,-0.19286
2025-11-23T06:30:38.019231,-0.13493,0.03696,-10.11999,-0.09606,-0.09511,-0.17338
2025-11-23T06:30:38.028846,-0.13902,0.04728,-10.19650,-0.10764,-0.22076,-0.10759
2025-11-23T06:30:38.038462,-0.16852,0.11227,-10.19680,-0.16692,-0.17386,-0.21837
2025-11-23T06:30:38.048077,-0.14866,0.14538,-10.15072,-0.16847,-0.01674,-0.30290
2025-11-23T06:30:38.057692,-0.13767,0.10615,-9.97551,-0.13885,-0.04993,-0.13037
2025-11-23T06:30:38.067308,-0.07591,0.12687,-10.16295,-0.12434,-0.28426,-0.23407
2025-11-23T06:30:38.076923,-0.14987,0.11185,-10.18815,-0.16593,-0.13730,-0.18764
2025-11-23T06:30:38.086538,-0.15086,0.14193,-10.26959,-0.13285,-0.23664,-0.23215
2025-11-23T06:30:38.096154,-0.14197,0.10675,-10.19597,0.04316,-0.34324,-0.19179
2025-11-23T06:30:38.105769,-0.12429,0.03965,-10.14102,-0.21934,-0.20553,-0.25758
2025-11-23T06:30:38.115385,-0.08448,0.17528,-10.24415,-0.10452,-0.23235,-0.18281
2025-11-23T06:30:38.125,-0.12499,0.14050,-10.21095,-0.12882,-0.26683,-0.10143
2025-11-23T06:30:38.134615,-0.09711,0.19813,-10.33720,0.01206,-0.23095,-0.24656
2025-11-23T06:30:38.144231,-0.08453,0.10438,-10.25826,-0.03302,-0.31831,-0.19261
2025-11-23T06:30:38.153846,-0.10463,0.20915,-10.27511,-0.17694,-0.15517,-0.15086
2025-11-23T06:30:38.163462,-0.07299,0.13604,-10.23632,-0.09737,-0.26301,-0.20886
2025-11-23T06:30:38.173077,-0.12791,0.16206,-10.32696,-0.10583,-0.23914,-0.22917
2025-11-23T06:30:38.182692,-0.04490,0.11267,-10.19460,-0.09064,-0.24078,-0.20511
2025-11-23T06:30:38.192308,-0.06416,0.15353,-10.29578,-0.12944,-0.20004,-0.08060
2025-11-23T06:30:38.201923,-0.08775,0.14298,-10.24710,-0.05679,-0.34270,-0.22215
2025-11-23T06:30:38.211538,-0.05660,0.15573,-10.28962,-0.05767,-0.28204,-0.22322
2025-11-23T06:30:38.221154,-0.09853,0.22011,-10.23952,-0.14370,-0.25012,-0.16761
2025-11-23T06:30:38.230769,-0.09267,0.20705,-10.34195,-0.17154,-0.18216,-0.15716
2025-11-23T06:30:38.240385,-0.01374,0.13511,-10.22624,-0.12895,-0.20582,-0.09351
2025-11-23T06:30:38.25,-0.06307,0.17350,-10.28042,-0.13912,-0.32551,-0.12437
2025-11-23T06:30:38.259615,-0.09356,0.27855,-10.23012,-0.03538,-0.33239,-0.18261
2025-11-23T06:30:38.269231,0.00163,0.19408,-10.26663,-0.12534,-0.32598,-0.18958
2025-11-23T06:30:38.278846,-0.04989,0.20270,-10.27607,0.05441,-0.27876,-0.19733
2025-11-23T06:30:38.288462,-0.05312,0.19358,-10.30553,-0.01388,-0.24917,-0.18394
2025-11-23T06:30:38.298077,0.00022,0.22922,-10.24578,-0.05844,-0.29345,-0.09483
2025-11-23T06:30:38.307692,0.01309,0.12090,-10.30680,-0.07775,-0.35262,-0.10851
2025-11-23T06:30:38.317308,-0.03038,0.16588,-10.21776,-0.05673,-0.25722,-0.19753
2025-11-23T06:30:38.326923,-0.02712,0.17255,-10.27970,0.09088,-0.28076,-0.13647
2025-11-23T06:30:38.336538,0.03420,0.21790,-10.25083,-0.05863,-0.28280,-0.11549
2025-11-23T06:30:38.346154,-0.03155,0.21659,-10.26834,-0.14807,-0.26638,-0.05957
2025-11-23T06:30:38.355769,-0.04664,0.22916,-10.33621,-0.08269,-0.29471,-0.00175
2025-11-23T06:30:38.365385,0.01452,0.20543,-10.19768,-0.07726,-0.38237,-0.12943
2025-11-23T06:30:38.375,0.03761,0.13760,-10.31649,0.00736,-0.21512,-0.08655
2025-11-23T06:30:38.384615,0.03642,0.23301,-10.13967,0.01078,-0.16088,-0.16503
2025-11-23T06:30:38.394231,0.00159,0.16080,-10.29555,0.02583,-0.30255,-0.06918
2025-11-23T06:30:38.403846,0.06330,0.20669,-10.25718,0.03483,-0.26652,-0.06917
2025-11-23T06:30:38.413462,0.07090,0.23856,-10.28430,-0.06652,-0.29970,-0.08540
2025-11-23T06:30:38.423077,0.02050,0.25177,-10.28807,0.12236,-0.20637,-0.15370
2025-11-23T06:30:38.432692,0.00624,0.11829,-10.32667,0.08424,-0.29355,-0.07077
2025-11-23T06:30:38.442308,0.03079,0.12869,-10.32562,0.09251,-0.25507,-0.12538
2025-11-23T06:30:38.451923,0.09723,0.15270,-10.20787,0.21406,-0.25869,-0.00331
2025-11-23T06:30:38.461538,0.04770,0.11200,-10.19339,0.14722,-0.17815,-0.01187
2025-11-23T06:30:38.471154,0.03901,0.18207,-10.20483,0.04861,-0.25531,-0.02309
2025-11-23T06:30:38.480769,0.12055,0.13610,-10.24532,-0.00191,-0.33599,-0.03468
2025-11-23T06:30:38.490385,0.05361,0.21008,-10.22731,0.06973,-0.19009,-0.03366
2025-11-23T06:30:38.5,0.03616,0.18445,-10.23303,0.17109,-0.19405,-0.10346
2025-11-23T06:30:38.509615,0.10483,0.18121,-10.23641,0.02972,-0.26781,-0.04867
2025-11-23T06:30:38.519231,0.03333,0.16984,-10.18489,-0.01608,-0.22209,-0.10493
2025-11-23T06:30:38.528846,0.07213,0.20253,-10.19985,0.22027,-0.14059,0.01569
2025-11-23T06:30:38.538462,0.06660,0.18910,-10.11893,0.14116,-0.25271,-0.11064
2025-11-23T06:30:38.548077,0.04867,0.16395,-10.12131,0.12300,-0.17763,0.00851
2025-11-23T06:30:38.557692,0.10552,0.19249,-10.07739,0.00385,-0.23196,0.01134
2025-11-23T06:30:38.567308,0.06747,0.13776,-10.18863,0.19846,-0.31434,0.03918
2025-11-23T06:30:38.576923,0.03470,0.12169,-10.08904,0.04953,-0.23471,-0.01970
2025-11-23T06:30:38.586538,0.11092,0.12687,-10.11487,0.14361,-0.16288,-0.01872
2025-11-23T06:30:38.596154,0.14205,0.13319,-10.04824,0.16397,-0.14903,0.06860
2025-11-23T06:30:38.605769,0.10503,0.14365,-10.17253,0.15151,-0.22009,-0.03940
2025-11-23T06:30:38.615385,0.15500,0.14843,-9.98775,0.10794,-0.27810,0.01799
2025-11-23T06:30:38.625,0.09610,0.11273,-10.05634,0.17642,-0.06301,0.03983
2025-11-23T06:30:38.634615,0.08051,0.12440,-10.11832,0.12070,-0.09512,-0.01439
2025-11-23T06:30:38.644231,0.11410,0.17284,-10.10256,0.09698,-0.13999,-0.06122
2025-11-23T06:30:38.653846,0.12641,0.09162,-10.06683,0.12342,-0.21493,0.02865
2025-11-23T06:30:38.663462,0.11247,0.07621,-9.98470,0.06532,-0.19834,0.01010
2025-11-23T06:30:38.673077,0.14224,0.03410,-10.05137,0.14982,-0.15625,-0.03748
2025-11-23T06:30:38.682692,0.12675,0.07930,-10.02650,0.13040,-0.07635,0.04427
2025-11-23T06:30:38.692308,0.11581,0.11253,-9.97900,0.14016,-0.09679,-0.03548
2025-11-23T06:30:38.701923,0.15127,0.13611,-9.93874,0.16332,-0.14464,0.02408
2025-11-23T06:30:38.711538,0.14264,0.09669,-10.04011,0.20296,-0.10104,0.05143
2025-11-23T06:30:38.721154,0.10747,0.09477,-9.86082,0.07026,-0.11140,0.06526
2025-11-23T06:30:38.730769,0.13611,0.00802,-9.91927,0.25056,-0.16783,0.00815
2025-11-23T06:30:38.740385,0.14893,0.05253,-9.90839,0.12616,-0.30242,0.08769
2025-11-23T06:30:38.75,0.12925,0.06202,-9.85080,0.26338,-0.01951,0.05851
2025-11-23T06:30:38.759615,0.13777,0.09097,-9.85269,0.28844,-0.12640,0.11539
2025-11-23T06:30:38.769231,0.07513,-0.00222,-9.83276,0.19263,-0.07996,-0.01093
2025-11-23T06:30:38.778846,0.15257,0.04710,-9.83829,0.32262,-0.06925,0.00005
2025-11-23T06:30:38.788462,0.17128,0.00779,-9.80989,0.23553,-0.03413,-0.00202
2025-11-23T06:30:38.798077,0.14913,0.03143,-9.72929,0.20795,-0.05116,0.05178
2025-11-23T06:30:38.807692,0.11401,-0.07127,-9.74366,0.22374,0.01745,0.08832
2025-11-23T06:30:38.817308,0.17850,-0.04270,-9.73666,0.16575,-0.03719,0.21045
2025-11-23T06:30:38.826923,0.14792,0.02164,-9.77846,0.26185,-0.10114,0.04386
2025-11-23T06:30:38.836538,0.13389,0.01597,-9.79631,0.17343,-0.10994,0.09890
2025-11-23T06:30:38.846154,0.15347,0.05642,-9.77291,0.10104,-0.01773,0.09472
2025-11-23T06:30:38.855769,0.19232,-0.02389,-9.73907,0.12721,0.01520,0.09418
2025-11-23T06:30:38.865385,0.12309,-0.02447,-9.76693,0.26380,-0.08237,0.09372
2025-11-23T06:30:38.875,0.17116,-0.03763,-9.73298,0.18018,-0.00397,0.07431
2025-11-23T06:30:38.884615,0.09330,-0.04553,-9.62604,0.25579,0.04944,0.12701
2025-11-23T06:30:38.894231,0.18197,-0.00901,-9.65178,0.26346,0.04415,0.10579
2025-11-23T06:30:38.903846,0.16729,-0.09332,-9.69552,0.27244,0.00310,-0.00764
2025-11-23T06:30:38.913462,0.21247,-0.03569,-9.61853,0.18822,-0.04135,0.10110
2025-11-23T06:30:38.923077,0.16082,-0.04368,-9.60808,0.16202,-0.10213,0.11344
2025-11-23T06:30:38.932692,0.20258,-0.01372,-9.60929,0.30528,0.16284,0.11735
2025-11-23T06:30:38.942308,0.15313,-0.10244,-9.64523,0.22980,0.01960,0.15509
2025-11-23T06:30:38.951923,0.18769,-0.13719,-9.54397,0.20080,0.16188,0.14306
2025-11-23T06:30:38.961538,0.13558,-0.08356,-9.56382,0.21615,0.10487,0.07236
2025-11-23T06:30:38.971154,0.16785,-0.08444,-9.53517,0.18678,0.29035,0.11066
2025-11-23T06:30:38.980769,0.18927,-0.12654,-9.50854,0.15895,0.11746,0.10513
2025-11-23T06:30:38.990385,0.12201,-0.09755,-9.59966,0.15584,0.15661,0.03502
2025-11-23T06:30:39,0.11862,-0.11152,-9.50043,0.17804,0.10254,0.16278
2025-11-23T06:30:39.009615,0.12071,-0.16260,-9.54629,0.25900,0.16110,0.14004
2025-11-23T06:30:39.019231,0.12959,-0.14719,-9.41568,0.07475,0.15058,0.14738
2025-11-23T06:30:39.028846,0.17118,-0.10927,-9.53667,0.24049,0.11521,0.12889
2025-11-23T06:30:39.038462,0.15336,-0.08258,-9.43398,0.21831,0.02059,0.17834
2025-11-23T06:30:39.048077,0.11931,-0.12482,-9.50981,0.25272,0.08506,0.08393
2025-11-23T06:30:39.057692,0.13002,-0.13511,-9.52286,0.25708,0.12716,0.15295
2025-11-23T06:30:39.067308,0.11219,-0.22471,-9.48339,0.14099,0.27981,0.17463
2025-11-23T06:30:39.076923,0.13002,-0.18019,-9.41909,0.23894,0.14186,0.11341
2025-11-23T06:30:39.086538,0.12562,-0.17418,-9.46313,0.12682,0.20659,0.16661
2025-11-23T06:30:39.096154,0.13800,-0.16988,-9.39440,0.25312,0.13446,0.11813
2025-11-23T06:30:39.105769,0.16962,-0.14610,-9.49609,0.19932,0.16412,0.17728
2025-11-23T06:30:39.115385,0.11360,-0.17174,-9.40372,0.15139,0.19819,0.14622
2025-11-23T06:30:39.125,0.10236,-0.20896,-9.36283,0.07549,0.18982,0.08107
2025-11-23T06:30:39.134615,0.10311,-0.18095,-9.46440,0.18341,0.17109,0.10739
2025-11-23T06:30:39.144231,0.11832,-0.13374,-9.37450,0.11644,0.19323,0.14804
2025-11-23T06:30:39.153846,0.07727,-0.19367,-9.36422,0.14330,0.18341,-0.00294
2025-11-23T06:30:39.163462,0.09506,-0.29046,-9.36979,0.01379,0.36768,0.12238
2025-11-23T06:30:39.173077,0.06277,-0.19084,-9.36333,0.05062,0.28650,0.04869
2025-11-23T06:30:39.182692,0.05134,-0.28321,-9.28365,0.21567,0.16604,0.18569
2025-11-23T06:30:39.192308,0.07312,-0.22900,-9.28754,0.12349,0.13272,0.20398
2025-11-23T06:30:39.201923,0.06088,-0.25604,-9.34789,0.13218,0.27345,0.07559
2025-11-23T06:30:39.211538,0.06328,-0.14127,-9.38395,0.15054,0.26554,0.06517
2025-11-23T06:30:39.221154,0.03620,-0.24014,-9.29542,0.01137,0.35669,0.12963
2025-11-23T06:30:39.230769,0.10534,-0.20851,-9.33213,0.20462,0.36834,0.05114
2025-11-23T06:30:39.240385,0.03980,-0.28939,-9.29554,0.08146,0.28065,0.15712
2025-11-23T06:30:39.25,0.05398,-0.25181,-9.34112,0.11835,0.27702,0.15015
2025-11-23T06:30:39.259615,0.00101,-0.24206,-9.36755,0.14954,0.32965,0.10806
2025-11-23T06:30:39.269231,0.05627,-0.26538,-9.40172,0.04994,0.26016,0.05001
2025-11-23T06:30:39.278846,0.07291,-0.28396,-9.36506,0.08124,0.17879,0.11999
2025-11-23T06:30:39.288462,-0.00491,-0.26024,-9.42088,0.12703,0.29199,0.03789
2025-11-23T06:30:39.298077,0.06287,-0.29161,-9.36147,-0.08930,0.33509,0.07594
2025-11-23T06:30:39.307692,0.00263,-0.27122,-9.29520,-0.08930,0.34177,0.07601
2025-11-23T06:30:39.317308,0.03961,-0.17456,-9.35839,0.04513,0.40900,0.03064
2025-11-23T06:30:39.326923,0.00010,-0.24859,-9.35937,-0.04761,0.18939,-0.00823
2025-11-23T06:30:39.336538,-0.01556,-0.27804,-9.31113,0.03028,0.24512,0.02127
2025-11-23T06:30:39.346154,-0.03027,-0.23650,-9.34698,0.05841,0.23795,0.08841
2025-11-23T06:30:39.355769,0.01832,-0.21074,-9.41220,0.10778,0.21939,-0.00214
2025-11-23T06:30:39.365385,-0.00048,-0.24848,-9.28846,-0.00603,0.38903,0.17150
2025-11-23T06:30:39.375,-0.03551,-0.28532,-9.35408,-0.03523,0.21290,-0.02338
2025-11-23T06:30:39.384615,-0.10289,-0.20572,-9.36232,-0.05112,0.31440,-0.02237
2025-11-23T06:30:39.394231,-0.00201,-0.22407,-9.38311,-0.11465,0.38257,0.04720
2025-11-23T06:30:39.403846,-0.06374,-0.31524,-9.31551,-0.05495,0.24119,0.00325
2025-11-23T06:30:39.413462,-0.08296,-0.24384,-9.44275,-0.19406,0.30196,0.12941
2025-11-23T06:30:39.423077,-0.05995,-0.22892,-9.33942,-0.18509,0.15975,0.09844
2025-11-23T06:30:39.432692,-0.04707,-0.17659,-9.42787,-0.05916,0.39242,0.05115
2025-11-23T06:30:39.442308,-0.07883,-0.28847,-9.38026,-0.00520,0.34154,-0.06658
2025-11-23T06:30:39.451923,-0.07787,-0.32795,-9.36456,-0.04883,0.31425,-0.09559
2025-11-23T06:30:39.461538,-0.04534,-0.20714,-9.43620,-0.09117,0.23880,-0.03083
2025-11-23T06:30:39.471154,-0.08659,-0.18583,-9.39780,-0.18325,0.40060,-0.07661
2025-11-23T06:30:39.480769,-0.04071,-0.30823,-9.39380,-0.04977,0.36910,-0.13714
2025-11-23T06:30:39.490385,-0.09706,-0.16334,-9.48798,-0.05700,0.30368,-0.10438
2025-11-23T06:30:39.5,-0.08549,-0.17340,-9.47416,-0.08709,0.14976,-0.18974
2025-11-23T06:30:39.509615,-0.10379,-0.24951,-9.45524,-0.02309,0.24773,-0.07917
2025-11-23T06:30:39.519231,-0.09864,-0.18048,-9.42707,-0.09059,0.18523,-0.00060
2025-11-23T06:30:39.528846,-0.07151,-0.22304,-9.50389,-0.21016,0.29735,-0.08657
2025-11-23T06:30:39.538462,-0.10972,-0.21049,-9.51837,-0.17141,0.22561,-0.07039
2025-11-23T06:30:39.548077,-0.12890,-0.20104,-9.56686,-0.11788,0.16911,-0.03967
2025-11-23T06:30:39.557692,-0.07857,-0.16151,-9.59853,-0.10440,0.30927,-0.02838
2025-11-23T06:30:39.567308,-0.13345,-0.13780,-9.48840,-0.27374,0.28371,-0.06315
2025-11-23T06:30:39.576923,-0.08836,-0.13454,-9.52130,-0.30352,0.27081,-0.07803
2025-11-23T06:30:39.586538,-0.16595,-0.13409,-9.49512,-0.24832,0.27059,-0.06314
2025-11-23T06:30:39.596154,-0.11026,-0.15854,-9.55687,-0.21848,0.27566,-0.07697
2025-11-23T06:30:39.605769,-0.12619,-0.11839,-9.59678,-0.18840,0.15567,-0.05713
2025-11-23T06:30:39.615385,-0.11110,-0.13469,-9.67744,-0.20560,0.27581,-0.12444
2025-11-23T06:30:39.625,-0.15664,-0.07050,-9.63987,-0.23557,0.13327,-0.09305
2025-11-23T06:30:39.634615,-0.14225,-0.17092,-9.58831,-0.32062,0.16338,-0.14409
2025-11-23T06:30:39.644231,-0.20505,-0.07541,-9.73810,-0.23898,0.31545,-0.21951
2025-11-23T06:30:39.653846,-0.14053,-0.14742,-9.68614,-0.31607,0.15958,-0.04656
2025-11-23T06:30:39.663462,-0.11261,-0.04135,-9.72937,-0.23359,0.10362,-0.15606
2025-11-23T06:30:39.673077,-0.20109,-0.19052,-9.75249,-0.24928,0.21642,-0.15500
2025-11-23T06:30:39.682692,-0.13046,-0.11010,-9.73556,-0.13374,0.10086,-0.15743
2025-11-23T06:30:39.692308,-0.16181,-0.02381,-9.76573,-0.21006,0.17828,-0.05706
2025-11-23T06:30:39.701923,-0.15534,-0.09562,-9.78099,-0.29603,0.08112,-0.25607
2025-11-23T06:30:39.711538,-0.18511,-0.08686,-9.66995,-0.24589,0.06836,-0.06231
2025-11-23T06:30:39.721154,-0.17472,-0.08639,-9.76325,-0.23490,0.03499,-0.15615
2025-11-23T06:30:39.730769,-0.16069,-0.09803,-9.85155,-0.27397,0.00436,-0.13324
2025-11-23T06:30:39.740385,-0.17848,-0.08122,-9.84020,-0.27136,0.05041,-0.19956
2025-11-23T06:30:39.75,-0.15807,-0.01818,-9.83319,-0.29849,0.06016,-0.03119
2025-11-23T06:30:39.759615,-0.17334,-0.02446,-9.75606,-0.25327,0.11696,-0.10294
2025-11-23T06:30:39.769231,-0.15546,-0.02104,-9.91281,-0.10410,0.05425,-0.16173
2025-11-23T06:30:39.778846,-0.16245,-0.06320,-9.89782,-0.31046,0.05990,-0.17617
2025-11-23T06:30:39.788462,-0.16569,-0.04524,-9.86995,-0.23896,0.02243,-0.23033
2025-11-23T06:30:39.798077,-0.15658,-0.01607,-9.96017,-0.34075,-0.04502,-0.07602
2025-11-23T06:30:39.807692,-0.13367,0.00578,-9.89675,-0.36725,-0.08213,-0.01680
2025-11-23T06:30:39.817308,-0.15612,0.03533,-10.02129,-0.26448,-0.02097,-0.14727
2025-11-23T06:30:39.826923,-0.18497,-0.08948,-9.93251,-0.38178,-0.05680,-0.10154
2025-11-23T06:30:39.836538,-0.16491,0.03883,-9.99398,-0.31560,0.05097,-0.19619
2025-11-23T06:30:39.846154,-0.14195,-0.02360,-9.97300,-0.22802,0.09235,-0.21574
2025-11-23T06:30:39.855769,-0.16810,0.03060,-10.00646,-0.28127,-0.06708,-0.21563
2025-11-23T06:30:39.865385,-0.13822,0.05840,-9.99320,-0.19528,-0.19246,-0.21231
2025-11-23T06:30:39.875,-0.12230,0.06972,-10.06084,-0.26432,0.00331,-0.20475
2025-11-23T06:30:39.884615,-0.13683,0.10253,-10.05233,-0.21910,-0.12833,-0.23373
2025-11-23T06:30:39.894231,-0.13632,0.09229,-10.08046,-0.28073,-0.02885,-0.19110
2025-11-23T06:30:39.903846,-0.12479,0.09791,-10.07419,-0.24532,-0.09322,-0.18596
2025-11-23T06:30:39.913462,-0.15058,0.09390,-10.15157,-0.26509,-0.16798,-0.16804
2025-11-23T06:30:39.923077,-0.12564,0.04791,-10.11217,-0.21550,-0.03670,-0.29133
2025-11-23T06:30:39.932692,-0.11651,0.09894,-10.11297,-0.18964,-0.11485,-0.21915
2025-11-23T06:30:39.942308,-0.13713,0.08937,-10.20696,-0.16618,-0.18369,-0.22294
2025-11-23T06:30:39.951923,-0.13761,0.14326,-10.12295,-0.14313,-0.05969,-0.22921
2025-11-23T06:30:39.961538,-0.06107,0.04655,-10.24020,-0.20139,-0.19042,-0.23267
2025-11-23T06:30:39.971154,-0.18812,0.10554,-10.17717,-0.18420,-0.11399,-0.17510
2025-11-23T06:30:39.980769,-0.16647,0.09536,-10.14604,-0.17703,-0.04829,-0.18942
2025-11-23T06:30:39.990385,-0.08557,0.07296,-10.28065,-0.20385,-0.14617,-0.23372
2025-11-23T06:30:40,-0.00339,-0.08027,-9.83287,-0.00679,0.00277,-0.03778
2025-11-23T06:30:40.009615,0.06882,-0.07135,-9.77668,-0.09247,0.05303,-0.07764
2025-11-23T06:30:40.019231,0.01328,-0.00042,-9.82260,-0.06012,0.01203,0.09452
2025-11-23T06:30:40.028846,0.02692,-0.06067,-9.75555,0.02659,0.03721,0.00723
2025-11-23T06:30:40.038462,0.00168,-0.04408,-9.84962,-0.04110,-0.02352,-0.01730
2025-11-23T06:30:40.048077,0.02936,-0.01803,-9.71798,-0.17698,0.05666,-0.00613
2025-11-23T06:30:40.057692,-0.01907,-0.01517,-9.71597,0.05071,0.02224,0.02567
2025-11-23T06:30:40.067308,0.07047,0.01053,-9.76408,-0.01190,0.03924,0.00624
2025-11-23T06:30:40.076923,0.04032,-0.06285,-9.80916,0.00526,-0.01012,-0.01604
2025-11-23T06:30:40.086538,0.04092,-0.03680,-9.77707,0.01225,0.04236,-0.03755
2025-11-23T06:30:40.096154,0.00522,0.00050,-9.68371,-0.06033,0.03473,-0.04297
2025-11-23T06:30:40.105769,0.00851,-0.07877,-9.70826,0.04224,-0.03072,0.05277
2025-11-23T06:30:40.115385,0.09578,0.02858,-9.79760,-0.03725,-0.02981,0.00290
2025-11-23T06:30:40.125,0.03909,-0.03370,-9.84137,-0.07367,0.12338,0.05188
2025-11-23T06:30:40.134615,0.01408,-0.04355,-9.77016,-0.13180,0.08884,-0.03439
2025-11-23T06:30:40.144231,-0.05444,-0.02828,-9.70741,-0.16920,0.13072,0.01980
2025-11-23T06:30:40.153846,-0.02750,0.00709,-9.75885,0.01961,0.01123,-0.04054
2025-11-23T06:30:40.163462,-0.00946,-0.00297,-9.85111,-0.08204,-0.06752,0.06033
2025-11-23T06:30:40.173077,-0.01479,-0.01225,-9.76040,0.12630,0.15290,0.02753
2025-11-23T06:30:40.182692,-0.03450,-0.07128,-9.78706,-0.03239,-0.06214,-0.04622
2025-11-23T06:30:40.192308,0.04830,-0.02137,-9.78726,-0.03912,0.04958,-0.03481
2025-11-23T06:30:40.201923,-0.03160,-0.01212,-9.72545,0.00343,0.06222,0.01628
2025-11-23T06:30:40.211538,0.02361,-0.08845,-9.82160,0.02667,0.10183,0.03593
2025-11-23T06:30:40.221154,0.02309,-0.09493,-9.80543,-0.14249,0.00455,-0.06600
2025-11-23T06:30:40.230769,0.01278,-0.11274,-9.73650,0.02955,-0.06273,0.00637
2025-11-23T06:30:40.240385,0.00923,-0.00540,-9.76267,0.05028,0.04303,-0.00834
2025-11-23T06:30:40.25,0.04006,-0.02885,-9.79345,-0.07525,0.00541,-0.02784
2025-11-23T06:30:40.259615,0.02227,-0.04192,-9.77218,-0.01094,0.13590,0.05772
2025-11-23T06:30:40.269231,0.02945,-0.05147,-9.77688,-0.03925,-0.01162,-0.06554
2025-11-23T06:30:40.278846,0.02299,0.00658,-9.81595,0.01101,0.00446,0.01360
2025-11-23T06:30:40.288462,0.01042,-0.04341,-9.88707,-0.00886,0.02125,-0.11934
2025-11-23T06:30:40.298077,0.01605,-0.03143,-9.75516,-0.05186,-0.04215,-0.02105
2025-11-23T06:30:40.307692,0.08125,0.03175,-9.79628,-0.05202,0.05233,0.02789
2025-11-23T06:30:40.317308,-0.01220,0.03514,-9.72177,-0.12959,-0.08908,-0.03924
2025-11-23T06:30:40.326923,0.03266,-0.05302,-9.85123,-0.00978,0.07138,0.00085
2025-11-23T06:30:40.336538,0.03340,-0.04218,-9.82747,-0.01853,-0.05740,0.04786
2025-11-23T06:30:40.346154,-0.01241,-0.03187,-9.71240,-0.17102,0.02115,0.08137
2025-11-23T06:30:40.355769,0.01169,-0.09567,-9.77650,-0.18901,-0.07986,-0.02462
2025-11-23T06:30:40.365385,0.02761,-0.02371,-9.71722,0.02219,0.08137,-0.04597
2025-11-23T06:30:40.375,0.10983,0.04825,-9.73275,0.02501,0.09878,-0.01764
2025-11-23T06:30:40.384615,0.00548,-0.04365,-9.66667,-0.16847,0.05610,-0.08207
2025-11-23T06:30:40.394231,0.01380,-0.05433,-9.76476,-0.07867,0.02430,-0.05566
2025-11-23T06:30:40.403846,-0.02444,-0.01478,-9.83698,0.02171,0.00304,-0.01203
2025-11-23T06:30:40.413462,0.01965,-0.11534,-9.74871,-0.22640,0.05013,-0.01660
2025-11-23T06:30:40.423077,0.01877,-0.05291,-9.67432,-0.05666,0.16617,0.07177
2025-11-23T06:30:40.432692,-0.00780,0.01143,-9.78010,-0.01543,0.01434,-0.05620
2025-11-23T06:30:40.442308,-0.01213,-0.10156,-9.78793,0.09719,0.14434,0.00089
2025-11-23T06:30:40.451923,0.03163,0.01302,-9.75760,-0.05996,0.00507,0.06051
2025-11-23T06:30:40.461538,-0.00231,-0.12256,-9.73314,-0.03225,0.04209,0.06601
2025-11-23T06:30:40.471154,-0.02324,-0.11921,-9.77579,-0.10770,0.05278,-0.05863
2025-11-23T06:30:40.480769,0.04432,-0.09973,-9.79149,-0.05828,0.07423,0.07198
2025-11-23T06:30:40.490385,-0.00945,0.03677,-9.75533,0.01541,0.07540,0.07789
2025-11-23T06:30:40.5,0.03661,-0.01064,-9.81618,-0.06979,0.02572,0.01036
2025-11-23T06:30:40.509615,0.02559,-0.04020,-9.79467,-0.14075,0.09171,0.03532
2025-11-23T06:30:40.519231,0.03124,-0.02556,-9.76972,-0.15595,-0.05074,-0.02369
2025-11-23T06:30:40.528846,-0.00938,-0.05522,-9.82879,-0.06205,0.05754,-0.09694
2025-11-23T06:30:40.538462,0.03613,-0.04007,-9.80359,0.03990,0.10156,-0.09784
2025-11-23T06:30:40.548077,0.04947,-0.06825,-9.78909,0.03870,0.01510,-0.05271
2025-11-23T06:30:40.557692,-0.02347,-0.01948,-9.85957,0.04193,-0.08111,0.00956
2025-11-23T06:30:40.567308,0.00675,-0.00084,-9.71742,0.06299,0.02783,0.01293
2025-11-23T06:30:40.576923,0.03466,-0.05773,-9.71854,-0.00564,0.11421,0.03170
2025-11-23T06:30:40.586538,-0.00572,-0.05848,-9.83810,-0.04926,0.02196,0.04987
2025-11-23T06:30:40.596154,0.11317,-0.04679,-9.71067,0.04405,-0.14200,-0.00477
2025-11-23T06:30:40.605769,-0.05660,-0.01124,-9.81938,-0.06152,0.05017,-0.08470
2025-11-23T06:30:40.615385,-0.00329,-0.07205,-9.73857,0.21648,0.05857,0.03649
2025-11-23T06:30:40.625,-0.00565,-0.03184,-9.69780,-0.01600,0.09695,-0.00231
2025-11-23T06:30:40.634615,-0.03347,-0.01889,-9.74671,-0.01086,-0.04356,-0.04770
2025-11-23T06:30:40.644231,0.01888,-0.09098,-9.82725,0.00941,0.10678,-0.01872
2025-11-23T06:30:40.653846,-0.00600,0.05651,-9.74960,-0.03471,0.10493,0.12430
2025-11-23T06:30:40.663462,-0.02711,-0.04619,-9.79443,-0.05440,-0.05081,-0.00995
2025-11-23T06:30:40.673077,0.02584,-0.04112,-9.84513,-0.15033,0.00079,0.04244
2025-11-23T06:30:40.682692,0.01359,-0.17546,-9.79919,-0.08280,0.01093,-0.05109
2025-11-23T06:30:40.692308,-0.00446,0.06571,-9.73919,-0.04461,0.03113,0.00432
2025-11-23T06:30:40.701923,0.00332,-0.04393,-9.72304,0.02715,0.05628,0.07732
2025-11-23T06:30:40.711538,-0.01405,-0.11339,-9.80942,-0.03576,0.06264,0.06481
2025-11-23T06:30:40.721154,-0.00878,-0.01242,-9.71552,-0.06502,0.05847,0.08003
2025-11-23T06:30:40.730769,0.01379,-0.12681,-9.70810,0.01359,0.04370,-0.01201
2025-11-23T06:30:40.740385,0.01241,-0.04777,-9.71958,-0.11682,0.13614,0.01332
2025-11-23T06:30:40.75,-0.01379,-0.02965,-9.71344,-0.02384,-0.06813,-0.00472
2025-11-23T06:30:40.759615,-0.02671,-0.10154,-9.76286,-0.09872,0.08291,-0.04683
2025-11-23T06:30:40.769231,-0.00799,0.01616,-9.81793,-0.03254,0.05254,-0.03523
2025-11-23T06:30:40.778846,0.02067,-0.02587,-9.85893,-0.15498,-0.15786,0.00316
2025-11-23T06:30:40.788462,0.03708,0.01578,-9.78734,-0.05115,0.06711,0.08954
2025-11-23T06:30:40.798077,0.03416,-0.05367,-9.79138,0.02474,-0.01976,-0.04024
2025-11-23T06:30:40.807692,0.01459,-0.05437,-9.78129,0.00234,0.00985,0.05187
2025-11-23T06:30:40.817308,0.05985,0.00684,-9.73170,-0.04676,0.04420,-0.01583
2025-11-23T06:30:40.826923,0.00870,-0.02162,-9.70657,-0.12808,-0.02179,-0.00559
2025-11-23T06:30:40.836538,-0.02270,-0.06457,-9.70987,0.01807,0.03868,0.01591
2025-11-23T06:30:40.846154,0.03629,-0.02684,-9.82863,-0.01820,0.02290,-0.01112
2025-11-23T06:30:40.855769,-0.00488,-0.08164,-9.75140,-0.00719,0.05909,0.00597
2025-11-23T06:30:40.865385,0.07669,-0.11845,-9.71462,-0.00808,0.04148,-0.01006
2025-11-23T06:30:40.875,-0.02019,-0.09949,-9.78004,-0.14888,0.09551,0.07143
2025-11-23T06:30:40.884615,-0.00097,-0.10614,-9.76084,-0.01818,0.04467,0.03707
2025-11-23T06:30:40.894231,0.04138,0.02756,-9.77307,0.02741,-0.07658,0.00973
2025-11-23T06:30:40.903846,0.05722,0.04937,-9.74728,-0.12412,0.02931,0.01809
2025-11-23T06:30:40.913462,0.04812,-0.00588,-9.90679,0.06254,0.00259,-0.01101
2025-11-23T06:30:40.923077,0.00745,-0.09888,-9.84057,-0.02914,0.10098,0.09229
2025-11-23T06:30:40.932692,0.00140,0.02083,-9.79717,0.06880,0.05398,0.02938
2025-11-23T06:30:40.942308,0.02435,-0.06271,-9.80824,-0.04283,-0.00787,0.03300
2025-11-23T06:30:40.951923,0.00757,-0.05217,-9.78573,0.08824,0.03706,-0.01165
2025-11-23T06:30:40.961538,0.03528,-0.05226,-9.78188,-0.05157,0.04925,0.03781
2025-11-23T06:30:40.971154,-0.03368,-0.08700,-9.90576,0.02228,0.11528,0.08349
2025-11-23T06:30:40.980769,0.04979,-0.04589,-9.78048,-0.14176,-0.01698,-0.01084
2025-11-23T06:30:40.990385,0.06504,-0.06321,-9.75586,-0.01479,-0.01632,-0.06703
2025-11-23T06:30:41,-0.02780,-0.05717,-9.78162,-0.04693,0.02601,0.04332
2025-11-23T06:30:41.009615,0.04183,-0.11144,-9.77151,-0.00731,-0.01761,-0.06025
2025-11-23T06:30:41.019231,-0.00502,-0.01353,-9.73635,-0.03509,0.03760,0.06886
2025-11-23T06:30:41.028846,-0.01282,-0.03813,-9.74712,-0.02068,0.05096,0.01247
2025-11-23T06:30:41.038462,-0.01288,-0.10194,-9.71868,-0.07937,0.05326,-0.05471
2025-11-23T06:30:41.048077,-0.00966,0.07328,-9.82553,-0.10238,0.10349,0.07691
2025-11-23T06:30:41.057692,0.02264,-0.01005,-9.83575,0.01237,0.00106,-0.02912
2025-11-23T06:30:41.067308,0.00122,-0.10038,-9.66368,-0.06709,-0.01418,0.06320
2025-11-23T06:30:41.076923,0.05473,-0.05579,-9.75750,-0.02907,0.04937,0.01064
2025-11-23T06:30:41.086538,0.06488,-0.07226,-9.80213,-0.05958,0.07745,0.04114
2025-11-23T06:30:41.096154,-0.02500,-0.03499,-9.78378,-0.05571,0.04920,-0.07622
2025-11-23T06:30:41.105769,0.01918,-0.10202,-9.77978,0.07163,0.01091,0.05111
2025-11-23T06:30:41.115385,-0.00928,-0.08190,-9.79478,0.05416,0.09451,-0.01303
2025-11-23T06:30:41.125,0.01104,-0.07283,-9.75378,-0.09940,-0.07095,0.08631
2025-11-23T06:30:41.134615,0.03092,-0.10587,-9.77656,-0.04997,0.00751,-0.08568
2025-11-23T06:30:41.144231,0.01373,-0.08103,-9.77846,0.03242,-0.01169,0.03549
2025-11-23T06:30:41.153846,0.02616,-0.02024,-9.65253,0.02625,0.06807,0.09266
2025-11-23T06:30:41.163462,0.04660,-0.06705,-9.80562,0.03930,0.05441,0.08881
2025-11-23T06:30:41.173077,0.02294,-0.06624,-9.78831,-0.16801,0.10308,0.03411
2025-11-23T06:30:41.182692,-0.02489,-0.07973,-9.70605,-0.04324,0.01558,0.04841
2025-11-23T06:30:41.192308,0.02183,-0.01612,-9.75845,0.02430,-0.04329,0.02764
2025-11-23T06:30:41.201923,0.01822,-0.04686,-9.80581,-0.06005,0.10427,-0.00214
2025-11-23T06:30:41.211538,0.03268,-0.00700,-9.78766,-0.02711,-0.01815,0.01548
2025-11-23T06:30:41.221154,0.03886,-0.03926,-9.78775,-0.14759,0.06128,0.04829
2025-11-23T06:30:41.230769,0.07459,-0.03024,-9.72726,-0.11223,0.12248,0.06871
2025-11-23T06:30:41.240385,0.03522,-0.02722,-9.70168,-0.08107,0.08417,0.07959
2025-11-23T06:30:41.25,-0.01832,-0.02789,-9.76780,0.00621,0.08441,-0.01036
2025-11-23T06:30:41.259615,0.04861,-0.05858,-9.78757,-0.11224,0.09642,0.12269
2025-11-23T06:30:41.269231,0.03797,-0.00941,-9.80085,-0.06055,-0.03051,-0.01030
2025-11-23T06:30:41.278846,0.03481,-0.04001,-9.73174,-0.02108,-0.03874,0.09901
2025-11-23T06:30:41.288462,-0.00497,0.02461,-9.75044,-0.02592,0.17208,-0.09309
2025-11-23T06:30:41.298077,0.03665,-0.05400,-9.81931,0.06806,0.07470,-0.03314
2025-11-23T06:30:41.307692,0.04067,0.02529,-9.87068,-0.01765,0.01563,-0.05570
2025-11-23T06:30:41.317308,-0.03087,-0.06520,-9.69404,0.00046,0.09519,0.05907
2025-11-23T06:30:41.326923,0.04454,-0.08965,-9.79033,0.02374,-0.00764,0.00889
2025-11-23T06:30:41.336538,0.06107,-0.06771,-9.81242,0.00553,0.06082,-0.00216
2025-11-23T06:30:41.346154,0.03247,-0.04082,-9.62911,0.05860,0.09817,0.08100
2025-11-23T06:30:41.355769,0.04845,-0.07201,-9.75675,-0.02919,0.00382,0.04406
2025-11-23T06:30:41.365385,0.01470,-0.06293,-9.73191,-0.14336,0.09904,0.03213
2025-11-23T06:30:41.375,-0.05330,0.02175,-9.85693,-0.09344,0.08675,0.00230
2025-11-23T06:30:41.384615,-0.04918,-0.06102,-9.76199,0.01213,0.02308,0.04291
2025-11-23T06:30:41.394231,-0.00344,-0.07333,-9.67641,-0.09267,0.12723,0.03595
2025-11-23T06:30:41.403846,-0.00242,-0.02370,-9.75612,-0.05000,0.06408,-0.00488
2025-11-23T06:30:41.413462,0.00461,-0.01417,-9.77679,-0.13002,0.01729,0.02818
2025-11-23T06:30:41.423077,0.05544,-0.02817,-9.73107,-0.08704,0.01541,0.08263
2025-11-23T06:30:41.432692,0.02711,-0.04056,-9.79691,-0.02852,-0.03114,0.04446
2025-11-23T06:30:41.442308,-0.02129,0.01077,-9.80684,-0.18004,0.10961,-0.00422
2025-11-23T06:30:41.451923,0.09662,-0.04641,-9.72692,-0.01075,0.16088,0.02777
2025-11-23T06:30:41.461538,-0.01345,-0.03776,-9.69724,-0.00033,0.05384,-0.06296
2025-11-23T06:30:41.471154,-0.02177,-0.01364,-9.80879,-0.01020,-0.02632,0.12716
2025-11-23T06:30:41.480769,0.02028,0.05922,-9.76191,-0.09527,0.08494,0.08346
2025-11-23T06:30:41.490385,-0.04195,-0.03573,-9.87721,0.09560,0.04752,0.01220
2025-11-23T06:30:41.5,0.03062,-0.09100,-9.69242,-0.05206,-0.07879,0.10420
2025-11-23T06:30:41.509615,0.05335,-0.02263,-9.81652,0.02943,0.17112,0.07566
2025-11-23T06:30:41.519231,-0.00678,-0.00399,-9.72616,-0.13850,-0.06995,0.00012
2025-11-23T06:30:41.528846,0.02967,-0.05320,-9.77566,-0.04320,0.04875,0.06492
2025-11-23T06:30:41.538462,0.01461,-0.03400,-9.79476,0.01984,0.00768,0.11760
2025-11-23T06:30:41.548077,0.02439,-0.07443,-9.78951,-0.02404,0.04397,0.00569
2025-11-23T06:30:41.557692,0.01742,-0.03819,-9.74518,0.05106,0.02092,-0.06225
2025-11-23T06:30:41.567308,-0.03876,-0.09539,-9.72128,0.00378,-0.00220,0.00545
2025-11-23T06:30:41.576923,-0.03611,-0.02524,-9.78977,0.09235,-0.03114,0.08713
2025-11-23T06:30:41.586538,0.04664,-0.08328,-9.73592,-0.06636,-0.01487,0.03003
2025-11-23T06:30:41.596154,0.02827,0.01847,-9.73155,-0.21942,0.01462,-0.06141
2025-11-23T06:30:41.605769,0.03482,-0.09763,-9.83122,-0.02580,0.02239,0.11682
2025-11-23T06:30:41.615385,0.03209,0.02531,-9.79741,-0.03602,-0.02674,0.05109
2025-11-23T06:30:41.625,0.05709,-0.04585,-9.80787,-0.08940,-0.05484,0.04456
2025-11-23T06:30:41.634615,-0.05472,-0.13117,-9.70252,-0.14833,0.06560,-0.02399
2025-11-23T06:30:41.644231,0.03965,-0.03760,-9.73115,-0.03237,0.08198,0.13017
2025-11-23T06:30:41.653846,-0.00343,-0.07635,-9.78415,-0.05181,0.04768,0.00931
2025-11-23T06:30:41.663462,0.01746,-0.02977,-9.77179,0.00726,-0.04087,0.11876
2025-11-23T06:30:41.673077,0.02986,-0.01970,-9.71798,0.01589,0.05952,0.03113
2025-11-23T06:30:41.682692,0.02288,-0.05653,-9.78758,0.13269,-0.08703,0.04333
2025-11-23T06:30:41.692308,0.04533,0.00559,-9.83517,-0.10266,0.08645,0.02609
2025-11-23T06:30:41.701923,0.02343,-0.03605,-9.74966,-0.05430,0.05163,0.00754
2025-11-23T06:30:41.711538,0.00216,-0.03354,-9.84237,-0.13956,0.07558,0.05295
2025-11-23T06:30:41.721154,0.00992,-0.08566,-9.66947,-0.14445,0.16339,0.00080
2025-11-23T06:30:41.730769,0.00888,-0.05889,-9.72461,0.02206,0.02328,-0.00320
2025-11-23T06:30:41.740385,0.05889,-0.03799,-9.78621,-0.01451,0.04929,0.10232
2025-11-23T06:30:41.75,0.01742,-0.07498,-9.70601,0.09116,0.03711,0.06975
2025-11-23T06:30:41.759615,0.00782,-0.08096,-9.71932,0.00038,0.02897,0.11606
2025-11-23T06:30:41.769231,-0.03660,-0.02976,-9.77428,0.09653,0.04228,0.03295
2025-11-23T06:30:41.778846,0.02415,-0.09994,-9.76534,-0.05809,0.14170,0.16351
2025-11-23T06:30:41.788462,-0.01217,-0.07732,-9.80416,-0.08352,0.04711,0.09819
2025-11-23T06:30:41.798077,-0.02937,-0.11733,-9.71607,0.05764,-0.06415,-0.03759
2025-11-23T06:30:41.807692,0.04957,-0.00304,-9.76165,0.01246,0.06612,0.01649
2025-11-23T06:30:41.817308,0.01675,-0.08813,-9.79473,-0.14328,0.04432,0.09927
2025-11-23T06:30:41.826923,0.05059,0.04010,-9.75242,-0.11647,-0.01667,0.02792
2025-11-23T06:30:41.836538,-0.02076,-0.05407,-9.78039,0.00693,-0.04105,0.13851
2025-11-23T06:30:41.846154,0.04347,-0.06975,-9.68438,-0.05957,0.17002,0.09866
2025-11-23T06:30:41.855769,0.00308,0.03116,-9.72132,-0.04651,0.05706,0.05521
2025-11-23T06:30:41.865385,0.01069,-0.07016,-9.79290,-0.00301,-0.02442,0.08183
2025-11-23T06:30:41.875,0.03958,-0.00816,-9.70909,0.00824,0.09211,0.03666
2025-11-23T06:30:41.884615,-0.01041,-0.05367,-9.73402,-0.03954,0.07368,-0.00706
2025-11-23T06:30:41.894231,-0.00072,-0.02799,-9.77271,0.02943,0.01545,-0.00406
2025-11-23T06:30:41.903846,0.00738,-0.09174,-9.74482,0.06505,-0.11397,-0.01840
2025-11-23T06:30:41.913462,0.05369,-0.03165,-9.75541,-0.00067,0.08239,0.12883
2025-11-23T06:30:41.923077,-0.02080,-0.06290,-9.76118,-0.09326,0.02355,0.02022
2025-11-23T06:30:41.932692,0.03740,-0.05961,-9.82659,-0.08666,0.04438,0.15284
2025-11-23T06:30:41.942308,0.06120,-0.02413,-9.87976,-0.00982,-0.01834,-0.02109
2025-11-23T06:30:41.951923,0.07038,-0.10753,-9.80302,0.04496,0.08824,-0.03891
2025-11-23T06:30:41.961538,0.00082,-0.05197,-9.73410,-0.07732,0.01870,0.12072
2025-11-23T06:30:41.971154,0.00510,-0.02525,-9.83473,-0.08131,-0.05157,0.05524
2025-11-23T06:30:41.980769,0.04007,-0.00309,-9.76975,-0.06377,0.05922,0.05046
2025-11-23T06:30:41.990385,0.04863,-0.03518,-9.73243,-0.13317,0.10250,0.15384
2025-11-23T06:30:42,-0.02764,-0.04285,-9.77522,-0.02190,0.02398,0.07283
2025-11-23T06:30:42.009615,0.02309,-0.07218,-9.76735,0.03282,0.00561,0.08160
2025-11-23T06:30:42.019231,0.00483,-0.05401,-9.70955,-0.09170,0.12607,-0.02582
2025-11-23T06:30:42.028846,0.04366,-0.01648,-9.82347,-0.12419,0.10181,-0.01546
2025-11-23T06:30:42.038462,0.00019,-0.04507,-9.65572,0.07167,0.09897,-0.02121
2025-11-23T06:30:42.048077,0.01752,-0.04875,-9.70518,-0.15966,0.06185,0.05484
2025-11-23T06:30:42.057692,0.06820,-0.09601,-9.77141,-0.03260,-0.11603,-0.02375
2025-11-23T06:30:42.067308,0.03968,-0.00658,-9.74286,-0.02142,-0.11682,0.05961
2025-11-23T06:30:42.076923,0.05127,0.00957,-9.65982,0.01165,0.09641,-0.00338
2025-11-23T06:30:42.086538,-0.02186,-0.00866,-9.83358,-0.05395,-0.01978,0.02516
2025-11-23T06:30:42.096154,-0.00156,-0.03615,-9.82407,0.06009,-0.00758,0.10029
2025-11-23T06:30:42.105769,-0.05859,-0.08537,-9.78380,0.04392,0.00347,0.06834
2025-11-23T06:30:42.115385,0.03257,-0.09449,-9.73102,-0.25187,-0.09677,0.14158
2025-11-23T06:30:42.125,-0.01192,0.04425,-9.72019,0.04084,0.00730,0.08092
2025-11-23T06:30:42.134615,-0.03528,-0.02122,-9.78307,0.05203,0.13021,0.01669
2025-11-23T06:30:42.144231,0.02111,-0.01875,-9.79473,-0.04795,0.08046,0.07111
2025-11-23T06:30:42.153846,0.02250,-0.08170,-9.86386,0.01800,0.01279,0.03190
2025-11-23T06:30:42.163462,-0.03304,-0.06155,-9.90692,-0.06890,-0.02769,0.14371
2025-11-23T06:30:42.173077,0.00851,-0.03900,-9.73677,-0.09446,0.01966,0.03172
2025-11-23T06:30:42.182692,0.01725,-0.12627,-9.73335,0.14513,-0.03272,0.22833
2025-11-23T06:30:42.192308,0.04575,-0.06891,-9.78810,-0.12902,-0.04029,-0.05994
2025-11-23T06:30:42.201923,-0.02050,-0.03062,-9.75741,-0.08742,0.03882,0.04533
2025-11-23T06:30:42.211538,0.01636,-0.04383,-9.82696,-0.13426,-0.02604,0.05651
2025-11-23T06:30:42.221154,0.06017,-0.03306,-9.72582,-0.03221,0.11451,0.05697
2025-11-23T06:30:42.230769,0.00589,-0.04632,-9.67683,-0.12779,0.03476,0.01996
2025-11-23T06:30:42.240385,0.07083,-0.05902,-9.91796,0.00306,0.07881,-0.03646
2025-11-23T06:30:42.25,0.01247,-0.14185,-9.74005,-0.00976,0.05129,-0.00422
2025-11-23T06:30:42.259615,-0.00519,-0.02649,-9.82600,0.06429,0.06108,-0.06213
2025-11-23T06:30:42.269231,0.01930,-0.06923,-9.76993,-0.17454,0.04712,-0.07677
2025-11-23T06:30:42.278846,0.05645,0.00586,-9.79310,-0.11250,0.10077,0.04817
2025-11-23T06:30:42.288462,0.03372,-0.09135,-9.73432,-0.19634,0.13907,-0.03080
2025-11-23T06:30:42.298077,-0.00678,-0.01646,-9.73691,-0.01659,0.07178,0.07521
2025-11-23T06:30:42.307692,-0.04570,-0.14290,-9.89569,-0.04651,0.01526,0.04358
2025-11-23T06:30:42.317308,0.00651,-0.08867,-9.85438,-0.18173,0.12023,0.09817
2025-11-23T06:30:42.326923,0.00519,-0.02875,-9.69309,-0.08750,0.04389,0.11126
2025-11-23T06:30:42.336538,-0.00930,-0.04889,-9.81404,0.11068,0.09420,0.06118
2025-11-23T06:30:42.346154,0.04073,-0.02091,-9.80346,-0.07572,-0.07648,0.04694
2025-11-23T06:30:42.355769,0.04485,-0.02320,-9.73363,-0.08720,-0.00424,0.11393
2025-11-23T06:30:42.365385,-0.01148,-0.02659,-9.73346,0.00737,0.03769,0.02417
2025-11-23T06:30:42.375,0.06641,-0.04145,-9.81180,-0.01970,-0.06050,0.06314
2025-11-23T06:30:42.384615,0.04324,-0.04336,-9.72231,0.12326,0.01334,0.00775
2025-11-23T06:30:42.394231,0.01046,-0.04181,-9.80855,-0.00426,0.03401,-0.06118
2025-11-23T06:30:42.403846,0.02357,0.00129,-9.80732,-0.10342,0.11241,0.01970
2025-11-23T06:30:42.413462,0.02784,-0.01714,-9.77693,-0.12606,0.10201,0.02896
2025-11-23T06:30:42.423077,0.07563,-0.01134,-9.83254,-0.08024,0.01026,0.01269
2025-11-23T06:30:42.432692,0.03799,-0.01568,-9.76486,-0.07453,0.04330,0.08488
2025-11-23T06:30:42.442308,0.00258,-0.07121,-9.74147,-0.02644,-0.06674,0.01981
2025-11-23T06:30:42.451923,-0.01734,-0.04178,-9.81038,0.04496,0.02265,0.02924
2025-11-23T06:30:42.461538,0.00517,-0.01375,-9.74297,-0.14179,0.14017,0.03918
2025-11-23T06:30:42.471154,0.01669,-0.07397,-9.80796,-0.09179,0.02009,0.02607
2025-11-23T06:30:42.480769,0.02885,-0.06989,-9.71622,-0.00736,0.07098,0.06144
2025-11-23T06:30:42.490385,0.00239,-0.08947,-9.76039,-0.24331,-0.00071,0.06321
2025-11-23T06:30:42.5,0.05150,-0.01941,-9.77249,-0.07542,0.10497,0.01709
2025-11-23T06:30:42.509615,0.03559,-0.02385,-9.67330,-0.06226,-0.11064,0.08632
2025-11-23T06:30:42.519231,0.00725,0.01588,-9.68659,-0.09489,-0.00967,-0.01237
2025-11-23T06:30:42.528846,-0.01610,-0.01890,-9.74742,-0.13605,-0.03037,-0.02151
2025-11-23T06:30:42.538462,-0.02947,-0.11396,-9.78821,-0.01647,0.06962,0.05137
2025-11-23T06:30:42.548077,0.01183,-0.02523,-9.79420,-0.04341,0.00203,0.02544
2025-11-23T06:30:42.557692,-0.02245,-0.00545,-9.85958,-0.01412,-0.07446,0.13036
2025-11-23T06:30:42.567308,-0.01307,-0.06739,-9.83725,-0.05171,0.05319,0.18422
2025-11-23T06:30:42.576923,0.05030,-0.07288,-9.76503,0.01575,0.06244,0.07448
2025-11-23T06:30:42.586538,0.01168,-0.04262,-9.71758,-0.15341,-0.01236,-0.01129
2025-11-23T06:30:42.596154,-0.01273,-0.00374,-9.66902,0.04986,-0.06249,0.05683
2025-11-23T06:30:42.605769,0.02562,0.00336,-9.74915,0.01491,0.01200,-0.04816
2025-11-23T06:30:42.615385,0.00881,-0.02531,-9.71411,-0.07289,0.02774,0.06635
2025-11-23T06:30:42.625,0.00966,-0.09395,-9.72385,-0.01830,0.04965,-0.01202
2025-11-23T06:30:42.634615,-0.04119,-0.13143,-9.79170,-0.07924,0.06274,0.12749
2025-11-23T06:30:42.644231,0.06687,-0.07312,-9.74038,-0.13912,0.03078,0.03732
2025-11-23T06:30:42.653846,0.02988,-0.12642,-9.77366,-0.10642,0.02988,0.07385
2025-11-23T06:30:42.663462,0.00024,-0.09631,-9.75147,-0.09642,0.05314,-0.01938
2025-11-23T06:30:42.673077,-0.01976,-0.00148,-9.80269,-0.00893,0.01069,0.08876
2025-11-23T06:30:42.682692,0.05075,-0.02140,-9.74478,0.07174,-0.02931,0.12079
2025-11-23T06:30:42.692308,-0.03388,-0.02935,-9.79024,0.07297,-0.01474,0.05668
2025-11-23T06:30:42.701923,-0.04702,-0.02812,-9.83081,0.05282,0.13993,0.05384
2025-11-23T06:30:42.711538,0.02801,-0.11401,-9.77055,-0.03564,0.07182,0.03919
2025-11-23T06:30:42.721154,0.00719,-0.08695,-9.68905,-0.09910,-0.02695,0.05210
2025-11-23T06:30:42.730769,-0.00217,-0.05452,-9.80501,-0.06641,0.10873,0.07684
2025-11-23T06:30:42.740385,-0.00170,-0.01837,-9.81335,-0.04255,0.01733,0.08181
2025-11-23T06:30:42.75,0.00715,-0.08420,-9.76161,-0.11504,0.14354,0.05379
2025-11-23T06:30:42.759615,0.03570,-0.05246,-9.77556,-0.05226,-0.03311,0.00770
2025-11-23T06:30:42.769231,0.04624,-0.07470,-9.80092,-0.08075,0.06873,0.15652
2025-11-23T06:30:42.778846,0.02827,-0.04408,-9.79570,-0.01235,-0.07266,0.09778
2025-11-23T06:30:42.788462,-0.01925,0.01632,-9.73666,0.03471,-0.08606,0.04135
2025-11-23T06:30:42.798077,0.03060,0.00650,-9.87780,-0.04720,0.00895,0.10649
2025-11-23T06:30:42.807692,-0.02771,-0.05693,-9.83333,-0.10439,0.02075,0.03086
2025-11-23T06:30:42.817308,-0.03526,0.04599,-9.71587,0.00265,-0.07510,-0.05480
2025-11-23T06:30:42.826923,0.00416,0.04231,-9.71362,-0.08637,0.10373,0.11823
2025-11-23T06:30:42.836538,0.04858,-0.03547,-9.81395,-0.13290,0.00821,0.10676
2025-11-23T06:30:42.846154,-0.03819,-0.02647,-9.91941,0.08161,-0.01473,0.09330
2025-11-23T06:30:42.855769,-0.03330,-0.09193,-9.66592,-0.06924,0.00737,0.06756
2025-11-23T06:30:42.865385,0.05184,-0.04446,-9.79773,-0.05152,0.03798,0.12300
2025-11-23T06:30:42.875,0.06699,-0.08405,-9.75345,0.07674,0.10820,0.07314
2025-11-23T06:30:42.884615,-0.01072,-0.05535,-9.76481,-0.06681,-0.08843,0.01850
2025-11-23T06:30:42.894231,0.03672,-0.10618,-9.79935,-0.16881,-0.02482,0.23744
2025-11-23T06:30:42.903846,0.00048,-0.07301,-9.84264,-0.18207,0.01227,0.04229
2025-11-23T06:30:42.913462,-0.03914,-0.03112,-9.71225,-0.18917,0.06212,-0.02584
2025-11-23T06:30:42.923077,0.05629,-0.04908,-9.76620,-0.09875,0.03549,0.11448
2025-11-23T06:30:42.932692,0.00672,-0.03296,-9.73884,-0.16626,0.01884,0.02167
2025-11-23T06:30:42.942308,0.04277,-0.03614,-9.71490,-0.12007,-0.01494,0.00619
2025-11-23T06:30:42.951923,0.01391,-0.05700,-9.84298,-0.05464,-0.01724,0.08780
2025-11-23T06:30:42.961538,0.04664,-0.03941,-9.87604,-0.06157,-0.08854,0.10651
2025-11-23T06:30:42.971154,0.01010,-0.03072,-9.85502,-0.21025,-0.02616,0.04401
2025-11-23T06:30:42.980769,0.01370,-0.03604,-9.74819,0.06179,0.07137,0.03844
2025-11-23T06:30:42.990385,0.02934,-0.09160,-9.71322,0.01540,-0.00302,0.02467
2025-11-23T06:30:43,0.02886,-0.05257,-9.73812,0.01818,0.14178,0.10762
2025-11-23T06:30:43.009615,0.03250,-0.08611,-9.74451,-0.15936,0.04317,0.08611
2025-11-23T06:30:43.019231,0.06987,-0.09572,-9.72753,-0.08677,0.03510,0.02414
2025-11-23T06:30:43.028846,0.04270,0.02568,-9.74074,0.00133,0.02373,0.04599
2025-11-23T06:30:43.038462,0.01612,-0.05439,-9.85109,-0.07019,0.05638,0.03441
2025-11-23T06:30:43.048077,0.00692,-0.09028,-9.82675,-0.10112,-0.00784,0.04534
2025-11-23T06:30:43.057692,-0.02204,-0.13172,-9.74527,-0.08056,0.00434,0.18959
2025-11-23T06:30:43.067308,0.02950,-0.00899,-9.77418,0.02111,-0.03101,0.02262
2025-11-23T06:30:43.076923,0.06003,0.01617,-9.81132,0.03584,0.00130,0.11443
2025-11-23T06:30:43.086538,0.04091,-0.05213,-9.79486,-0.04895,0.02405,0.02973
2025-11-23T06:30:43.096154,0.06370,-0.06359,-9.87331,-0.21022,-0.18882,0.02827
2025-11-23T06:30:43.105769,-0.03871,-0.06055,-9.87435,0.03220,0.03873,0.07647
2025-11-23T06:30:43.115385,0.06234,-0.00491,-9.80968,-0.14227,-0.06277,-0.03001
2025-11-23T06:30:43.125,0.00578,-0.04188,-9.76983,0.09843,-0.02832,0.12100
2025-11-23T06:30:43.134615,0.00697,-0.12605,-9.73263,-0.10038,-0.02105,0.07193
2025-11-23T06:30:43.144231,0.04636,-0.07466,-9.77145,-0.02670,0.01370,0.09543
2025-11-23T06:30:43.153846,0.04889,-0.07623,-9.85398,-0.04967,0.09668,0.03398
2025-11-23T06:30:43.163462,0.00097,-0.04020,-9.78899,-0.02434,-0.11250,0.13773
2025-11-23T06:30:43.173077,-0.01495,0.00953,-9.75684,0.05930,-0.07368,0.14604
2025-11-23T06:30:43.182692,-0.05194,-0.01595,-9.79558,-0.11978,-0.00468,-0.03928
2025-11-23T06:30:43.192308,0.00490,-0.05807,-9.70728,-0.04425,-0.03709,0.01180
2025-11-23T06:30:43.201923,0.04444,-0.07089,-9.83360,0.01971,0.01458,0.05950
2025-11-23T06:30:43.211538,-0.02598,-0.03872,-9.87163,-0.06847,0.05236,0.11880
2025-11-23T06:30:43.221154,0.03730,-0.01466,-9.78664,0.13053,0.00977,0.01554
2025-11-23T06:30:43.230769,-0.04607,0.01734,-9.72947,-0.07569,0.05372,0.08855
2025-11-23T06:30:43.240385,-0.00759,-0.10007,-9.88512,-0.06820,-0.10389,0.05204
2025-11-23T06:30:43.25,-0.00227,-0.08580,-9.71909,-0.06136,0.02563,0.11001
2025-11-23T06:30:43.259615,-0.01713,0.05599,-9.78866,-0.12211,-0.00977,0.03152
2025-11-23T06:30:43.269231,-0.00131,-0.04772,-9.78130,-0.00822,-0.11661,-0.01591
2025-11-23T06:30:43.278846,-0.00239,0.00323,-9.76499,-0.14863,0.04671,0.00906
2025-11-23T06:30:43.288462,0.04923,0.04014,-9.78426,0.00325,0.02942,0.10189
2025-11-23T06:30:43.298077,-0.00075,-0.03486,-9.75659,-0.10129,0.06692,0.11800
2025-11-23T06:30:43.307692,0.00422,-0.06148,-9.77363,0.03790,0.11519,0.03713
2025-11-23T06:30:43.317308,-0.01324,-0.00630,-9.76943,-0.02553,0.04167,0.08066
2025-11-23T06:30:43.326923,-0.02089,-0.07214,-9.77462,-0.01880,-0.01982,0.04006
2025-11-23T06:30:43.336538,-0.00321,-0.03762,-9.79723,-0.10872,-0.10246,0.03388
2025-11-23T06:30:43.346154,0.03722,-0.09381,-9.80211,-0.00008,-0.00187,0.08682
2025-11-23T06:30:43.355769,-0.03988,-0.06357,-9.83019,0.04959,-0.00248,0.08691
2025-11-23T06:30:43.365385,0.00016,-0.04364,-9.76020,-0.06618,0.09544,0.10328
2025-11-23T06:30:43.375,0.01252,-0.06068,-9.79926,-0.07316,-0.11195,0.08004
2025-11-23T06:30:43.384615,0.01069,-0.06689,-9.77934,-0.03109,0.02838,0.15310
2025-11-23T06:30:43.394231,0.02207,-0.01859,-9.77734,-0.06392,-0.06822,0.03134
2025-11-23T06:30:43.403846,0.05520,-0.07336,-9.75744,-0.01028,0.07609,0.07396
2025-11-23T06:30:43.413462,0.03810,-0.09394,-9.77911,-0.17257,-0.13581,0.01982
2025-11-23T06:30:43.423077,0.02622,-0.00644,-9.79703,-0.05717,-0.01278,0.04828
2025-11-23T06:30:43.432692,0.02141,-0.06542,-9.82144,-0.08425,0.06013,0.04027
2025-11-23T06:30:43.442308,0.00338,0.00850,-9.84202,-0.09651,0.03688,0.08615
2025-11-23T06:30:43.451923,0.07238,-0.04384,-9.76728,-0.08773,0.11965,0.10464
2025-11-23T06:30:43.461538,-0.03886,-0.03211,-9.80543,-0.01990,0.06684,0.02377
2025-11-23T06:30:43.471154,0.03708,-0.04020,-9.79857,-0.12220,-0.04492,-0.00238
2025-11-23T06:30:43.480769,0.01366,-0.09562,-9.78238,-0.13846,-0.22926,0.12212
2025-11-23T06:30:43.490385,-0.03397,-0.07561,-9.77187,-0.07470,-0.05862,0.03563
2025-11-23T06:30:43.5,-0.00624,-0.03834,-9.79394,-0.10127,0.00284,-0.02196
2025-11-23T06:30:43.509615,-0.04198,-0.05015,-9.76540,-0.01883,0.01909,0.12466
2025-11-23T06:30:43.519231,0.00821,-0.04095,-9.80739,-0.08961,0.09069,0.02562
2025-11-23T06:30:43.528846,0.00193,-0.05537,-9.77455,-0.06256,0.02624,0.06802
2025-11-23T06:30:43.538462,0.05125,-0.08066,-9.70028,-0.07959,0.04628,0.06921
2025-11-23T06:30:43.548077,-0.04872,0.01749,-9.82070,-0.10332,0.07363,0.06490
2025-11-23T06:30:43.557692,0.06040,-0.01864,-9.77043,0.00493,-0.09291,0.06967
2025-11-23T06:30:43.567308,-0.00412,-0.03681,-9.85588,0.01458,0.08851,-0.00343
2025-11-23T06:30:43.576923,0.05611,-0.03026,-9.83452,-0.11725,0.05782,0.15230
2025-11-23T06:30:43.586538,0.01099,-0.07784,-9.79745,-0.02698,-0.00485,0.02692
2025-11-23T06:30:43.596154,0.00510,-0.05418,-9.72826,-0.04767,-0.01636,0.10812
2025-11-23T06:30:43.605769,-0.00822,-0.08804,-9.74631,0.02308,0.04347,0.05212
2025-11-23T06:30:43.615385,-0.04137,-0.05210,-9.76917,0.01167,0.00700,0.04167
2025-11-23T06:30:43.625,0.00835,-0.04159,-9.72364,-0.04796,-0.03788,0.05564
2025-11-23T06:30:43.634615,0.00269,-0.13433,-9.86254,-0.13137,0.02882,0.05706
2025-11-23T06:30:43.644231,0.04414,-0.08817,-9.72721,-0.02199,-0.05322,0.13455
2025-11-23T06:30:43.653846,-0.02386,-0.05513,-9.76380,-0.06190,-0.15188,0.04612
2025-11-23T06:30:43.663462,0.08501,0.00743,-9.77784,-0.12415,0.01929,0.00322
2025-11-23T06:30:43.673077,0.02037,-0.06271,-9.77167,-0.07152,-0.04415,0.13661
2025-11-23T06:30:43.682692,0.00036,-0.07717,-9.77532,-0.00954,0.05389,0.13356
2025-11-23T06:30:43.692308,-0.02373,0.03330,-9.72686,0.00870,0.08710,-0.01272
2025-11-23T06:30:43.701923,-0.00577,0.00012,-9.84248,-0.07103,0.09928,0.09269
2025-11-23T06:30:43.711538,0.06499,-0.09931,-9.76199,-0.06453,0.02935,0.04708
2025-11-23T06:30:43.721154,0.01558,-0.09881,-9.75826,-0.07092,0.05744,0.03856
2025-11-23T06:30:43.730769,0.02103,0.00183,-9.88665,-0.04069,0.03664,-0.00948
2025-11-23T06:30:43.740385,0.02818,-0.07947,-9.81609,0.06955,-0.07196,0.01796
2025-11-23T06:30:43.75,-0.02327,-0.09540,-9.70021,0.03495,-0.09448,0.15736
2025-11-23T06:30:43.759615,0.00373,-0.01498,-9.76604,-0.10182,-0.12891,0.01559
2025-11-23T06:30:43.769231,-0.00153,-0.07603,-9.73688,-0.12255,0.05364,0.03660
2025-11-23T06:30:43.778846,-0.02418,-0.04720,-9.82359,-0.16957,-0.00952,0.05778
2025-11-23T06:30:43.788462,0.01731,-0.08685,-9.81534,-0.22059,-0.08579,0.12421
2025-11-23T06:30:43.798077,0.03142,-0.03493,-9.75623,-0.01560,-0.12850,0.01718
2025-11-23T06:30:43.807692,0.04374,-0.03737,-9.80058,-0.07578,-0.04664,0.01447
2025-11-23T06:30:43.817308,0.01319,-0.06468,-9.79593,0.06924,0.03151,0.02547
2025-11-23T06:30:43.826923,-0.03582,-0.00528,-9.77243,-0.06261,0.02982,0.13199
2025-11-23T06:30:43.836538,-0.02057,0.03678,-9.78473,0.05416,-0.05671,0.07876
2025-11-23T06:30:43.846154,0.02747,-0.05770,-9.81870,0.05820,0.01327,-0.04039
2025-11-23T06:30:43.855769,-0.01861,-0.09500,-9.81455,-0.08235,-0.00826,0.02066
2025-11-23T06:30:43.865385,-0.00734,-0.01190,-9.85341,-0.00638,0.02095,0.03767
2025-11-23T06:30:43.875,-0.01375,-0.06262,-9.83650,-0.01702,0.08397,0.02614
2025-11-23T06:30:43.884615,-0.05506,-0.08189,-9.83618,0.07030,-0.05258,0.09846
2025-11-23T06:30:43.894231,0.01184,-0.02423,-9.78787,-0.23887,0.00052,0.10003
2025-11-23T06:30:43.903846,0.02029,-0.11392,-9.79650,0.01360,-0.06909,0.08779
2025-11-23T06:30:43.913462,0.01112,-0.01649,-9.82147,0.15039,-0.00175,0.07671
2025-11-23T06:30:43.923077,0.01019,-0.05735,-9.85900,-0.15625,0.00742,0.05519
2025-11-23T06:30:43.932692,-0.05593,-0.05895,-9.78974,-0.00683,-0.09951,0.08909
2025-11-23T06:30:43.942308,-0.00694,-0.05226,-9.73712,-0.01029,0.04908,0.02512
2025-11-23T06:30:43.951923,-0.02663,-0.06869,-9.80625,-0.08187,0.03651,0.08071
2025-11-23T06:30:43.961538,0.01206,-0.00361,-9.78080,0.01834,0.02156,0.09618
2025-11-23T06:30:43.971154,-0.02897,-0.10427,-9.68867,-0.02207,0.01714,0.05104
2025-11-23T06:30:43.980769,0.09431,-0.09123,-9.78973,-0.05278,-0.09333,-0.00424
2025-11-23T06:30:43.990385,-0.00218,-0.06582,-9.74599,-0.13166,0.01392,0.13274
2025-11-23T06:30:44,-0.02607,-0.16449,-9.74444,-0.01435,-0.05566,0.12330
2025-11-23T06:30:44.009615,0.01132,-0.08784,-9.77081,-0.07921,-0.05015,0.11321
2025-11-23T06:30:44.019231,-0.03681,-0.01862,-9.74499,-0.10731,-0.04267,0.06187
2025-11-23T06:30:44.028846,0.01175,-0.02024,-9.81146,0.09663,-0.06524,0.03219
2025-11-23T06:30:44.038462,0.07954,-0.04469,-9.79629,-0.12410,0.06434,0.06775
2025-11-23T06:30:44.048077,0.02016,0.00867,-9.75270,0.10561,0.06527,0.08107
2025-11-23T06:30:44.057692,0.02446,0.00258,-9.74411,0.02491,-0.00055,0.09732
2025-11-23T06:30:44.067308,0.00297,-0.09792,-9.70079,-0.00806,-0.04717,0.07065
2025-11-23T06:30:44.076923,-0.04325,-0.05337,-9.85836,-0.03466,-0.02429,0.11557
2025-11-23T06:30:44.086538,0.01910,-0.05793,-9.80621,-0.14664,0.05245,0.06738
2025-11-23T06:30:44.096154,0.01410,-0.06253,-9.82348,-0.03133,0.06793,0.04532
2025-11-23T06:30:44.105769,-0.01061,0.02600,-9.82789,0.03441,-0.03410,0.09575
2025-11-23T06:30:44.115385,-0.03952,-0.06233,-9.68178,-0.05793,0.02192,0.04187
2025-11-23T06:30:44.125,0.01745,-0.02684,-9.67646,-0.04972,-0.03042,0.02556
2025-11-23T06:30:44.134615,-0.04051,-0.01920,-9.88051,0.04989,0.04212,0.04390
2025-11-23T06:30:44.144231,0.00863,-0.04476,-9.73110,-0.10035,-0.04460,0.05600
2025-11-23T06:30:44.153846,-0.01095,-0.11415,-9.86945,-0.09563,-0.03408,0.10854
2025-11-23T06:30:44.163462,0.05919,-0.02970,-9.69360,-0.05640,-0.05545,0.17422
2025-11-23T06:30:44.173077,-0.00468,-0.05596,-9.71458,-0.08981,0.03589,0.03817
2025-11-23T06:30:44.182692,0.01481,-0.03866,-9.84537,-0.10871,-0.07449,0.10665
2025-11-23T06:30:44.192308,0.01487,-0.02570,-9.81142,-0.01463,-0.06151,-0.00813
2025-11-23T06:30:44.201923,0.01404,-0.04164,-9.73477,-0.16612,-0.03473,0.07816
2025-11-23T06:30:44.211538,0.01520,-0.06152,-9.84413,0.03060,-0.11674,0.10840
2025-11-23T06:30:44.221154,-0.02048,-0.08046,-9.82454,-0.10707,-0.00090,-0.03502
2025-11-23T06:30:44.230769,0.03275,0.01047,-9.83682,-0.20987,-0.06358,0.04994
2025-11-23T06:30:44.240385,-0.00784,-0.04829,-9.78025,-0.15595,0.10628,0.00220
2025-11-23T06:30:44.25,0.04006,-0.07614,-9.78756,0.06680,-0.03992,0.11055
2025-11-23T06:30:44.259615,0.01808,-0.03561,-9.75184,-0.06349,-0.03502,0.10636
2025-11-23T06:30:44.269231,0.02267,-0.09245,-9.78685,0.03771,0.04247,0.07551
2025-11-23T06:30:44.278846,-0.01059,-0.02699,-9.71676,-0.04395,0.07068,0.04335
2025-11-23T06:30:44.288462,-0.02217,-0.03695,-9.84100,-0.00071,0.01931,0.01083
2025-11-23T06:30:44.298077,-0.00550,-0.10385,-9.83398,-0.10727,0.03372,0.12730
2025-11-23T06:30:44.307692,-0.00088,-0.03577,-9.81384,-0.06622,0.03735,0.06961
2025-11-23T06:30:44.317308,-0.00944,0.01452,-9.81849,-0.03824,-0.09364,0.02834
2025-11-23T06:30:44.326923,-0.00414,-0.02291,-9.78451,-0.14337,-0.18304,0.10765
2025-11-23T06:30:44.336538,0.05199,-0.04362,-9.82615,-0.00765,-0.04088,0.05846
2025-11-23T06:30:44.346154,0.02673,-0.00040,-9.81430,0.07805,-0.06195,0.07018
2025-11-23T06:30:44.355769,-0.05005,0.03984,-9.71702,0.03363,-0.14111,0.06892
2025-11-23T06:30:44.365385,0.00991,-0.03220,-9.83411,-0.05781,-0.10236,0.04007
2025-11-23T06:30:44.375,-0.01595,-0.05513,-9.80985,-0.04557,0.04139,0.06918
2025-11-23T06:30:44.384615,-0.03571,-0.05854,-9.74759,-0.10681,-0.05354,0.00885
2025-11-23T06:30:44.394231,-0.00617,-0.07317,-9.75771,0.03022,0.01103,0.10613
2025-11-23T06:30:44.403846,0.00346,-0.06162,-9.81404,-0.08840,0.00189,0.05132
2025-11-23T06:30:44.413462,0.02540,-0.04619,-9.85716,-0.10201,-0.10233,-0.03839
2025-11-23T06:30:44.423077,-0.02871,-0.09525,-9.84266,0.01435,-0.04611,0.10659
2025-11-23T06:30:44.432692,-0.00591,-0.02141,-9.75919,-0.03867,-0.09715,0.03372
2025-11-23T06:30:44.442308,-0.00064,-0.04025,-9.71503,0.05206,0.02239,0.10406
2025-11-23T06:30:44.451923,0.09011,0.01707,-9.65704,-0.02009,0.00363,0.10882
2025-11-23T06:30:44.461538,0.01629,-0.08343,-9.74237,-0.03731,0.03108,0.04506
2025-11-23T06:30:44.471154,0.02195,0.00262,-9.85341,-0.11472,-0.04688,0.04359
2025-11-23T06:30:44.480769,0.05952,-0.00352,-9.82036,-0.17359,-0.00071,0.15497
2025-11-23T06:30:44.490385,0.04144,-0.08156,-9.77802,-0.15176,0.11218,0.08415
2025-11-23T06:30:44.5,-0.04866,-0.02470,-9.78284,-0.06852,0.01655,0.15592
2025-11-23T06:30:44.509615,-0.04738,-0.05020,-9.85537,-0.10304,-0.00404,0.04685
2025-11-23T06:30:44.519231,0.00582,-0.07656,-9.76359,-0.06396,0.00003,0.04169
2025-11-23T06:30:44.528846,0.00241,-0.04451,-9.81854,-0.03718,-0.15184,0.18816
2025-11-23T06:30:44.538462,0.00936,-0.06301,-9.81486,-0.01907,-0.06383,0.03321
2025-11-23T06:30:44.548077,-0.02141,-0.09084,-9.70055,-0.14069,-0.10354,0.06405
2025-11-23T06:30:44.557692,-0.04459,-0.10603,-9.78454,-0.02376,-0.12781,-0.03584
2025-11-23T06:30:44.567308,0.02854,-0.04585,-9.75370,-0.05496,-0.03140,0.08467
2025-11-23T06:30:44.576923,0.01311,-0.08061,-9.82112,-0.01475,-0.04621,0.01641
2025-11-23T06:30:44.586538,0.02236,-0.04444,-9.82920,0.01519,0.14507,0.01251
2025-11-23T06:30:44.596154,-0.01749,-0.08148,-9.85460,-0.13041,0.02933,0.09638
2025-11-23T06:30:44.605769,0.02821,-0.06326,-9.73730,-0.09049,-0.05462,-0.00543
2025-11-23T06:30:44.615385,0.03605,-0.06271,-9.80721,-0.04527,-0.01656,0.09524
2025-11-23T06:30:44.625,0.01768,-0.10418,-9.80690,-0.17329,0.09385,0.12256
2025-11-23T06:30:44.634615,0.03891,0.03596,-9.74501,-0.15928,-0.04568,-0.06507
2025-11-23T06:30:44.644231,-0.03181,-0.04455,-9.77267,-0.11289,-0.05139,0.06634
2025-11-23T06:30:44.653846,0.00004,-0.14041,-9.81438,0.00740,-0.01387,-0.02198
2025-11-23T06:30:44.663462,0.01329,-0.08324,-9.75877,-0.10420,-0.05541,0.04649
2025-11-23T06:30:44.673077,-0.00438,-0.06712,-9.75682,-0.08110,-0.01897,-0.06090
2025-11-23T06:30:44.682692,0.00461,-0.09585,-9.72487,-0.06479,-0.04642,-0.01407
