Timestamp,Acceleration_X,Acceleration_Y,Acceleration_Z,Gyro_X,Gyro_Y,Gyro_Z
2025-11-25T07:15:45,-0.12805,-0.00622,-9.84302,-0.18028,-0.05398,-0.09843
2025-11-25T07:15:45.009615,-0.11101,0.10475,-9.92460,-0.12504,0.04872,-0.09120
2025-11-25T07:15:45.019231,-0.16154,0.10286,-9.96580,-0.10065,-0.01143,-0.02538
2025-11-25T07:15:45.028846,-0.10715,0.08608,-9.96264,-0.07988,0.02675,-0.05197
2025-11-25T07:15:45.038462,-0.12620,0.02102,-9.92691,-0.09304,0.02662,-0.07090
2025-11-25T07:15:45.048077,-0.10993,0.10055,-9.89425,-0.17343,0.01385,-0.00947
2025-11-25T07:15:45.057692,-0.15796,0.11290,-9.95483,-0.16592,-0.01523,-0.08175
2025-11-25T07:15:45.067308,-0.17991,0.07172,-9.99391,-0.03825,-0.02515,-0.04897
2025-11-25T07:15:45.076923,-0.14231,0.06883,-10.03796,-0.00120,0.08080,-0.00551
2025-11-25T07:15:45.086538,-0.17170,0.05820,-10.00239,-0.17400,-0.10742,-0.05913
2025-11-25T07:15:45.096154,-0.16383,0.11395,-10.09083,-0.05566,0.04878,-0.11103
2025-11-25T07:15:45.105769,-0.13704,0.12057,-9.97883,-0.10155,-0.12286,-0.05242
2025-11-25T07:15:45.115385,-0.13303,0.12192,-9.98002,-0.15206,-0.03567,-0.16938
2025-11-25T07:15:45.125,-0.13392,0.16391,-10.11496,-0.15737,-0.24546,-0.09931
2025-11-25T07:15:45.134615,-0.15297,0.17042,-10.13897,-0.22566,-0.04321,-0.07685
2025-11-25T07:15:45.144231,-0.12480,0.06834,-10.10655,-0.11538,-0.12491,-0.04414
2025-11-25T07:15:45.153846,-0.16656,0.18021,-10.08220,-0.12849,-0.01691,0.02814
2025-11-25T07:15:45.163462,-0.10148,0.13424,-10.03441,-0.13627,0.02324,-0.00176
2025-11-25T07:15:45.173077,-0.12699,0.11556,-10.13712,-0.11582,-0.10182,-0.09223
2025-11-25T07:15:45.182692,-0.12859,0.15493,-10.22001,0.05687,-0.13744,-0.02201
2025-11-25T07:15:45.192308,-0.17490,0.13911,-10.05548,-0.06935,-0.05794,-0.03388
2025-11-25T07:15:45.201923,-0.10729,0.21814,-10.10412,-0.08186,-0.06735,-0.02390
2025-11-25T07:15:45.211538,-0.09234,0.13195,-10.20823,-0.11023,-0.20301,-0.11275
2025-11-25T07:15:45.221154,-0.14599,0.19046,-10.08698,-0.06551,-0.05081,-0.13260
2025-11-25T07:15:45.230769,-0.13850,0.16429,-10.16915,-0.18746,-0.25419,-0.03961
2025-11-25T07:15:45.240385,-0.08042,0.18782,-10.11480,-0.00356,-0.17029,-0.07087
2025-11-25T07:15:45.25,-0.14466,0.21086,-10.18601,-0.07668,-0.13356,0.00442
2025-11-25T07:15:45.259615,-0.11791,0.14734,-10.24875,0.08127,-0.10730,-0.00526
2025-11-25T07:15:45.269231,-0.09552,0.15758,-10.07715,0.00209,-0.14434,-0.00027
2025-11-25T07:15:45.278846,-0.08805,0.20172,-10.18396,-0.19962,-0.16653,-0.03216
2025-11-25T07:15:45.288462,-0.09849,0.16614,-10.25317,-0.16070,-0.14282,-0.06536
2025-11-25T07:15:45.298077,-0.05089,0.17535,-10.17348,-0.14662,-0.05275,-0.09374
2025-11-25T07:15:45.307692,-0.06768,0.19397,-10.14067,-0.04433,-0.07282,0.02388
2025-11-25T07:15:45.317308,-0.11777,0.23114,-10.22296,-0.30602,-0.08237,-0.11519
2025-11-25T07:15:45.326923,-0.10024,0.23825,-10.30373,-0.10398,-0.26150,-0.06762
2025-11-25T07:15:45.336538,-0.09390,0.31570,-10.17171,0.00828,-0.10540,-0.06263
2025-11-25T07:15:45.346154,-0.08251,0.09778,-10.24735,-0.07667,-0.25797,-0.10216
2025-11-25T07:15:45.355769,-0.07090,0.13152,-10.13464,-0.08687,0.04764,-0.04943
2025-11-25T07:15:45.365385,-0.05788,0.29407,-10.20736,0.00435,-0.11926,-0.12879
2025-11-25T07:15:45.375,-0.05868,0.18873,-10.16850,-0.10096,-0.02183,-0.06195
2025-11-25T07:15:45.384615,-0.06453,0.20121,-10.20961,0.04449,-0.09253,-0.07335
2025-11-25T07:15:45.394231,-0.09838,0.27488,-10.22552,-0.01292,-0.27541,-0.09012
2025-11-25T07:15:45.403846,-0.05249,0.14719,-10.18263,0.08626,-0.30305,-0.08412
2025-11-25T07:15:45.413462,-0.07078,0.22963,-10.34007,-0.08558,-0.26582,-0.05706
2025-11-25T07:15:45.423077,-0.05372,0.21030,-10.24124,0.10061,-0.24222,-0.19410
2025-11-25T07:15:45.432692,-0.10607,0.21864,-10.29777,-0.04273,-0.15024,0.08679
2025-11-25T07:15:45.442308,-0.10952,0.18227,-10.31670,-0.05702,-0.32610,-0.02406
2025-11-25T07:15:45.451923,-0.00506,0.23479,-10.23190,-0.02202,-0.13963,0.01594
2025-11-25T07:15:45.461538,-0.07321,0.28884,-10.23277,0.04851,-0.25102,-0.02372
2025-11-25T07:15:45.471154,-0.04968,0.26237,-10.24784,-0.07138,-0.20461,0.00932
2025-11-25T07:15:45.480769,-0.02114,0.24712,-10.23403,-0.02607,-0.31534,-0.01021
2025-11-25T07:15:45.490385,-0.04484,0.28353,-10.26963,0.14672,-0.13882,-0.01586
2025-11-25T07:15:45.5,-0.00918,0.27307,-10.25306,-0.02418,-0.15969,-0.06378
2025-11-25T07:15:45.509615,-0.03912,0.23380,-10.24188,0.12588,-0.06180,0.02685
2025-11-25T07:15:45.519231,0.03353,0.26014,-10.22263,-0.06479,-0.24348,-0.01905
2025-11-25T07:15:45.528846,-0.00227,0.24977,-10.19035,-0.10243,-0.10223,0.04257
2025-11-25T07:15:45.538462,0.01145,0.23749,-10.22734,0.03286,-0.25709,0.06660
2025-11-25T07:15:45.548077,0.04817,0.31525,-10.26585,0.03380,-0.18223,0.02291
2025-11-25T07:15:45.557692,0.00353,0.20409,-10.26977,-0.00011,-0.20837,-0.03884
2025-11-25T07:15:45.567308,0.00343,0.21005,-10.17224,0.00656,-0.09908,-0.00604
2025-11-25T07:15:45.576923,0.00152,0.33145,-10.28704,0.07268,-0.15330,0.00844
2025-11-25T07:15:45.586538,-0.00005,0.26130,-10.31927,0.04034,-0.31602,0.06505
2025-11-25T07:15:45.596154,0.01316,0.30130,-10.17115,-0.01916,-0.23639,-0.03278
2025-11-25T07:15:45.605769,0.03591,0.21530,-10.24572,0.03764,-0.27815,0.06849
2025-11-25T07:15:45.615385,0.00471,0.30555,-10.33235,-0.02667,-0.15879,-0.02612
2025-11-25T07:15:45.625,0.02090,0.28092,-10.24335,0.10888,-0.13256,0.00555
2025-11-25T07:15:45.634615,-0.00471,0.29575,-10.21562,0.11808,-0.30529,0.09396
2025-11-25T07:15:45.644231,-0.01888,0.23660,-10.27744,0.14412,-0.21822,-0.01200
2025-11-25T07:15:45.653846,0.00265,0.22462,-10.16685,0.02741,-0.19937,-0.00696
2025-11-25T07:15:45.663462,0.04763,0.19565,-10.21882,-0.08249,-0.26546,0.06948
2025-11-25T07:15:45.673077,0.07840,0.27489,-10.19629,0.13576,-0.18467,0.01315
2025-11-25T07:15:45.682692,0.05517,0.30927,-10.18919,0.25903,-0.27991,0.08600
2025-11-25T07:15:45.692308,0.04317,0.30404,-10.13657,0.13830,-0.22966,0.04131
2025-11-25T07:15:45.701923,0.01228,0.20007,-10.26239,0.17205,-0.16790,-0.03146
2025-11-25T07:15:45.711538,0.05757,0.19435,-10.21965,0.12343,-0.10295,0.00869
2025-11-25T07:15:45.721154,0.05797,0.17735,-10.25485,0.08080,-0.29255,-0.01615
2025-11-25T07:15:45.730769,0.08233,0.20423,-10.15668,0.02645,-0.13299,0.02870
2025-11-25T07:15:45.740385,0.09569,0.25107,-10.09333,0.08741,-0.20872,0.01192
2025-11-25T07:15:45.75,0.08049,0.25025,-10.08822,-0.01169,-0.26133,0.11086
2025-11-25T07:15:45.759615,0.08261,0.21980,-10.10111,0.13390,-0.23902,0.11758
2025-11-25T07:15:45.769231,0.08241,0.18671,-10.14100,0.10812,-0.10774,0.12546
2025-11-25T07:15:45.778846,0.10109,0.15014,-10.17662,0.14706,-0.18128,0.10516
2025-11-25T07:15:45.788462,0.07300,0.16478,-10.10782,0.10884,-0.17878,0.14876
2025-11-25T07:15:45.798077,0.10915,0.16498,-10.14722,0.10782,-0.10004,0.06703
2025-11-25T07:15:45.807692,0.07942,0.27450,-10.03011,0.24271,-0.04886,0.04973
2025-11-25T07:15:45.817308,0.14277,0.15634,-10.14998,0.23387,-0.21277,0.03718
2025-11-25T07:15:45.826923,0.11723,0.19209,-10.09297,0.23895,-0.21414,0.06467
2025-11-25T07:15:45.836538,0.11881,0.12727,-10.09523,-0.01570,-0.18523,0.10979
2025-11-25T07:15:45.846154,0.12131,0.16162,-10.08889,0.21473,-0.02862,0.06162
2025-11-25T07:15:45.855769,0.12401,0.19600,-10.10454,0.24321,-0.14926,0.14520
2025-11-25T07:15:45.865385,0.12049,0.20241,-10.02053,0.19581,-0.22063,0.09235
2025-11-25T07:15:45.875,0.09123,0.15668,-10.00661,0.03202,-0.08966,0.09122
2025-11-25T07:15:45.884615,0.11498,0.16720,-9.96265,0.33607,-0.11923,0.21951
2025-11-25T07:15:45.894231,0.15149,0.18708,-9.97787,0.28870,-0.15671,0.08843
2025-11-25T07:15:45.903846,0.08605,0.15130,-10.00508,0.22353,-0.05889,0.15493
2025-11-25T07:15:45.913462,0.07117,0.17342,-10.03924,0.18616,-0.02413,0.07043
2025-11-25T07:15:45.923077,0.14271,0.12614,-9.95830,0.33789,-0.06144,0.08291
2025-11-25T07:15:45.932692,0.14554,0.17351,-10.01280,0.27002,-0.20588,0.10575
2025-11-25T07:15:45.942308,0.11131,0.18200,-9.87351,0.16583,-0.04498,0.11521
2025-11-25T07:15:45.951923,0.12268,0.10401,-10.03296,0.29988,-0.06524,0.14293
2025-11-25T07:15:45.961538,0.15239,0.11592,-9.99541,0.11083,-0.14496,0.03747
2025-11-25T07:15:45.971154,0.16093,0.23243,-9.98495,0.27990,-0.12522,0.11315
2025-11-25T07:15:45.980769,0.15938,0.08673,-9.85352,0.13103,-0.02605,0.07520
2025-11-25T07:15:45.990385,0.13633,0.22159,-9.91053,0.18608,-0.04845,0.17181
2025-11-25T07:15:46,0.16851,0.07960,-9.90797,0.22312,0.00787,0.07896
2025-11-25T07:15:46.009615,0.10583,0.12204,-9.87030,0.20740,-0.06377,0.11197
2025-11-25T07:15:46.019231,0.15456,0.07665,-9.86010,0.16912,0.03950,0.29260
2025-11-25T07:15:46.028846,0.12238,0.09999,-10.00315,0.19022,0.00252,0.10324
2025-11-25T07:15:46.038462,0.16813,0.11352,-9.86112,0.27934,0.01815,0.07983
2025-11-25T07:15:46.048077,0.19281,0.04789,-9.83905,0.26554,-0.05775,0.19603
2025-11-25T07:15:46.057692,0.16481,0.08957,-9.81726,0.31546,-0.12015,0.17031
2025-11-25T07:15:46.067308,0.16743,0.05918,-9.79324,0.27235,0.02394,0.13850
2025-11-25T07:15:46.076923,0.16846,0.06230,-9.84005,0.25047,0.02790,0.15061
2025-11-25T07:15:46.086538,0.14511,0.11710,-9.80955,0.31965,0.11419,0.19576
2025-11-25T07:15:46.096154,0.19151,0.09894,-9.80486,0.19972,0.06454,0.16492
2025-11-25T07:15:46.105769,0.14443,0.13053,-9.71355,0.24717,0.02408,0.15657
2025-11-25T07:15:46.115385,0.19694,0.03821,-9.72873,0.17315,0.16189,0.18743
2025-11-25T07:15:46.125,0.13437,0.13263,-9.71589,0.21211,0.10446,0.21575
2025-11-25T07:15:46.134615,0.13167,-0.00439,-9.76019,0.35211,-0.03617,0.23685
2025-11-25T07:15:46.144231,0.19521,0.03326,-9.71837,0.37976,0.08048,0.17431
2025-11-25T07:15:46.153846,0.14343,0.04757,-9.71624,0.28564,-0.06874,0.27276
2025-11-25T07:15:46.163462,0.16246,0.05928,-9.72076,0.23143,0.01500,0.09818
2025-11-25T07:15:46.173077,0.16203,0.00358,-9.64708,0.22780,0.17019,0.16915
2025-11-25T07:15:46.182692,0.14245,0.04114,-9.58079,0.36060,0.02095,0.14830
2025-11-25T07:15:46.192308,0.12020,-0.04736,-9.62820,0.23845,0.08828,0.23207
2025-11-25T07:15:46.201923,0.19734,-0.00725,-9.64081,0.31433,0.04503,0.11789
2025-11-25T07:15:46.211538,0.19559,0.03013,-9.66825,0.19841,-0.06624,0.17865
2025-11-25T07:15:46.221154,0.09835,-0.00749,-9.58271,0.24350,0.02911,0.08843
2025-11-25T07:15:46.230769,0.13031,0.02266,-9.55661,0.15013,0.14524,0.27940
2025-11-25T07:15:46.240385,0.11113,-0.02236,-9.47574,0.34967,-0.02268,0.29771
2025-11-25T07:15:46.25,0.13020,-0.03764,-9.55834,0.24530,0.02218,0.18507
2025-11-25T07:15:46.259615,0.14197,-0.06705,-9.57203,0.31712,0.14950,0.14737
2025-11-25T07:15:46.269231,0.14014,-0.07864,-9.56315,0.25465,0.05414,0.07811
2025-11-25T07:15:46.278846,0.17843,0.04382,-9.45482,0.23420,0.17760,0.17404
2025-11-25T07:15:46.288462,0.16181,-0.05224,-9.50043,0.17398,0.03035,0.17635
2025-11-25T07:15:46.298077,0.10738,0.01679,-9.54608,0.21262,0.20730,0.19645
2025-11-25T07:15:46.307692,0.12597,-0.01460,-9.45015,0.20479,0.03628,0.14037
2025-11-25T07:15:46.317308,0.13425,-0.08175,-9.43304,0.20160,0.23044,0.15246
2025-11-25T07:15:46.326923,0.09632,-0.12819,-9.54734,0.24559,0.09260,0.17790
2025-11-25T07:15:46.336538,0.11303,0.00326,-9.42453,0.30175,0.18483,0.20034
2025-11-25T07:15:46.346154,0.15059,-0.05769,-9.52179,0.24113,0.09139,0.19153
2025-11-25T07:15:46.355769,0.13976,-0.10848,-9.54137,0.20490,0.26278,0.19976
2025-11-25T07:15:46.365385,0.13267,-0.12867,-9.53128,0.30444,0.21483,0.23501
2025-11-25T07:15:46.375,0.10188,-0.13685,-9.35636,0.22812,0.21956,0.18030
2025-11-25T07:15:46.384615,0.09453,-0.08226,-9.44774,0.28351,0.26808,0.14740
2025-11-25T07:15:46.394231,0.10352,-0.04226,-9.42092,0.27056,0.26403,0.16524
2025-11-25T07:15:46.403846,0.16956,-0.05679,-9.40481,0.25214,0.30430,0.08859
2025-11-25T07:15:46.413462,0.13229,-0.08473,-9.49235,0.14971,0.24378,0.17592
2025-11-25T07:15:46.423077,0.11289,-0.07367,-9.38424,0.19971,0.16946,0.07753
2025-11-25T07:15:46.432692,0.13371,-0.04426,-9.45051,0.12455,0.24331,0.17640
2025-11-25T07:15:46.442308,0.07561,-0.04360,-9.29986,0.18543,0.14877,0.16920
2025-11-25T07:15:46.451923,0.06701,-0.14816,-9.45691,0.20511,0.07316,0.24618
2025-11-25T07:15:46.461538,0.15422,-0.13818,-9.39152,0.23834,0.14334,0.12305
2025-11-25T07:15:46.471154,0.08914,-0.13302,-9.37335,0.28551,0.17628,0.23060
2025-11-25T07:15:46.480769,0.10519,-0.11611,-9.38297,0.14395,0.28436,0.14645
2025-11-25T07:15:46.490385,0.06166,-0.13883,-9.34212,0.15641,0.20555,0.15848
2025-11-25T07:15:46.5,0.04548,-0.12170,-9.37416,0.17119,0.27576,0.12405
2025-11-25T07:15:46.509615,0.07848,-0.14563,-9.29201,0.17653,0.15828,0.16518
2025-11-25T07:15:46.519231,0.02980,-0.16365,-9.32036,0.05819,0.25800,0.14692
2025-11-25T07:15:46.528846,0.05391,-0.18812,-9.45914,0.18978,0.25478,0.17365
2025-11-25T07:15:46.538462,0.04413,-0.16481,-9.44067,0.15219,0.15307,0.23247
2025-11-25T07:15:46.548077,0.09413,-0.14953,-9.36054,0.01999,0.28278,0.10920
2025-11-25T07:15:46.557692,0.02827,-0.13457,-9.39648,0.07013,0.22440,0.11007
2025-11-25T07:15:46.567308,0.09022,-0.14685,-9.35233,0.15529,0.22920,0.09651
2025-11-25T07:15:46.576923,0.02496,-0.11489,-9.31417,0.19311,0.25307,0.13933
2025-11-25T07:15:46.586538,0.04532,-0.10154,-9.41155,0.09046,0.32211,0.07982
2025-11-25T07:15:46.596154,0.07267,-0.16446,-9.29485,0.25980,0.19256,0.10782
2025-11-25T07:15:46.605769,0.04806,-0.14869,-9.30531,-0.01301,0.43829,0.01160
2025-11-25T07:15:46.615385,0.03087,-0.15642,-9.44786,0.07219,0.26971,0.11934
2025-11-25T07:15:46.625,0.05443,-0.13933,-9.36717,0.00074,0.41442,0.05136
2025-11-25T07:15:46.634615,0.01392,-0.11034,-9.42310,0.01466,0.24238,0.16562
2025-11-25T07:15:46.644231,-0.00670,-0.14313,-9.33593,0.07978,0.35575,0.11255
2025-11-25T07:15:46.653846,0.00693,-0.15168,-9.37475,0.08937,0.27537,-0.00680
2025-11-25T07:15:46.663462,-0.01314,-0.09959,-9.38078,-0.02921,0.08604,0.07669
2025-11-25T07:15:46.673077,0.00669,-0.13226,-9.44783,0.01981,0.35836,0.17256
2025-11-25T07:15:46.682692,0.00354,-0.18305,-9.44963,0.05849,0.23204,0.06581
2025-11-25T07:15:46.692308,-0.03606,-0.13603,-9.47041,0.03264,0.19802,0.15318
2025-11-25T07:15:46.701923,-0.00379,-0.12826,-9.42451,-0.00189,0.36038,0.08810
2025-11-25T07:15:46.711538,-0.00293,-0.12672,-9.39617,0.15090,0.28151,0.15322
2025-11-25T07:15:46.721154,-0.03879,-0.18642,-9.41076,-0.06595,0.15280,0.12132
2025-11-25T07:15:46.730769,-0.04007,-0.02240,-9.47123,0.00775,0.22993,0.05206
2025-11-25T07:15:46.740385,-0.02574,-0.18159,-9.42455,0.06068,0.17264,0.06910
2025-11-25T07:15:46.75,-0.06876,-0.16031,-9.34634,0.05413,0.32220,0.04673
2025-11-25T07:15:46.759615,-0.00083,-0.08355,-9.44375,-0.11470,0.27875,0.08366
2025-11-25T07:15:46.769231,-0.02131,-0.11517,-9.40885,0.01324,0.24676,0.00949
2025-11-25T07:15:46.778846,0.00019,-0.13419,-9.40315,0.12403,0.30881,0.12722
2025-11-25T07:15:46.788462,-0.07650,-0.12293,-9.33025,-0.05338,0.16619,0.03982
2025-11-25T07:15:46.798077,-0.03273,-0.13878,-9.48361,-0.00249,0.21981,0.07700
2025-11-25T07:15:46.807692,-0.09084,-0.12176,-9.42092,-0.11313,0.33847,0.00546
2025-11-25T07:15:46.817308,-0.03364,-0.09897,-9.48181,0.02399,0.23456,0.09743
2025-11-25T07:15:46.826923,-0.06912,-0.19695,-9.50327,-0.21158,0.16862,0.00838
2025-11-25T07:15:46.836538,-0.05309,-0.25881,-9.46381,-0.07245,0.32496,-0.02900
2025-11-25T07:15:46.846154,-0.12506,-0.08573,-9.44231,-0.10278,0.19911,0.05719
2025-11-25T07:15:46.855769,-0.03013,-0.08533,-9.50145,-0.04297,0.19908,-0.04267
2025-11-25T07:15:46.865385,-0.14234,-0.25180,-9.47086,0.08382,0.23016,0.05211
2025-11-25T07:15:46.875,-0.07255,-0.13913,-9.57682,-0.08893,0.17249,-0.02054
2025-11-25T07:15:46.884615,-0.10190,-0.03961,-9.53711,-0.09727,0.29035,0.06547
2025-11-25T07:15:46.894231,-0.12919,-0.17576,-9.63724,-0.14030,0.25156,0.01651
2025-11-25T07:15:46.903846,-0.10236,-0.06730,-9.49770,-0.07471,0.27092,-0.09148
2025-11-25T07:15:46.913462,-0.05881,-0.09331,-9.55817,-0.20670,0.14134,0.02074
2025-11-25T07:15:46.923077,-0.11371,-0.05415,-9.47088,-0.10125,0.12957,-0.05861
2025-11-25T07:15:46.932692,-0.09488,-0.08343,-9.55666,-0.13123,0.18112,-0.03039
2025-11-25T07:15:46.942308,-0.10952,-0.10365,-9.58358,-0.03193,0.11261,-0.02690
2025-11-25T07:15:46.951923,-0.11260,-0.09937,-9.58526,-0.03909,0.11479,0.02953
2025-11-25T07:15:46.961538,-0.15693,-0.12130,-9.63342,-0.25101,0.22207,-0.05848
2025-11-25T07:15:46.971154,-0.05089,-0.10807,-9.60728,-0.04874,0.15857,-0.03052
2025-11-25T07:15:46.980769,-0.10038,-0.06573,-9.70009,-0.09970,0.25996,-0.10103
2025-11-25T07:15:46.990385,-0.13374,-0.09114,-9.72157,-0.09692,0.13222,-0.06184
2025-11-25T07:15:47,-0.15280,-0.04832,-9.64880,-0.17068,0.01022,-0.09239
2025-11-25T07:15:47.009615,-0.16654,0.03875,-9.77947,-0.08479,0.14847,-0.05494
2025-11-25T07:15:47.019231,-0.13599,-0.03143,-9.68738,-0.14464,0.05196,-0.13624
2025-11-25T07:15:47.028846,-0.15783,-0.03888,-9.69841,-0.02168,0.01827,-0.02406
2025-11-25T07:15:47.038462,-0.14266,-0.00377,-9.72580,-0.07634,0.05315,-0.02848
2025-11-25T07:15:47.048077,-0.13331,-0.01007,-9.71647,-0.05898,0.27567,-0.07383
2025-11-25T07:15:47.057692,-0.10793,-0.05347,-9.71731,-0.14697,0.02525,-0.08930
2025-11-25T07:15:47.067308,-0.15119,-0.00533,-9.72380,-0.14386,0.14374,-0.05458
2025-11-25T07:15:47.076923,-0.14725,-0.04709,-9.79588,-0.28642,-0.00402,-0.03835
2025-11-25T07:15:47.086538,-0.17307,0.00092,-9.72205,-0.12608,0.12754,-0.06224
2025-11-25T07:15:47.096154,-0.15185,0.05702,-9.81892,-0.02987,0.20720,-0.09757
2025-11-25T07:15:47.105769,-0.11157,-0.01023,-9.83895,-0.07754,0.02759,-0.05117
2025-11-25T07:15:47.115385,-0.18436,0.07384,-9.89539,-0.11617,0.07986,-0.10110
2025-11-25T07:15:47.125,-0.11173,0.03962,-9.92740,-0.21541,0.16242,-0.02374
2025-11-25T07:15:47.134615,-0.07686,0.04251,-9.74512,-0.11846,0.01429,-0.05274
2025-11-25T07:15:47.144231,-0.10945,0.06772,-9.89357,-0.14453,-0.02067,-0.10997
2025-11-25T07:15:47.153846,-0.14824,0.03843,-9.97111,-0.19824,0.10823,-0.13030
2025-11-25T07:15:47.163462,-0.17918,0.04559,-9.89881,-0.12152,0.09082,-0.08875
2025-11-25T07:15:47.173077,-0.08811,0.05194,-9.88347,-0.03832,-0.01282,-0.08160
2025-11-25T07:15:47.182692,-0.15726,0.07936,-9.92371,-0.18550,-0.04914,-0.06279
2025-11-25T07:15:47.192308,-0.16547,0.12552,-9.91619,-0.10231,0.13580,-0.02032
2025-11-25T07:15:47.201923,-0.10462,0.03590,-9.96411,-0.23700,-0.00245,-0.14166
2025-11-25T07:15:47.211538,-0.19245,0.04093,-9.97795,-0.10923,0.00989,-0.09294
2025-11-25T07:15:47.221154,-0.14359,0.03026,-10.08726,-0.11222,-0.04426,-0.09074
2025-11-25T07:15:47.230769,-0.11469,0.02705,-10.05734,-0.14638,0.10250,-0.07864
2025-11-25T07:15:47.240385,-0.15966,0.09180,-9.97080,-0.22343,0.10519,-0.08475
2025-11-25T07:15:47.25,-0.11384,0.11355,-10.10622,-0.22709,-0.09117,-0.17896
2025-11-25T07:15:47.259615,-0.14241,0.11390,-9.98599,-0.17337,0.00600,-0.13802
2025-11-25T07:15:47.269231,-0.10288,0.18017,-10.04631,-0.11741,-0.16696,-0.15607
2025-11-25T07:15:47.278846,-0.16503,0.07697,-10.07116,-0.08755,-0.04070,-0.16758
2025-11-25T07:15:47.288462,-0.15269,0.07599,-9.99400,-0.26665,-0.11875,-0.10890
2025-11-25T07:15:47.298077,-0.12080,0.12311,-10.06451,-0.14598,-0.00588,-0.18968
2025-11-25T07:15:47.307692,-0.12412,0.15341,-10.03027,-0.15084,0.00177,-0.17755
2025-11-25T07:15:47.317308,-0.15258,0.12777,-10.10253,-0.22495,-0.18385,-0.18983
2025-11-25T07:15:47.326923,-0.14340,0.20543,-10.12020,-0.20365,-0.17050,-0.14358
2025-11-25T07:15:47.336538,-0.09422,0.18280,-10.10395,-0.07458,-0.14608,-0.26902
2025-11-25T07:15:47.346154,-0.13064,0.18052,-10.15021,-0.25558,-0.03310,-0.19146
2025-11-25T07:15:47.355769,-0.14629,0.15204,-10.12459,-0.08391,-0.13226,-0.10700
2025-11-25T07:15:47.365385,-0.13295,0.19031,-10.12296,-0.02939,-0.03322,-0.13396
2025-11-25T07:15:47.375,-0.14164,0.14935,-10.17427,-0.06025,-0.03944,-0.04861
2025-11-25T07:15:47.384615,-0.11492,0.20283,-10.19292,-0.12414,-0.16380,-0.14320
2025-11-25T07:15:47.394231,-0.08775,0.17684,-10.18435,-0.10710,-0.22545,-0.08817
2025-11-25T07:15:47.403846,-0.08669,0.26870,-10.20664,-0.03335,-0.23387,-0.07068
2025-11-25T07:15:47.413462,-0.06598,0.28404,-10.12722,-0.15903,-0.21446,-0.06620
2025-11-25T07:15:47.423077,-0.13074,0.19121,-10.20601,-0.20233,-0.10483,-0.09564
2025-11-25T07:15:47.432692,-0.03659,0.25684,-10.16197,0.00591,-0.18578,-0.01023
2025-11-25T07:15:47.442308,-0.12143,0.17784,-10.16537,-0.02443,-0.06499,-0.03454
2025-11-25T07:15:47.451923,-0.03457,0.24209,-10.13557,-0.00984,-0.06797,-0.06108
2025-11-25T07:15:47.461538,-0.06901,0.28164,-10.13351,-0.00983,-0.20433,-0.13706
2025-11-25T07:15:47.471154,-0.09115,0.14196,-10.12178,-0.23543,-0.08077,-0.05085
2025-11-25T07:15:47.480769,-0.03789,0.20300,-10.30518,-0.14190,-0.12014,-0.10927
2025-11-25T07:15:47.490385,-0.07095,0.17277,-10.22115,-0.18445,-0.09427,-0.10405
2025-11-25T07:15:47.5,-0.07913,0.23349,-10.24634,0.04336,-0.27568,-0.05077
2025-11-25T07:15:47.509615,-0.04887,0.21955,-10.24408,-0.11559,-0.21378,-0.10610
2025-11-25T07:15:47.519231,-0.04475,0.17285,-10.25548,0.01025,-0.19273,-0.07365
2025-11-25T07:15:47.528846,-0.06299,0.19117,-10.26928,-0.01493,-0.13963,-0.10869
2025-11-25T07:15:47.538462,0.01405,0.24767,-10.28981,0.00558,-0.31778,-0.14906
2025-11-25T07:15:47.548077,-0.02604,0.24490,-10.24367,0.06964,-0.32647,-0.05309
2025-11-25T07:15:47.557692,-0.05424,0.27483,-10.16930,0.01683,-0.18217,-0.01792
2025-11-25T07:15:47.567308,-0.03642,0.30814,-10.28806,-0.03396,-0.23526,-0.07899
2025-11-25T07:15:47.576923,-0.03785,0.28957,-10.16753,0.01587,-0.23036,-0.02427
2025-11-25T07:15:47.586538,0.01097,0.27297,-10.17696,-0.01598,-0.26481,-0.15538
2025-11-25T07:15:47.596154,-0.04344,0.31608,-10.22252,-0.03320,-0.21175,-0.13210
2025-11-25T07:15:47.605769,-0.02177,0.26884,-10.28673,0.07907,-0.12357,-0.10868
2025-11-25T07:15:47.615385,-0.05945,0.16410,-10.25254,0.02207,-0.25332,-0.06902
2025-11-25T07:15:47.625,-0.07360,0.25963,-10.29518,-0.02555,-0.21546,-0.13408
2025-11-25T07:15:47.634615,-0.00183,0.22755,-10.22854,-0.15023,-0.19380,0.02416
2025-11-25T07:15:47.644231,-0.05409,0.30673,-10.27854,0.13565,-0.11210,-0.00554
2025-11-25T07:15:47.653846,-0.00554,0.23428,-10.28119,-0.01457,-0.22001,-0.05311
2025-11-25T07:15:47.663462,0.02972,0.20802,-10.18529,0.05389,-0.17308,-0.08830
2025-11-25T07:15:47.673077,-0.02645,0.27014,-10.25094,0.06221,-0.32296,-0.09446
2025-11-25T07:15:47.682692,0.08521,0.27948,-10.25297,0.04093,-0.19057,-0.00216
2025-11-25T07:15:47.692308,0.05122,0.19904,-10.27079,0.02919,-0.20767,0.04355
2025-11-25T07:15:47.701923,0.07052,0.17187,-10.26718,0.11156,-0.21079,-0.04406
2025-11-25T07:15:47.711538,0.01691,0.24774,-10.23190,0.14176,-0.18899,0.02515
2025-11-25T07:15:47.721154,0.03778,0.31298,-10.19973,0.07324,-0.20045,0.10421
2025-11-25T07:15:47.730769,0.04625,0.29184,-10.20310,0.10054,-0.25925,-0.03388
2025-11-25T07:15:47.740385,0.01186,0.19742,-10.22803,0.12591,-0.13827,-0.03338
2025-11-25T07:15:47.75,0.04167,0.15858,-10.18061,0.06211,-0.30910,-0.02328
2025-11-25T07:15:47.759615,0.09805,0.29547,-10.25018,0.09986,-0.29158,0.03358
2025-11-25T07:15:47.769231,0.06539,0.25018,-10.29432,0.16766,-0.17507,0.01850
2025-11-25T07:15:47.778846,-0.00543,0.24972,-10.23184,0.09590,-0.20186,0.00808
2025-11-25T07:15:47.788462,0.03663,0.28947,-10.17518,0.09496,-0.20320,0.05238
2025-11-25T07:15:47.798077,0.10620,0.21907,-10.17630,0.07126,-0.27749,-0.02323
2025-11-25T07:15:47.807692,0.06918,0.27518,-10.10052,0.13289,-0.37143,-0.00636
2025-11-25T07:15:47.817308,0.11569,0.24322,-10.12963,0.17730,-0.36077,-0.04485
2025-11-25T07:15:47.826923,0.05223,0.24094,-10.12246,0.13500,-0.23278,-0.02647
2025-11-25T07:15:47.836538,0.12204,0.26718,-10.11656,0.15288,-0.28103,0.02950
2025-11-25T07:15:47.846154,0.07641,0.24458,-10.09703,0.29646,-0.14571,0.02800
2025-11-25T07:15:47.855769,0.03270,0.25406,-10.11364,0.21747,-0.24551,0.00014
2025-11-25T07:15:47.865385,0.08618,0.12973,-10.14305,0.13411,-0.22588,0.05033
2025-11-25T07:15:47.875,0.05450,0.18770,-10.08631,0.23500,-0.05998,0.03239
2025-11-25T07:15:47.884615,0.10663,0.21516,-10.09921,0.04031,-0.11537,0.01120
2025-11-25T07:15:47.894231,0.11382,0.23227,-10.07361,0.09851,-0.04960,0.10951
2025-11-25T07:15:47.903846,0.12578,0.10867,-10.05297,0.21699,-0.23079,0.07524
2025-11-25T07:15:47.913462,0.04722,0.24438,-10.05978,0.26927,-0.15687,0.11910
2025-11-25T07:15:47.923077,0.09478,0.20468,-9.94575,0.17329,-0.11937,0.08968
2025-11-25T07:15:47.932692,0.16805,0.17813,-10.09075,0.16716,-0.15204,0.02357
2025-11-25T07:15:47.942308,0.06994,0.16669,-10.00333,0.26147,-0.17945,0.04570
2025-11-25T07:15:47.951923,0.17264,0.18187,-10.02980,0.09310,-0.17702,0.02908
2025-11-25T07:15:47.961538,0.13524,0.07029,-9.99072,0.33774,-0.15636,0.10542
2025-11-25T07:15:47.971154,0.14954,0.17230,-9.93718,0.23502,-0.10641,0.07157
2025-11-25T07:15:47.980769,0.14452,0.12359,-9.96954,0.19133,-0.09161,0.09316
2025-11-25T07:15:47.990385,0.15790,0.15798,-9.96512,0.27016,-0.04282,0.09061
2025-11-25T07:15:48,0.18589,0.13566,-9.99378,0.21372,-0.02875,0.18206
2025-11-25T07:15:48.009615,0.10720,0.18727,-9.87407,0.24061,-0.02022,0.09540
2025-11-25T07:15:48.019231,0.12780,0.15639,-9.84237,0.23138,-0.07279,0.13190
2025-11-25T07:15:48.028846,0.10659,0.10079,-9.88846,0.26330,-0.23522,0.08357
2025-11-25T07:15:48.038462,0.16993,0.08439,-9.83145,0.29326,-0.15358,0.17093
2025-11-25T07:15:48.048077,0.10352,0.16773,-9.86394,0.31368,-0.08227,0.09386
2025-11-25T07:15:48.057692,0.08726,0.06719,-9.88314,0.30069,-0.03379,0.08665
2025-11-25T07:15:48.067308,0.14947,0.15078,-9.92342,0.20861,-0.01061,0.07566
2025-11-25T07:15:48.076923,0.15895,0.11960,-9.85320,0.39329,0.04649,0.26268
2025-11-25T07:15:48.086538,0.15424,0.08220,-9.90724,0.24843,0.05348,0.04432
2025-11-25T07:15:48.096154,0.20930,0.11381,-9.81701,0.23829,-0.01991,0.21386
2025-11-25T07:15:48.105769,0.17831,0.09351,-9.79029,0.26994,-0.20521,0.11845
2025-11-25T07:15:48.115385,0.15942,0.04955,-9.82874,0.31693,-0.14049,0.07127
2025-11-25T07:15:48.125,0.18419,0.06278,-9.78450,0.19680,0.10744,0.15600
2025-11-25T07:15:48.134615,0.16811,-0.02560,-9.77540,0.20906,-0.06884,0.14703
2025-11-25T07:15:48.144231,0.16677,-0.01797,-9.77952,0.33296,0.00132,0.09554
2025-11-25T07:15:48.153846,0.16099,0.11015,-9.70889,0.22654,0.02900,0.09678
2025-11-25T07:15:48.163462,0.14075,0.06528,-9.70592,0.27657,-0.00316,0.16730
2025-11-25T07:15:48.173077,0.13600,0.06822,-9.74192,0.32925,-0.07368,0.05413
2025-11-25T07:15:48.182692,0.20124,0.04861,-9.69499,0.26935,0.07948,0.13683
2025-11-25T07:15:48.192308,0.15704,0.04837,-9.65287,0.22571,-0.00629,0.16772
2025-11-25T07:15:48.201923,0.14100,0.00954,-9.63231,0.21167,0.00535,0.18231
2025-11-25T07:15:48.211538,0.15520,0.02274,-9.53298,0.29542,0.01472,0.13563
2025-11-25T07:15:48.221154,0.11888,-0.00111,-9.65511,0.27856,0.09256,0.12414
2025-11-25T07:15:48.230769,0.14020,0.03262,-9.59235,0.28603,0.10666,0.22533
2025-11-25T07:15:48.240385,0.18974,-0.07906,-9.66162,0.16159,0.11648,0.14084
2025-11-25T07:15:48.25,0.17190,-0.03179,-9.62820,0.23559,0.08021,0.13621
2025-11-25T07:15:48.259615,0.14631,0.01512,-9.44884,0.26327,0.14579,0.16242
2025-11-25T07:15:48.269231,0.18576,-0.04025,-9.60760,0.34916,-0.02354,0.14693
2025-11-25T07:15:48.278846,0.14154,-0.09686,-9.55832,0.21698,0.04014,0.21444
2025-11-25T07:15:48.288462,0.10964,-0.01035,-9.52206,0.10258,0.09507,0.18043
2025-11-25T07:15:48.298077,0.15678,-0.07753,-9.53377,0.36825,0.17709,0.19813
2025-11-25T07:15:48.307692,0.12631,-0.06223,-9.54181,0.21450,0.13394,0.13443
2025-11-25T07:15:48.317308,0.15285,-0.02862,-9.56123,0.22909,0.19060,0.22002
2025-11-25T07:15:48.326923,0.14193,-0.03862,-9.50022,0.17596,0.06407,0.21863
2025-11-25T07:15:48.336538,0.12182,-0.03356,-9.50926,0.23439,0.14319,0.22515
2025-11-25T07:15:48.346154,0.17026,-0.06153,-9.49309,0.19110,0.17332,0.10677
2025-11-25T07:15:48.355769,0.14073,-0.06224,-9.49101,0.23937,0.04564,0.06624
2025-11-25T07:15:48.365385,0.07928,-0.03429,-9.49325,0.26984,0.22702,0.08645
2025-11-25T07:15:48.375,0.16407,-0.08157,-9.45868,0.23826,0.19638,0.12654
2025-11-25T07:15:48.384615,0.13594,-0.05825,-9.44333,0.22138,0.11545,0.19178
2025-11-25T07:15:48.394231,0.12913,-0.09736,-9.42944,0.18910,0.11961,0.15459
2025-11-25T07:15:48.403846,0.08929,-0.09983,-9.45691,0.08819,0.14543,0.28277
2025-11-25T07:15:48.413462,0.03772,-0.03717,-9.46765,0.25521,0.19446,0.10681
2025-11-25T07:15:48.423077,0.09737,-0.09673,-9.41217,0.21741,0.21699,0.23308
2025-11-25T07:15:48.432692,0.11740,-0.15635,-9.38875,0.16868,0.27569,0.09938
2025-11-25T07:15:48.442308,0.06729,-0.08771,-9.47373,0.15956,0.14921,0.18364
2025-11-25T07:15:48.451923,0.09974,-0.08392,-9.42015,0.18417,0.15016,0.14090
2025-11-25T07:15:48.461538,0.14551,-0.10377,-9.43534,0.22336,0.08707,0.16896
2025-11-25T07:15:48.471154,0.05178,-0.15759,-9.45975,0.27059,0.35841,0.04844
2025-11-25T07:15:48.480769,0.06019,-0.16504,-9.40383,0.20542,0.29105,0.17805
2025-11-25T07:15:48.490385,0.10003,-0.20491,-9.35073,0.01968,0.34966,0.25863
2025-11-25T07:15:48.5,0.11105,-0.16290,-9.36873,0.24677,0.23950,0.15523
2025-11-25T07:15:48.509615,0.05999,-0.15014,-9.39839,0.16170,0.18618,0.11694
2025-11-25T07:15:48.519231,0.13145,-0.10673,-9.28939,0.09748,0.28025,0.16316
2025-11-25T07:15:48.528846,0.05786,-0.16335,-9.38019,0.14348,0.23998,0.21435
2025-11-25T07:15:48.538462,0.06132,-0.21668,-9.34521,0.21532,0.20873,0.08858
2025-11-25T07:15:48.548077,0.02348,-0.07711,-9.31757,0.10314,0.19824,0.07069
2025-11-25T07:15:48.557692,0.09062,-0.15194,-9.42857,-0.03369,0.19855,0.06414
2025-11-25T07:15:48.567308,0.04576,-0.05732,-9.47311,0.23250,0.25789,0.18351
2025-11-25T07:15:48.576923,0.00781,-0.13437,-9.39041,0.07218,0.21274,0.01901
2025-11-25T07:15:48.586538,0.04357,-0.23159,-9.35707,0.29817,0.28347,0.13720
2025-11-25T07:15:48.596154,0.05986,-0.03611,-9.28262,0.22059,0.22210,0.05102
2025-11-25T07:15:48.605769,0.02371,-0.17691,-9.22158,0.20789,0.23021,0.02219
2025-11-25T07:15:48.615385,0.01235,-0.18178,-9.31770,0.17611,0.16057,0.02476
2025-11-25T07:15:48.625,0.05743,-0.11378,-9.33691,0.02448,0.29304,0.03236
2025-11-25T07:15:48.634615,0.03279,-0.08470,-9.38159,0.09404,0.31395,0.10472
2025-11-25T07:15:48.644231,-0.03389,-0.14663,-9.32965,0.06170,0.25788,0.01923
2025-11-25T07:15:48.653846,0.03258,-0.11618,-9.33000,0.02900,0.25223,0.12996
2025-11-25T07:15:48.663462,-0.00174,-0.12373,-9.26483,-0.00004,0.07342,0.10806
2025-11-25T07:15:48.673077,0.05159,-0.07673,-9.40001,0.12132,0.30240,0.05439
2025-11-25T07:15:48.682692,0.01875,-0.17140,-9.39533,-0.09436,0.27812,0.03527
2025-11-25T07:15:48.692308,-0.07641,-0.14214,-9.34351,-0.07692,0.31430,-0.05039
2025-11-25T07:15:48.701923,0.00963,-0.13907,-9.41514,0.02228,0.36582,0.06186
2025-11-25T07:15:48.711538,-0.00206,-0.21124,-9.41952,0.10055,0.34958,0.03731
2025-11-25T07:15:48.721154,-0.01582,-0.14853,-9.42249,0.06255,0.24356,0.01671
2025-11-25T07:15:48.730769,-0.05236,-0.16182,-9.50122,0.02842,0.25448,-0.00224
2025-11-25T07:15:48.740385,0.00240,-0.15395,-9.37558,0.02446,0.41773,0.11805
2025-11-25T07:15:48.75,0.02657,-0.18455,-9.41992,-0.03085,0.17868,0.07223
2025-11-25T07:15:48.759615,-0.08051,-0.20297,-9.27316,-0.12667,0.17778,-0.00062
2025-11-25T07:15:48.769231,-0.01556,-0.12680,-9.40918,-0.08463,0.17751,0.02538
2025-11-25T07:15:48.778846,-0.04315,-0.20216,-9.41627,0.10250,0.27852,-0.00954
2025-11-25T07:15:48.788462,-0.07909,-0.19245,-9.33130,-0.02785,0.21875,0.03902
2025-11-25T07:15:48.798077,-0.06471,-0.13490,-9.39337,0.03251,0.11490,-0.05046
2025-11-25T07:15:48.807692,-0.07521,-0.11503,-9.45317,-0.03133,0.21123,0.05133
2025-11-25T07:15:48.817308,-0.03399,-0.23906,-9.40900,-0.03272,0.31736,-0.00524
2025-11-25T07:15:48.826923,-0.07730,-0.11392,-9.49048,-0.11342,0.18497,0.06333
2025-11-25T07:15:48.836538,0.00698,-0.11959,-9.43957,-0.06931,0.28772,0.00111
2025-11-25T07:15:48.846154,-0.05056,-0.14301,-9.48446,0.00488,0.20911,0.02934
2025-11-25T07:15:48.855769,-0.05282,-0.12282,-9.45614,0.02218,0.22345,-0.01879
2025-11-25T07:15:48.865385,-0.05329,-0.19632,-9.44419,0.07368,0.21785,-0.05406
2025-11-25T07:15:48.875,-0.08660,-0.09468,-9.49187,0.02475,0.25007,0.05817
2025-11-25T07:15:48.884615,-0.10013,-0.16103,-9.41274,-0.00573,0.18566,-0.03195
2025-11-25T07:15:48.894231,-0.17578,-0.17867,-9.43515,-0.08920,0.08564,-0.06794
2025-11-25T07:15:48.903846,-0.11129,-0.12258,-9.53430,-0.03491,0.14769,-0.00393
2025-11-25T07:15:48.913462,-0.10799,-0.12017,-9.52325,0.00136,0.18429,-0.01464
2025-11-25T07:15:48.923077,-0.13071,-0.16740,-9.50769,-0.17458,0.14343,-0.05130
2025-11-25T07:15:48.932692,-0.09089,-0.13998,-9.49940,-0.11280,0.14492,-0.06134
2025-11-25T07:15:48.942308,-0.09747,-0.06411,-9.58824,-0.10691,0.30884,-0.11150
2025-11-25T07:15:48.951923,-0.05767,-0.17196,-9.53980,0.01236,0.11183,-0.05850
2025-11-25T07:15:48.961538,-0.12239,-0.08815,-9.58416,-0.17125,0.06974,-0.03709
2025-11-25T07:15:48.971154,-0.06691,-0.13456,-9.55860,-0.01556,0.17676,-0.17575
2025-11-25T07:15:48.980769,-0.04965,-0.08009,-9.66007,-0.10749,0.21204,-0.01124
2025-11-25T07:15:48.990385,-0.11865,-0.09964,-9.66474,-0.17703,0.14663,0.01714
2025-11-25T07:15:49,-0.11122,-0.06383,-9.61887,-0.01487,0.10268,-0.08303
2025-11-25T07:15:49.009615,-0.11208,-0.08285,-9.60981,-0.07927,0.09335,-0.00637
2025-11-25T07:15:49.019231,-0.17725,-0.05313,-9.69448,-0.13222,0.02405,-0.09094
2025-11-25T07:15:49.028846,-0.10810,-0.09833,-9.62431,-0.18633,0.04194,-0.10205
2025-11-25T07:15:49.038462,-0.11915,-0.07172,-9.70604,-0.08623,0.01650,-0.09532
2025-11-25T07:15:49.048077,-0.14892,-0.02551,-9.62722,-0.04908,0.10095,-0.15801
2025-11-25T07:15:49.057692,-0.15844,-0.00491,-9.69373,-0.05638,0.05378,-0.12735
2025-11-25T07:15:49.067308,-0.10972,-0.02232,-9.76751,-0.21926,0.19975,-0.13787
2025-11-25T07:15:49.076923,-0.11410,-0.07052,-9.68410,-0.02945,0.16617,-0.23789
2025-11-25T07:15:49.086538,-0.15443,-0.02570,-9.64602,-0.12082,0.07923,-0.12366
2025-11-25T07:15:49.096154,-0.13785,-0.00247,-9.67270,-0.18313,0.14469,-0.03676
2025-11-25T07:15:49.105769,-0.14253,0.00598,-9.65433,-0.08778,0.07887,-0.05666
2025-11-25T07:15:49.115385,-0.12040,-0.05222,-9.78408,-0.13096,0.13649,-0.08424
2025-11-25T07:15:49.125,-0.09746,0.02724,-9.83684,-0.18461,0.15803,-0.14788
2025-11-25T07:15:49.134615,-0.11702,0.07892,-9.74934,-0.16189,0.01204,-0.04508
2025-11-25T07:15:49.144231,-0.14638,0.00262,-9.81368,-0.13016,0.03015,-0.16207
2025-11-25T07:15:49.153846,-0.10569,0.02511,-9.85247,-0.28126,0.00914,-0.11652
2025-11-25T07:15:49.163462,-0.18269,0.04502,-9.88603,-0.18546,0.03054,-0.08213
2025-11-25T07:15:49.173077,-0.09111,0.01186,-9.78560,-0.20474,0.02467,-0.10551
2025-11-25T07:15:49.182692,-0.12308,0.06503,-9.91287,-0.24288,-0.00197,-0.13104
2025-11-25T07:15:49.192308,-0.18899,0.03561,-9.78686,-0.07165,0.06342,-0.19897
2025-11-25T07:15:49.201923,-0.14157,0.07511,-9.99469,-0.07472,0.06815,-0.04576
2025-11-25T07:15:49.211538,-0.10929,0.01702,-9.87931,-0.26037,0.09506,-0.13881
2025-11-25T07:15:49.221154,-0.18426,0.10274,-9.82061,-0.20502,0.04458,-0.05466
2025-11-25T07:15:49.230769,-0.16868,0.12431,-9.95893,-0.34360,-0.01883,-0.12126
2025-11-25T07:15:49.240385,-0.16847,0.02427,-9.89587,-0.13813,-0.19688,-0.16039
2025-11-25T07:15:49.25,-0.09999,0.01058,-9.88772,-0.19152,0.00283,-0.18155
2025-11-25T07:15:49.259615,-0.12720,0.02723,-9.91218,-0.23723,0.02386,-0.16192
2025-11-25T07:15:49.269231,-0.16974,0.11583,-9.86647,-0.03929,-0.02954,-0.10076
2025-11-25T07:15:49.278846,-0.14316,0.11004,-9.94600,-0.23878,0.07506,-0.15658
2025-11-25T07:15:49.288462,-0.13136,0.13481,-9.96808,-0.17530,-0.18556,-0.09216
2025-11-25T07:15:49.298077,-0.17008,0.07560,-9.97792,-0.19677,0.01241,-0.17106
2025-11-25T07:15:49.307692,-0.14624,0.03612,-9.92145,-0.11967,0.04381,-0.14472
2025-11-25T07:15:49.317308,-0.19519,0.09474,-10.03340,-0.03113,0.02150,-0.18104
2025-11-25T07:15:49.326923,-0.10362,0.13250,-10.00262,-0.22663,-0.07075,-0.13292
2025-11-25T07:15:49.336538,-0.14034,0.06207,-9.98478,-0.14390,-0.00172,-0.11951
2025-11-25T07:15:49.346154,-0.12098,0.01411,-9.99004,-0.09736,-0.11429,-0.17684
2025-11-25T07:15:49.355769,-0.11772,0.12432,-10.06096,-0.12793,-0.18062,-0.13356
2025-11-25T07:15:49.365385,-0.14078,0.10421,-10.03675,-0.22197,-0.17505,-0.09611
2025-11-25T07:15:49.375,-0.13661,0.17962,-10.09562,-0.04378,-0.07540,-0.14571
2025-11-25T07:15:49.384615,-0.10627,0.09865,-10.01022,-0.08718,-0.08816,-0.09916
2025-11-25T07:15:49.394231,-0.12432,0.09303,-10.01962,-0.11507,-0.02546,-0.18933
2025-11-25T07:15:49.403846,-0.18348,0.13233,-10.05483,-0.03954,-0.07351,-0.11513
2025-11-25T07:15:49.413462,-0.03413,0.10534,-10.18792,0.02637,0.00020,-0.09773
2025-11-25T07:15:49.423077,-0.14054,0.12910,-10.09803,-0.07822,-0.06477,-0.13453
2025-11-25T07:15:49.432692,-0.12992,0.16673,-10.08699,-0.21819,-0.00723,-0.08147
2025-11-25T07:15:49.442308,-0.13527,0.13444,-10.07505,-0.14651,-0.02062,-0.20320
2025-11-25T07:15:49.451923,-0.13995,0.17426,-10.19871,-0.09963,-0.03336,-0.11139
2025-11-25T07:15:49.461538,-0.10002,0.16336,-10.18220,-0.14230,-0.21946,-0.08934
2025-11-25T07:15:49.471154,-0.06933,0.17342,-10.15279,-0.21895,-0.06816,-0.15416
2025-11-25T07:15:49.480769,-0.11156,0.12360,-10.12405,-0.08860,-0.04405,-0.13519
2025-11-25T07:15:49.490385,-0.08041,0.17478,-10.23718,-0.01872,-0.13188,-0.11751
2025-11-25T07:15:49.5,-0.10626,0.17538,-10.18098,-0.13665,-0.15420,-0.12050
2025-11-25T07:15:49.509615,-0.08203,0.20788,-10.16948,-0.14880,-0.16019,-0.10369
2025-11-25T07:15:49.519231,-0.03571,0.11135,-10.13509,-0.02811,-0.11777,-0.14366
2025-11-25T07:15:49.528846,-0.11809,0.16202,-10.20940,-0.18631,-0.09804,-0.25551
2025-11-25T07:15:49.538462,-0.10294,0.14829,-10.19121,0.02610,-0.14805,-0.16058
2025-11-25T07:15:49.548077,-0.08909,0.19051,-10.13428,-0.11861,-0.02133,-0.13751
2025-11-25T07:15:49.557692,-0.05913,0.12510,-10.20085,-0.05937,-0.17919,-0.14437
2025-11-25T07:15:49.567308,-0.03120,0.22626,-10.11787,-0.19371,-0.05181,-0.07656
2025-11-25T07:15:49.576923,-0.08466,0.14816,-10.18193,-0.07598,-0.03384,-0.19149
2025-11-25T07:15:49.586538,-0.01494,0.14541,-10.19127,0.06795,-0.14358,-0.11753
2025-11-25T07:15:49.596154,-0.07329,0.22602,-10.24416,-0.02658,-0.21037,-0.19582
2025-11-25T07:15:49.605769,-0.01871,0.23344,-10.26334,-0.13955,-0.16089,-0.12786
2025-11-25T07:15:49.615385,-0.07569,0.14766,-10.21421,0.03646,-0.21435,-0.10696
2025-11-25T07:15:49.625,-0.09673,0.23706,-10.22917,-0.03563,-0.20342,-0.05421
2025-11-25T07:15:49.634615,-0.08480,0.22026,-10.32768,-0.02265,-0.11486,-0.08703
2025-11-25T07:15:49.644231,-0.06848,0.19708,-10.15000,-0.18128,-0.15670,-0.11363
2025-11-25T07:15:49.653846,-0.06938,0.22523,-10.24530,0.03243,-0.12196,-0.20446
2025-11-25T07:15:49.663462,-0.03712,0.22345,-10.16803,-0.07735,-0.25429,-0.16386
2025-11-25T07:15:49.673077,-0.06135,0.27646,-10.35418,-0.04699,-0.27269,-0.11391
2025-11-25T07:15:49.682692,-0.01128,0.24397,-10.24460,-0.00740,-0.25122,-0.06651
2025-11-25T07:15:49.692308,-0.07881,0.22298,-10.30134,-0.07778,-0.22000,-0.14295
2025-11-25T07:15:49.701923,-0.02276,0.17825,-10.26234,-0.09144,-0.14147,-0.14920
2025-11-25T07:15:49.711538,-0.06226,0.26175,-10.31397,0.01187,-0.19679,-0.17421
2025-11-25T07:15:49.721154,-0.01389,0.22080,-10.29441,0.00788,-0.29797,-0.14163
2025-11-25T07:15:49.730769,-0.00214,0.26555,-10.19426,-0.07033,-0.20105,-0.15763
2025-11-25T07:15:49.740385,-0.04502,0.22961,-10.24815,-0.02936,-0.25501,-0.16042
2025-11-25T07:15:49.75,0.00003,0.24337,-10.19806,-0.07628,-0.26833,-0.07525
2025-11-25T07:15:49.759615,-0.00517,0.21165,-10.28961,-0.08156,-0.26192,-0.09473
2025-11-25T07:15:49.769231,-0.03191,0.26274,-10.24159,0.01720,-0.24756,-0.01837
2025-11-25T07:15:49.778846,0.03032,0.23785,-10.23611,0.02858,-0.15622,-0.09811
2025-11-25T07:15:49.788462,-0.02651,0.22442,-10.28948,0.15975,-0.17794,-0.05914
2025-11-25T07:15:49.798077,0.04075,0.20193,-10.27546,0.07433,-0.27129,-0.06097
2025-11-25T07:15:49.807692,0.04738,0.31857,-10.22871,0.10608,-0.37846,-0.07724
2025-11-25T07:15:49.817308,0.00830,0.27863,-10.19146,0.09213,-0.30337,-0.14213
2025-11-25T07:15:49.826923,0.01109,0.23242,-10.31607,-0.04552,-0.27787,-0.16127
2025-11-25T07:15:49.836538,0.01702,0.25358,-10.21581,0.05974,-0.26883,-0.16030
2025-11-25T07:15:49.846154,0.03106,0.27249,-10.22696,0.08278,-0.11043,-0.04971
2025-11-25T07:15:49.855769,-0.05783,0.16289,-10.20972,-0.06183,-0.18608,-0.11568
2025-11-25T07:15:49.865385,0.02331,0.25471,-10.26424,0.08637,-0.17937,-0.12224
2025-11-25T07:15:49.875,0.02848,0.18151,-10.26231,0.07330,-0.35685,-0.05629
2025-11-25T07:15:49.884615,0.02122,0.18543,-10.16001,0.15246,-0.20874,-0.05150
2025-11-25T07:15:49.894231,0.03666,0.22981,-10.16219,-0.06696,-0.17049,-0.02218
2025-11-25T07:15:49.903846,0.03408,0.15903,-10.14984,-0.05645,-0.20790,-0.04994
2025-11-25T07:15:49.913462,0.07173,0.26238,-10.23128,0.18673,-0.13652,-0.11535
2025-11-25T07:15:49.923077,0.00661,0.22833,-10.16765,0.01852,-0.24612,-0.09473
2025-11-25T07:15:49.932692,0.02769,0.25693,-10.16793,0.06843,-0.30517,-0.01171
2025-11-25T07:15:49.942308,0.04910,0.20047,-10.22115,0.08973,-0.12559,-0.08145
2025-11-25T07:15:49.951923,0.02355,0.18612,-10.16531,0.02930,-0.30273,-0.09420
2025-11-25T07:15:49.961538,0.12086,0.30638,-10.26781,0.11254,-0.24776,-0.09782
2025-11-25T07:15:49.971154,0.03736,0.17139,-10.26075,0.11492,-0.07527,-0.03156
2025-11-25T07:15:49.980769,0.07684,0.19422,-10.09737,0.03200,-0.33486,-0.04181
2025-11-25T07:15:49.990385,0.04664,0.17573,-10.17669,0.08778,-0.06878,0.02691
2025-11-25T07:15:50,0.10972,0.19060,-10.19235,0.11899,-0.20431,-0.02465
2025-11-25T07:15:50.009615,0.06331,0.21004,-10.19803,0.09009,-0.15229,-0.09620
2025-11-25T07:15:50.019231,0.08493,0.26052,-10.12742,0.08155,-0.04453,-0.08398
2025-11-25T07:15:50.028846,0.06133,0.14641,-10.18410,0.04718,-0.16880,-0.00250
2025-11-25T07:15:50.038462,0.03636,0.19519,-10.06127,0.14158,-0.17041,-0.13017
2025-11-25T07:15:50.048077,0.08235,0.26499,-10.12476,0.06723,-0.10248,0.04356
2025-11-25T07:15:50.057692,0.12806,0.17791,-10.07812,0.13122,-0.30748,0.00819
2025-11-25T07:15:50.067308,0.05591,0.20186,-10.17903,0.17422,-0.16409,-0.14181
2025-11-25T07:15:50.076923,0.13198,0.14390,-10.17215,0.21540,-0.13342,-0.03939
2025-11-25T07:15:50.086538,0.12028,0.23879,-10.06723,0.20930,-0.22255,-0.01188
2025-11-25T07:15:50.096154,0.09902,0.17324,-10.05252,0.05910,-0.20082,-0.02753
2025-11-25T07:15:50.105769,0.10966,0.17305,-10.08122,0.13095,-0.12698,-0.03650
2025-11-25T07:15:50.115385,0.11934,0.14811,-10.08425,0.05899,-0.27117,0.05090
2025-11-25T07:15:50.125,0.12034,0.13247,-10.04726,0.24405,-0.15398,-0.05442
2025-11-25T07:15:50.134615,0.06763,0.22207,-10.02204,0.23829,-0.25692,-0.02811
2025-11-25T07:15:50.144231,0.12768,0.17766,-10.09510,0.08423,-0.21112,0.00357
2025-11-25T07:15:50.153846,0.14398,0.14128,-10.08420,0.10562,-0.08879,0.00393
2025-11-25T07:15:50.163462,0.17642,0.08728,-9.98459,0.11556,-0.20644,0.03328
2025-11-25T07:15:50.173077,0.12793,0.19579,-10.04883,0.13376,-0.15231,0.04648
2025-11-25T07:15:50.182692,0.13691,0.10736,-10.02275,0.07717,-0.00600,0.09426
2025-11-25T07:15:50.192308,0.13849,0.10268,-9.90923,0.12589,-0.13814,0.02933
2025-11-25T07:15:50.201923,0.13531,0.19207,-10.00189,0.04695,-0.08788,0.08818
2025-11-25T07:15:50.211538,0.09589,0.20054,-9.90376,0.27460,-0.23540,0.03407
2025-11-25T07:15:50.221154,0.13297,0.12503,-10.03276,0.20798,0.00668,-0.06198
2025-11-25T07:15:50.230769,0.14260,0.04480,-9.92920,0.30685,-0.21684,-0.00877
2025-11-25T07:15:50.240385,0.15143,0.11015,-9.91613,0.27074,-0.17384,0.01303
2025-11-25T07:15:50.25,0.17695,0.12816,-9.99791,0.16233,-0.24711,0.01808
2025-11-25T07:15:50.259615,0.19376,0.21981,-9.88077,0.15284,-0.14351,0.04233
2025-11-25T07:15:50.269231,0.09465,0.10468,-9.94424,0.13024,-0.08124,0.04193
2025-11-25T07:15:50.278846,0.15123,0.16523,-9.89793,0.16963,-0.08772,0.03778
2025-11-25T07:15:50.288462,0.11378,0.09967,-10.00149,0.15395,-0.13520,-0.03642
2025-11-25T07:15:50.298077,0.17674,0.11936,-9.90213,0.31710,-0.06749,-0.03739
2025-11-25T07:15:50.307692,0.16454,0.03351,-9.86716,0.17997,-0.10456,0.05156
2025-11-25T07:15:50.317308,0.13962,0.14991,-9.95969,0.13537,0.04133,0.06411
2025-11-25T07:15:50.326923,0.13310,0.06987,-9.94503,0.09532,-0.21665,-0.01515
2025-11-25T07:15:50.336538,0.18064,0.06776,-9.79867,0.09554,-0.13010,0.02882
2025-11-25T07:15:50.346154,0.18790,0.10381,-9.82424,0.23731,-0.04561,-0.00912
2025-11-25T07:15:50.355769,0.16106,0.03301,-9.83397,0.26654,-0.05653,0.05242
2025-11-25T07:15:50.365385,0.09882,0.12326,-9.79493,0.15661,-0.11766,0.00697
2025-11-25T07:15:50.375,0.09029,0.04939,-9.81905,0.25613,-0.00524,0.01155
2025-11-25T07:15:50.384615,0.15046,0.05799,-9.80086,0.17442,-0.11767,0.05084
2025-11-25T07:15:50.394231,0.17946,0.06443,-9.73717,0.25481,-0.09822,0.14367
2025-11-25T07:15:50.403846,0.15638,0.05945,-9.70124,0.22214,0.09716,0.02303
2025-11-25T07:15:50.413462,0.15238,0.10791,-9.86230,0.10018,0.05003,0.09531
2025-11-25T07:15:50.423077,0.11665,0.07578,-9.74688,0.25100,-0.09696,0.14022
2025-11-25T07:15:50.432692,0.11151,0.03770,-9.73011,0.13782,0.04099,-0.02354
2025-11-25T07:15:50.442308,0.16480,0.06438,-9.76136,0.16629,0.06422,0.00183
2025-11-25T07:15:50.451923,0.16298,0.08121,-9.64726,0.28328,0.03809,0.10120
2025-11-25T07:15:50.461538,0.23427,0.05294,-9.71900,0.18520,-0.02324,0.17421
2025-11-25T07:15:50.471154,0.19659,-0.01345,-9.67150,0.22803,-0.06392,0.01304
2025-11-25T07:15:50.480769,0.10667,0.05283,-9.75217,0.26230,0.00935,0.07209
2025-11-25T07:15:50.490385,0.17291,-0.05942,-9.65483,0.29999,0.00470,0.02705
2025-11-25T07:15:50.5,0.13253,-0.00364,-9.69603,0.10558,0.00472,0.02206
2025-11-25T07:15:50.509615,0.17197,-0.05131,-9.70338,0.21264,0.09730,0.07917
2025-11-25T07:15:50.519231,0.15180,0.00372,-9.68989,0.19652,-0.02057,0.09878
2025-11-25T07:15:50.528846,0.14407,0.02888,-9.53038,0.08983,-0.03269,0.07192
2025-11-25T07:15:50.538462,0.16392,-0.16280,-9.64637,0.18512,0.19300,0.06106
2025-11-25T07:15:50.548077,0.10305,0.04791,-9.59719,0.15783,-0.09544,0.11452
2025-11-25T07:15:50.557692,0.14727,-0.08045,-9.64490,0.15433,0.01269,0.04624
2025-11-25T07:15:50.567308,0.19229,0.01811,-9.64854,0.28379,0.09963,-0.02256
2025-11-25T07:15:50.576923,0.13084,-0.01242,-9.53883,0.16520,0.11448,0.10843
2025-11-25T07:15:50.586538,0.18568,-0.04834,-9.58506,0.14740,-0.01103,0.11073
2025-11-25T07:15:50.596154,0.13332,-0.10318,-9.57451,0.22740,0.08821,0.12574
2025-11-25T07:15:50.605769,0.10754,0.03099,-9.63226,0.03217,0.05441,0.06476
2025-11-25T07:15:50.615385,0.15756,-0.08328,-9.49338,0.20350,0.05633,0.08168
2025-11-25T07:15:50.625,0.13319,-0.05214,-9.58010,0.20555,0.20278,0.07684
2025-11-25T07:15:50.634615,0.13091,-0.06013,-9.52802,0.19879,-0.03463,0.04319
2025-11-25T07:15:50.644231,0.15494,-0.06887,-9.51459,0.15685,0.04940,0.12322
2025-11-25T07:15:50.653846,0.12386,-0.03662,-9.44367,0.25031,0.09407,0.05095
2025-11-25T07:15:50.663462,0.16313,-0.15175,-9.57596,0.21716,0.12361,0.00906
2025-11-25T07:15:50.673077,0.16530,-0.14448,-9.55172,0.21105,0.05021,0.09790
2025-11-25T07:15:50.682692,0.11983,-0.04568,-9.42898,0.08733,0.07627,0.02812
2025-11-25T07:15:50.692308,0.12595,-0.03529,-9.56090,0.06871,0.02420,0.07998
2025-11-25T07:15:50.701923,0.16584,-0.13767,-9.48765,0.20373,0.18184,0.09934
2025-11-25T07:15:50.711538,0.13041,-0.15659,-9.46112,0.14937,0.10571,0.08016
2025-11-25T07:15:50.721154,0.18541,-0.09636,-9.49998,0.23827,0.08363,-0.00164
2025-11-25T07:15:50.730769,0.10936,-0.16183,-9.56462,0.21915,0.11442,-0.01090
2025-11-25T07:15:50.740385,0.11760,-0.11409,-9.49422,0.11220,0.16249,-0.00062
2025-11-25T07:15:50.75,0.15197,-0.12583,-9.49482,0.12413,0.01233,-0.00574
2025-11-25T07:15:50.759615,0.16323,-0.13459,-9.48086,-0.00589,0.00308,0.00769
2025-11-25T07:15:50.769231,0.11565,-0.12975,-9.45972,0.18738,0.00033,-0.03825
2025-11-25T07:15:50.778846,0.11994,-0.05078,-9.41025,0.04657,0.01406,0.13097
2025-11-25T07:15:50.788462,0.13537,-0.18838,-9.42389,0.12674,0.05664,0.05366
2025-11-25T07:15:50.798077,0.14152,-0.16668,-9.46742,0.26269,0.10823,0.06963
2025-11-25T07:15:50.807692,0.09604,-0.02396,-9.40284,0.06925,0.02218,-0.05110
2025-11-25T07:15:50.817308,0.03392,-0.04933,-9.42593,0.22072,0.03280,0.00782
2025-11-25T07:15:50.826923,0.04379,-0.12116,-9.43090,0.08855,0.09133,0.00035
2025-11-25T07:15:50.836538,0.10689,-0.16859,-9.37693,0.05968,0.12701,0.07418
2025-11-25T07:15:50.846154,0.11162,-0.13800,-9.38904,0.15770,0.10987,-0.12949
2025-11-25T07:15:50.855769,0.09965,-0.13832,-9.36482,0.15397,0.00977,0.02642
2025-11-25T07:15:50.865385,0.08805,-0.16938,-9.41642,0.05837,0.16796,0.01789
2025-11-25T07:15:50.875,0.10562,-0.17378,-9.41913,0.16932,-0.04768,0.11820
2025-11-25T07:15:50.884615,0.08261,-0.10572,-9.43967,0.05252,0.01292,0.03663
2025-11-25T07:15:50.894231,0.03162,-0.10460,-9.36784,0.10244,0.06142,-0.02818
2025-11-25T07:15:50.903846,0.06762,-0.13545,-9.32693,0.13597,0.18089,0.02572
2025-11-25T07:15:50.913462,0.11519,-0.06311,-9.38767,0.04037,0.00495,0.10008
2025-11-25T07:15:50.923077,0.04851,-0.19147,-9.39400,0.08145,0.06272,-0.00365
2025-11-25T07:15:50.932692,0.07285,-0.15878,-9.36377,-0.01190,0.01735,0.04720
2025-11-25T07:15:50.942308,0.04941,-0.20035,-9.38617,0.26287,0.11038,0.03169
2025-11-25T07:15:50.951923,0.02189,-0.12219,-9.39462,0.11880,0.16556,-0.00004
2025-11-25T07:15:50.961538,0.05659,-0.14169,-9.35838,0.08931,0.10575,-0.06082
2025-11-25T07:15:50.971154,0.10915,-0.16615,-9.48154,0.10767,0.21523,0.04409
2025-11-25T07:15:50.980769,0.05737,-0.15068,-9.39268,0.08683,0.14703,-0.04433
2025-11-25T07:15:50.990385,0.02046,-0.17645,-9.30544,0.04902,0.20872,0.13149
2025-11-25T07:15:51,0.07255,-0.16136,-9.35596,-0.00122,0.03785,0.03369
2025-11-25T07:15:51.009615,0.06485,-0.22582,-9.34333,0.10201,0.14489,0.05160
2025-11-25T07:15:51.019231,0.04380,-0.21483,-9.32763,0.05274,-0.03226,0.01878
2025-11-25T07:15:51.028846,0.07990,-0.17269,-9.38262,-0.01324,0.03990,-0.00745
2025-11-25T07:15:51.038462,0.03857,-0.14455,-9.34650,0.06483,0.15008,-0.00089
2025-11-25T07:15:51.048077,0.03922,-0.17942,-9.31806,-0.02664,0.06786,0.00503
2025-11-25T07:15:51.057692,0.09112,-0.19762,-9.34711,0.11162,0.11370,-0.00505
2025-11-25T07:15:51.067308,0.04162,-0.23536,-9.35556,0.00333,0.08593,0.04831
2025-11-25T07:15:51.076923,0.03496,-0.15943,-9.32560,0.15677,0.13190,-0.03197
2025-11-25T07:15:51.086538,0.07346,-0.22316,-9.36899,0.04132,0.08374,-0.04744
2025-11-25T07:15:51.096154,-0.01032,-0.20024,-9.30511,-0.01253,0.20439,-0.06725
2025-11-25T07:15:51.105769,0.02021,-0.14610,-9.30205,0.10024,0.09141,-0.02170
2025-11-25T07:15:51.115385,0.06094,-0.18640,-9.44069,0.01763,0.06704,0.07726
2025-11-25T07:15:51.125,-0.01945,-0.19089,-9.32852,0.09371,0.23276,-0.03111
2025-11-25T07:15:51.134615,0.02353,-0.13202,-9.35570,-0.00778,0.11605,-0.02191
2025-11-25T07:15:51.144231,0.01622,-0.20803,-9.37169,-0.02574,0.05380,-0.01356
2025-11-25T07:15:51.153846,0.01152,-0.22794,-9.44187,0.02084,0.02180,-0.02870
2025-11-25T07:15:51.163462,0.00865,-0.18092,-9.30840,0.03795,0.14126,-0.09874
2025-11-25T07:15:51.173077,0.00014,-0.09631,-9.41030,0.08476,0.10922,0.03314
2025-11-25T07:15:51.182692,0.04301,-0.17835,-9.37683,0.07300,0.16998,0.00524
2025-11-25T07:15:51.192308,-0.03535,-0.15693,-9.42090,-0.00117,0.08183,-0.03533
2025-11-25T07:15:51.201923,0.04525,-0.26396,-9.33590,0.03555,0.18651,-0.01178
2025-11-25T07:15:51.211538,-0.01548,-0.17826,-9.39337,-0.07740,-0.00437,-0.06916
2025-11-25T07:15:51.221154,0.00451,-0.18674,-9.38689,0.03666,0.22639,-0.11258
2025-11-25T07:15:51.230769,-0.04848,-0.15407,-9.39364,0.14539,0.07540,-0.05450
2025-11-25T07:15:51.240385,-0.00962,-0.14989,-9.35272,-0.01605,0.01187,-0.04046
2025-11-25T07:15:51.25,-0.04501,-0.14166,-9.41152,-0.05118,0.02845,-0.06833
2025-11-25T07:15:51.259615,-0.05781,-0.25731,-9.38565,0.09994,0.09879,-0.12177
2025-11-25T07:15:51.269231,-0.03789,-0.21709,-9.45239,-0.07345,0.20134,0.00002
2025-11-25T07:15:51.278846,0.03343,-0.21927,-9.33024,0.11155,0.20995,-0.05406
2025-11-25T07:15:51.288462,-0.08984,-0.19478,-9.33709,-0.05995,0.11041,-0.04973
2025-11-25T07:15:51.298077,-0.01724,-0.20795,-9.43230,-0.08570,0.05818,-0.05318
2025-11-25T07:15:51.307692,-0.09816,-0.21133,-9.38711,-0.18903,0.12161,-0.03625
2025-11-25T07:15:51.317308,-0.02157,-0.23222,-9.34583,-0.00231,0.07053,-0.00063
2025-11-25T07:15:51.326923,-0.06153,-0.20029,-9.57212,-0.01951,0.04678,-0.07658
2025-11-25T07:15:51.336538,-0.02454,-0.19062,-9.45521,0.07124,0.10966,-0.03265
2025-11-25T07:15:51.346154,-0.07114,-0.22760,-9.41596,0.06253,0.14374,-0.07635
2025-11-25T07:15:51.355769,-0.08630,-0.22837,-9.51061,0.01010,0.04718,-0.07887
2025-11-25T07:15:51.365385,-0.05151,-0.18628,-9.35520,-0.04267,0.11545,-0.05289
2025-11-25T07:15:51.375,-0.11715,-0.22800,-9.48317,-0.03706,0.09977,-0.11807
2025-11-25T07:15:51.384615,-0.07433,-0.23607,-9.52165,0.01589,0.14385,-0.08048
2025-11-25T07:15:51.394231,-0.07015,-0.21670,-9.44917,-0.08365,0.18659,-0.07711
2025-11-25T07:15:51.403846,-0.09548,-0.14542,-9.43943,-0.07155,0.20383,-0.03704
2025-11-25T07:15:51.413462,-0.05675,-0.17691,-9.46146,0.03115,0.13210,-0.00644
2025-11-25T07:15:51.423077,-0.09828,-0.24980,-9.41739,-0.09638,0.08717,-0.11184
2025-11-25T07:15:51.432692,-0.08286,-0.16890,-9.47065,-0.03926,-0.07650,-0.06100
2025-11-25T07:15:51.442308,-0.07309,-0.17561,-9.43877,-0.03219,0.05265,-0.04738
2025-11-25T07:15:51.451923,-0.12856,-0.09648,-9.49322,-0.16882,0.11626,-0.07840
2025-11-25T07:15:51.461538,-0.10357,-0.14344,-9.43878,-0.08830,0.15638,-0.12457
2025-11-25T07:15:51.471154,-0.08457,-0.13744,-9.44847,-0.11631,0.06457,-0.07241
2025-11-25T07:15:51.480769,-0.10434,-0.10834,-9.53743,-0.02677,-0.00043,-0.08817
2025-11-25T07:15:51.490385,-0.02521,-0.14812,-9.51315,-0.10576,0.16733,-0.07970
2025-11-25T07:15:51.5,-0.09891,-0.19606,-9.56031,0.00983,0.23829,-0.07270
2025-11-25T07:15:51.509615,-0.07546,-0.15338,-9.55717,0.08775,0.10287,-0.05764
2025-11-25T07:15:51.519231,-0.12283,-0.18602,-9.54214,-0.09718,-0.07596,-0.07096
2025-11-25T07:15:51.528846,-0.06655,-0.16533,-9.56448,-0.06932,0.08707,-0.09158
2025-11-25T07:15:51.538462,-0.16304,-0.10956,-9.52833,-0.05430,0.10657,-0.09005
2025-11-25T07:15:51.548077,-0.10966,-0.14651,-9.60439,-0.20052,0.02859,-0.09290
2025-11-25T07:15:51.557692,-0.12220,-0.11738,-9.53631,-0.06367,0.04045,-0.11749
2025-11-25T07:15:51.567308,-0.12214,-0.12360,-9.59939,-0.23845,0.11351,-0.07562
2025-11-25T07:15:51.576923,-0.11111,-0.14473,-9.60432,-0.13625,0.09753,-0.15233
2025-11-25T07:15:51.586538,-0.15728,-0.12262,-9.60750,-0.10496,-0.03778,-0.10516
2025-11-25T07:15:51.596154,-0.10317,-0.11666,-9.60773,-0.16104,0.08818,-0.08866
2025-11-25T07:15:51.605769,-0.12101,-0.11828,-9.57780,-0.13156,0.07835,-0.10264
2025-11-25T07:15:51.615385,-0.08112,-0.12247,-9.65876,-0.09275,-0.04292,-0.09467
2025-11-25T07:15:51.625,-0.09583,-0.07320,-9.63962,-0.15985,0.01331,-0.04772
2025-11-25T07:15:51.634615,-0.11829,-0.18448,-9.54271,-0.12330,0.05978,-0.16132
2025-11-25T07:15:51.644231,-0.07411,-0.14839,-9.63560,-0.13163,0.02851,-0.20321
2025-11-25T07:15:51.653846,-0.13771,-0.07888,-9.60481,-0.22883,0.09077,-0.06016
2025-11-25T07:15:51.663462,-0.11777,-0.08359,-9.70113,-0.14025,-0.02081,-0.16957
2025-11-25T07:15:51.673077,-0.14651,-0.12194,-9.70454,-0.01909,-0.05247,-0.10928
2025-11-25T07:15:51.682692,-0.12989,-0.17484,-9.74218,-0.08751,-0.00060,-0.09006
2025-11-25T07:15:51.692308,-0.18199,-0.08400,-9.62894,-0.09106,0.08308,-0.09041
2025-11-25T07:15:51.701923,-0.16839,-0.07099,-9.77772,-0.15998,0.03444,-0.03941
2025-11-25T07:15:51.711538,-0.16179,-0.04859,-9.72447,-0.05527,-0.06175,-0.05355
2025-11-25T07:15:51.721154,-0.14414,-0.04778,-9.79991,-0.14655,-0.04567,-0.24647
2025-11-25T07:15:51.730769,-0.11204,-0.06667,-9.74286,-0.18264,-0.01569,-0.21385
2025-11-25T07:15:51.740385,-0.14434,-0.06977,-9.71134,-0.20873,0.10016,-0.11662
2025-11-25T07:15:51.75,-0.14279,-0.13670,-9.74895,-0.24925,-0.00891,-0.10647
2025-11-25T07:15:51.759615,-0.19369,-0.01822,-9.77984,-0.14128,0.02020,-0.19973
2025-11-25T07:15:51.769231,-0.13909,-0.09214,-9.75047,-0.00235,0.02777,-0.07220
2025-11-25T07:15:51.778846,-0.10454,-0.12517,-9.74834,-0.10974,0.02413,-0.14970
2025-11-25T07:15:51.788462,-0.15833,-0.05599,-9.74084,-0.11357,0.12256,-0.08647
2025-11-25T07:15:51.798077,-0.13900,-0.04948,-9.77522,-0.09106,-0.04920,-0.13174
2025-11-25T07:15:51.807692,-0.12246,-0.08653,-9.80285,-0.02755,0.02564,-0.21616
2025-11-25T07:15:51.817308,-0.14373,-0.10981,-9.86403,-0.14394,-0.05676,-0.19001
2025-11-25T07:15:51.826923,-0.11590,-0.07048,-9.80339,-0.04714,0.04864,-0.12110
2025-11-25T07:15:51.836538,-0.09144,-0.03937,-9.73760,-0.28324,0.09984,-0.12258
2025-11-25T07:15:51.846154,-0.12024,-0.16945,-9.83812,-0.07021,0.03108,-0.06941
2025-11-25T07:15:51.855769,-0.11222,-0.05132,-9.71458,-0.12468,0.00468,-0.14132
2025-11-25T07:15:51.865385,-0.17017,0.07357,-9.84756,-0.01467,-0.08729,-0.24987
2025-11-25T07:15:51.875,-0.10980,-0.08465,-9.94517,-0.13204,-0.01336,-0.10192
2025-11-25T07:15:51.884615,-0.14981,-0.02659,-9.83309,-0.18846,0.00252,-0.12044
2025-11-25T07:15:51.894231,-0.10868,-0.03288,-9.90854,-0.16718,-0.06736,-0.15155
2025-11-25T07:15:51.903846,-0.16247,-0.07205,-9.82470,-0.07555,-0.01948,-0.17657
2025-11-25T07:15:51.913462,-0.17160,-0.02005,-9.83973,-0.08755,-0.02613,-0.18691
2025-11-25T07:15:51.923077,-0.17259,0.08157,-9.82030,-0.22526,-0.17002,-0.15323
2025-11-25T07:15:51.932692,-0.13975,0.03125,-9.81726,-0.05143,-0.10293,-0.10485
2025-11-25T07:15:51.942308,-0.14189,0.09283,-9.90064,-0.09128,-0.05838,-0.16560
2025-11-25T07:15:51.951923,-0.15012,0.01638,-9.92368,-0.24790,0.04202,-0.12103
2025-11-25T07:15:51.961538,-0.14898,0.00273,-9.83276,-0.00245,-0.06184,-0.20601
2025-11-25T07:15:51.971154,-0.16759,0.04252,-9.93453,-0.13553,-0.14636,-0.27808
2025-11-25T07:15:51.980769,-0.11256,0.03845,-9.87771,-0.15151,-0.08884,-0.14877
2025-11-25T07:15:51.990385,-0.18142,-0.03721,-9.90849,-0.22127,0.01624,-0.17505
2025-11-25T07:15:52,-0.16663,0.03609,-9.91096,-0.04765,-0.08326,-0.12107
2025-11-25T07:15:52.009615,-0.16124,-0.00027,-9.94960,-0.04573,-0.03779,-0.13066
2025-11-25T07:15:52.019231,-0.15030,0.07385,-10.00786,-0.14584,-0.05391,-0.11275
2025-11-25T07:15:52.028846,-0.13661,0.11215,-9.96728,-0.11871,-0.08784,-0.15694
2025-11-25T07:15:52.038462,-0.14020,0.08493,-10.02746,-0.11710,-0.04251,-0.17419
2025-11-25T07:15:52.048077,-0.13698,0.04735,-10.01295,-0.24280,-0.08941,-0.07777
2025-11-25T07:15:52.057692,-0.20778,0.01305,-9.91564,-0.19635,-0.15297,-0.14001
2025-11-25T07:15:52.067308,-0.09355,0.00036,-9.94750,-0.06903,-0.04605,-0.20927
2025-11-25T07:15:52.076923,-0.16521,0.02028,-9.95345,-0.20758,-0.10720,-0.10502
2025-11-25T07:15:52.086538,-0.19052,0.00196,-9.95471,-0.04189,-0.02365,-0.17657
2025-11-25T07:15:52.096154,-0.13594,0.04379,-10.02496,-0.05574,-0.13669,-0.17359
2025-11-25T07:15:52.105769,-0.13596,0.11798,-10.03828,-0.13776,-0.10492,-0.12123
2025-11-25T07:15:52.115385,-0.17541,0.10267,-10.01875,-0.14926,-0.07104,-0.12290
2025-11-25T07:15:52.125,-0.12034,0.11432,-10.00725,-0.18271,-0.04470,-0.09629
2025-11-25T07:15:52.134615,-0.15950,0.09949,-10.00293,-0.10284,-0.17285,-0.11626
2025-11-25T07:15:52.144231,-0.14511,0.08621,-9.98468,-0.00620,-0.25132,-0.17601
2025-11-25T07:15:52.153846,-0.12217,0.00900,-10.09431,-0.23017,-0.08753,-0.22774
2025-11-25T07:15:52.163462,-0.12250,0.08597,-10.08923,-0.19179,-0.11105,-0.13207
2025-11-25T07:15:52.173077,-0.12344,0.09490,-10.10920,-0.09944,-0.16192,-0.13495
2025-11-25T07:15:52.182692,-0.16426,0.11208,-10.07571,-0.08967,-0.04905,-0.12994
2025-11-25T07:15:52.192308,-0.12666,0.13722,-10.10358,-0.06657,-0.03341,-0.13269
2025-11-25T07:15:52.201923,-0.14411,0.13483,-10.10647,-0.16828,-0.01997,-0.04111
2025-11-25T07:15:52.211538,-0.11124,0.03202,-10.11160,-0.11911,-0.06963,-0.10453
2025-11-25T07:15:52.221154,-0.13102,0.03451,-10.16977,-0.07261,-0.13343,-0.21150
2025-11-25T07:15:52.230769,-0.12531,0.17654,-10.11720,-0.11035,-0.10849,-0.11094
2025-11-25T07:15:52.240385,-0.10556,0.08228,-10.04362,-0.15936,-0.25217,-0.09875
2025-11-25T07:15:52.25,-0.10877,0.02962,-10.11286,-0.13887,-0.03396,-0.08671
2025-11-25T07:15:52.259615,-0.13941,0.18504,-10.13229,-0.06471,-0.04798,-0.19166
2025-11-25T07:15:52.269231,-0.12886,0.16077,-10.23230,-0.01893,-0.07447,-0.15397
2025-11-25T07:15:52.278846,-0.13299,0.06762,-10.12426,0.00945,-0.15460,-0.19634
2025-11-25T07:15:52.288462,-0.07605,0.13128,-10.20411,-0.14554,-0.15719,-0.11760
2025-11-25T07:15:52.298077,-0.15207,0.06934,-10.18056,0.01061,-0.15869,-0.10277
2025-11-25T07:15:52.307692,-0.07461,0.13004,-10.19620,-0.12629,-0.20384,-0.16104
2025-11-25T07:15:52.317308,-0.06752,0.16400,-10.19298,-0.09329,-0.13446,-0.21012
2025-11-25T07:15:52.326923,-0.14698,0.11106,-10.14950,-0.12898,-0.12179,-0.08126
2025-11-25T07:15:52.336538,-0.14624,0.14530,-10.19682,-0.14014,-0.14802,-0.11241
2025-11-25T07:15:52.346154,-0.12956,0.10779,-10.14564,-0.07844,-0.13080,-0.12841
2025-11-25T07:15:52.355769,-0.05036,0.15037,-10.20621,-0.07577,-0.00237,-0.07912
2025-11-25T07:15:52.365385,-0.10801,0.11696,-10.12776,-0.06400,-0.02872,-0.15593
2025-11-25T07:15:52.375,-0.09964,0.09646,-10.20989,-0.15958,0.10773,-0.08668
2025-11-25T07:15:52.384615,-0.10169,0.19046,-10.22811,0.01922,-0.14625,-0.04316
2025-11-25T07:15:52.394231,-0.12495,0.15171,-10.16696,-0.11207,-0.03295,-0.08708
2025-11-25T07:15:52.403846,-0.06675,0.17061,-10.24568,-0.13598,-0.20260,-0.15480
2025-11-25T07:15:52.413462,-0.12382,0.10743,-10.19789,-0.17619,-0.29806,-0.10595
2025-11-25T07:15:52.423077,-0.07212,0.13727,-10.27265,-0.14485,-0.14565,-0.06218
2025-11-25T07:15:52.432692,-0.03616,0.12740,-10.28847,-0.00569,-0.19154,-0.10007
2025-11-25T07:15:52.442308,-0.09941,0.16359,-10.12337,-0.05750,-0.15452,-0.17710
2025-11-25T07:15:52.451923,-0.10870,0.11754,-10.12211,0.03062,-0.12368,-0.26775
2025-11-25T07:15:52.461538,-0.10271,0.13537,-10.31866,-0.07304,-0.12026,-0.11253
2025-11-25T07:15:52.471154,-0.07705,0.19951,-10.25513,-0.15104,-0.20693,-0.21756
2025-11-25T07:15:52.480769,-0.09848,0.12529,-10.10374,0.03345,-0.24045,-0.13883
2025-11-25T07:15:52.490385,-0.03204,0.23399,-10.25197,-0.03713,-0.31566,-0.12833
2025-11-25T07:15:52.5,-0.05170,0.20278,-10.22526,-0.09462,-0.16654,-0.07959
2025-11-25T07:15:52.509615,-0.06177,0.17069,-10.24840,-0.14528,-0.18079,-0.07770
2025-11-25T07:15:52.519231,-0.08993,0.22925,-10.22236,0.04205,-0.06386,-0.08439
2025-11-25T07:15:52.528846,-0.09393,0.20816,-10.25958,-0.08926,-0.27372,-0.10445
2025-11-25T07:15:52.538462,-0.04014,0.11325,-10.21697,-0.02247,-0.14516,-0.14968
2025-11-25T07:15:52.548077,-0.05965,0.15373,-10.26149,0.02427,-0.12803,-0.08351
2025-11-25T07:15:52.557692,0.03336,0.20055,-10.25384,-0.05033,-0.29553,-0.08262
2025-11-25T07:15:52.567308,-0.04565,0.21556,-10.22278,-0.05947,-0.06125,-0.08657
2025-11-25T07:15:52.576923,-0.03727,0.20385,-10.24034,-0.07038,-0.03739,-0.08939
2025-11-25T07:15:52.586538,-0.03747,0.25034,-10.26071,-0.03389,-0.36670,-0.23982
2025-11-25T07:15:52.596154,-0.02717,0.19400,-10.15376,0.01771,-0.09536,-0.03699
2025-11-25T07:15:52.605769,0.00461,0.16433,-10.27124,-0.06494,-0.21735,-0.10375
2025-11-25T07:15:52.615385,-0.07332,0.15215,-10.12711,-0.09993,-0.18829,-0.08004
2025-11-25T07:15:52.625,0.00085,0.12807,-10.23873,-0.01756,-0.18471,-0.09496
2025-11-25T07:15:52.634615,-0.01475,0.21125,-10.23507,-0.03733,-0.09470,-0.09472
2025-11-25T07:15:52.644231,-0.00125,0.13105,-10.34279,0.10443,-0.15595,-0.13904
2025-11-25T07:15:52.653846,-0.05939,0.16493,-10.19572,0.00546,-0.37283,-0.10605
2025-11-25T07:15:52.663462,-0.02619,0.19422,-10.18901,-0.06418,-0.19154,-0.06211
2025-11-25T07:15:52.673077,-0.05748,0.17132,-10.20122,-0.04743,-0.10525,-0.12419
2025-11-25T07:15:52.682692,-0.02287,0.18745,-10.24424,-0.03307,-0.20887,-0.18931
2025-11-25T07:15:52.692308,-0.03577,0.18470,-10.28773,-0.17480,-0.13822,-0.12910
2025-11-25T07:15:52.701923,0.01461,0.17047,-10.29288,0.08899,-0.18934,-0.10110
2025-11-25T07:15:52.711538,-0.00799,0.20551,-10.30521,0.02326,-0.07884,-0.09916
2025-11-25T07:15:52.721154,0.01364,0.20113,-10.24999,0.00816,-0.19772,-0.06570
2025-11-25T07:15:52.730769,0.01958,0.17272,-10.22559,-0.03889,-0.16915,-0.04393
2025-11-25T07:15:52.740385,0.01297,0.20562,-10.19227,-0.00211,-0.20971,-0.05455
2025-11-25T07:15:52.75,0.00507,0.15539,-10.33012,0.05254,-0.22870,-0.18078
2025-11-25T07:15:52.759615,-0.01451,0.12116,-10.23634,-0.01628,-0.21184,-0.13065
2025-11-25T07:15:52.769231,0.00837,0.19585,-10.28980,-0.08361,-0.22062,-0.13516
2025-11-25T07:15:52.778846,-0.01778,0.23552,-10.24786,0.11798,-0.23012,-0.09755
2025-11-25T07:15:52.788462,0.04309,0.14567,-10.26927,-0.09648,-0.20073,-0.12050
2025-11-25T07:15:52.798077,-0.04505,0.23882,-10.28485,-0.02623,-0.06514,-0.17056
2025-11-25T07:15:52.807692,0.02445,0.15640,-10.25541,-0.03473,-0.17156,-0.13625
2025-11-25T07:15:52.817308,-0.00225,0.20311,-10.25195,0.06747,-0.14713,-0.06469
2025-11-25T07:15:52.826923,-0.00059,0.24889,-10.26273,0.01059,-0.27560,-0.02964
2025-11-25T07:15:52.836538,-0.01921,0.19687,-10.22161,-0.01952,-0.11335,-0.11429
2025-11-25T07:15:52.846154,0.03939,0.16640,-10.30042,0.15470,-0.17086,-0.04683
2025-11-25T07:15:52.855769,0.02359,0.16018,-10.29508,-0.00417,-0.19068,-0.00461
2025-11-25T07:15:52.865385,0.06954,0.18605,-10.21340,-0.09797,-0.08613,-0.19914
2025-11-25T07:15:52.875,0.08705,0.23454,-10.24772,0.07312,-0.14974,-0.09733
2025-11-25T07:15:52.884615,0.04482,0.18325,-10.22073,-0.02012,-0.24727,-0.08015
2025-11-25T07:15:52.894231,-0.02619,0.17027,-10.28629,-0.09470,-0.07759,-0.04498
2025-11-25T07:15:52.903846,0.03816,0.17672,-10.21499,0.15649,-0.14107,-0.10480
2025-11-25T07:15:52.913462,0.02069,0.16874,-10.23192,0.01267,-0.12250,-0.02225
2025-11-25T07:15:52.923077,0.03794,0.17124,-10.17359,0.01218,-0.14305,-0.13598
2025-11-25T07:15:52.932692,0.07404,0.17034,-10.23902,0.10598,-0.20353,-0.02897
2025-11-25T07:15:52.942308,0.03596,0.16629,-10.24592,-0.01565,-0.18483,-0.05060
2025-11-25T07:15:52.951923,0.05201,0.22412,-10.17401,0.06747,-0.33089,-0.15008
2025-11-25T07:15:52.961538,0.10456,0.15231,-10.28453,0.02724,-0.23796,-0.11393
2025-11-25T07:15:52.971154,0.06888,0.16835,-10.19465,-0.01506,-0.14697,-0.01540
2025-11-25T07:15:52.980769,0.10395,0.12772,-10.17454,0.05168,-0.17713,-0.12091
2025-11-25T07:15:52.990385,0.09836,0.19940,-10.13170,0.07416,-0.32912,-0.03867
2025-11-25T07:15:53,0.08283,0.21290,-10.16649,0.11648,-0.09454,-0.10497
2025-11-25T07:15:53.009615,0.08965,0.21408,-10.24192,0.03621,-0.03917,-0.09876
2025-11-25T07:15:53.019231,0.06155,0.18813,-10.15776,0.03440,-0.19479,0.01412
2025-11-25T07:15:53.028846,0.03302,0.20081,-10.13571,0.01995,-0.09074,-0.11188
2025-11-25T07:15:53.038462,0.03575,0.19963,-10.10126,0.14594,-0.10681,-0.04058
2025-11-25T07:15:53.048077,0.05588,0.12423,-10.19847,0.09045,-0.25705,0.00561
2025-11-25T07:15:53.057692,0.05943,0.20449,-10.18458,0.06708,-0.26288,-0.06499
2025-11-25T07:15:53.067308,0.06182,0.13957,-10.07905,0.08990,-0.17620,-0.05359
2025-11-25T07:15:53.076923,0.07619,0.17720,-10.09622,-0.05294,-0.11237,0.00228
2025-11-25T07:15:53.086538,0.06592,0.15147,-10.11766,0.09771,-0.19437,0.01926
2025-11-25T07:15:53.096154,0.07198,0.15091,-10.17329,0.18358,-0.09522,0.01883
2025-11-25T07:15:53.105769,0.08748,0.11981,-10.06483,0.10761,-0.07037,-0.08451
2025-11-25T07:15:53.115385,0.09337,0.07612,-10.09622,0.16030,-0.13789,-0.01258
2025-11-25T07:15:53.125,0.10150,0.21507,-9.97215,-0.01636,-0.19730,0.00092
2025-11-25T07:15:53.134615,0.11664,0.10872,-10.11344,0.06056,-0.14836,-0.03258
2025-11-25T07:15:53.144231,0.06464,0.17310,-10.04561,-0.00069,-0.06372,-0.03374
2025-11-25T07:15:53.153846,0.06737,0.12339,-10.06340,0.00766,-0.10531,0.02917
2025-11-25T07:15:53.163462,0.09168,0.11051,-10.13049,0.21248,-0.06415,-0.07023
2025-11-25T07:15:53.173077,0.09424,0.08072,-10.05826,0.05166,-0.15501,-0.02519
2025-11-25T07:15:53.182692,0.12639,0.17901,-10.13036,0.03765,-0.03402,-0.13981
2025-11-25T07:15:53.192308,0.12625,0.13968,-10.07226,0.04564,-0.15481,-0.10429
2025-11-25T07:15:53.201923,0.13939,0.12792,-10.01422,0.13179,-0.19582,-0.01518
2025-11-25T07:15:53.211538,0.08795,0.12452,-10.10069,0.16672,-0.11731,-0.05800
2025-11-25T07:15:53.221154,0.08246,0.14776,-10.04928,0.13198,-0.09217,0.01532
2025-11-25T07:15:53.230769,0.17072,0.10276,-10.05796,0.07429,-0.18715,0.06029
2025-11-25T07:15:53.240385,0.11694,0.10608,-10.07917,0.03543,-0.08509,-0.03848
2025-11-25T07:15:53.25,0.09298,0.07103,-10.03388,0.10246,-0.10088,-0.02578
2025-11-25T07:15:53.259615,0.13703,0.00316,-9.96828,0.15792,-0.07204,0.00248
2025-11-25T07:15:53.269231,0.13349,0.14698,-9.97147,-0.13082,-0.07210,0.00573
2025-11-25T07:15:53.278846,0.15860,0.05352,-10.01407,0.06053,-0.03912,-0.01120
2025-11-25T07:15:53.288462,0.11258,0.03536,-9.84712,0.15604,-0.13319,-0.02602
2025-11-25T07:15:53.298077,0.11625,0.11938,-10.01101,-0.07559,-0.04796,-0.02358
2025-11-25T07:15:53.307692,0.14072,0.07969,-9.92116,0.10544,-0.11478,-0.00862
2025-11-25T07:15:53.317308,0.08110,0.05683,-10.01024,-0.01379,-0.02429,-0.00796
2025-11-25T07:15:53.326923,0.17185,0.10589,-10.02388,0.14762,-0.04262,0.01053
2025-11-25T07:15:53.336538,0.05588,0.08825,-10.01278,0.06930,0.01416,0.05397
2025-11-25T07:15:53.346154,0.15351,0.11400,-9.91970,0.03210,-0.13686,0.02986
2025-11-25T07:15:53.355769,0.11186,0.08261,-9.89039,0.01653,0.05286,-0.03536
2025-11-25T07:15:53.365385,0.12396,0.03446,-9.92418,0.05347,0.01917,-0.10020
2025-11-25T07:15:53.375,0.12700,0.03673,-9.88489,0.00880,0.04974,0.01229
2025-11-25T07:15:53.384615,0.10306,0.09365,-9.95509,0.18809,-0.20789,0.01521
2025-11-25T07:15:53.394231,0.10658,0.06445,-9.94089,0.13414,-0.07046,0.01944
2025-11-25T07:15:53.403846,0.15069,0.02685,-9.87979,0.07524,-0.12670,-0.00787
2025-11-25T07:15:53.413462,0.16821,0.06914,-9.84979,0.03272,-0.04250,0.03637
2025-11-25T07:15:53.423077,0.14694,-0.01267,-9.85054,0.04158,-0.12259,-0.09843
2025-11-25T07:15:53.432692,0.10973,0.10151,-9.92939,0.17295,-0.10437,0.04667
2025-11-25T07:15:53.442308,0.16881,0.07853,-9.83452,0.13402,-0.10439,0.07662
2025-11-25T07:15:53.451923,0.17431,0.08914,-9.83213,0.09646,-0.05582,0.02287
2025-11-25T07:15:53.461538,0.18922,0.01207,-9.85594,0.12718,0.02358,-0.00837
2025-11-25T07:15:53.471154,0.15608,0.07038,-9.85835,0.07893,-0.06894,0.00828
2025-11-25T07:15:53.480769,0.10398,-0.03422,-9.78080,0.09137,0.04487,0.00265
2025-11-25T07:15:53.490385,0.11645,0.03072,-9.83650,0.19641,0.14861,0.03701
2025-11-25T07:15:53.5,0.14869,-0.00842,-9.78120,0.15648,0.10211,0.08066
2025-11-25T07:15:53.509615,0.09863,-0.02870,-9.72838,0.18326,-0.03325,0.09176
2025-11-25T07:15:53.519231,0.10120,-0.04199,-9.76543,0.06274,0.05429,0.02350
2025-11-25T07:15:53.528846,0.12040,-0.02616,-9.71845,0.07231,0.01574,0.05857
2025-11-25T07:15:53.538462,0.14133,0.00047,-9.72844,0.19461,-0.06586,-0.00411
2025-11-25T07:15:53.548077,0.08198,-0.04716,-9.72289,-0.03113,0.05768,0.10949
2025-11-25T07:15:53.557692,0.12814,0.02952,-9.72125,0.08386,-0.00902,0.03989
2025-11-25T07:15:53.567308,0.18522,-0.02996,-9.60782,0.15341,-0.01175,0.06012
2025-11-25T07:15:53.576923,0.17469,0.03438,-9.72136,0.13811,-0.10280,0.05271
2025-11-25T07:15:53.586538,0.10215,-0.04485,-9.71861,0.13623,-0.07632,0.03232
2025-11-25T07:15:53.596154,0.16153,0.02625,-9.71610,0.01447,0.11991,0.07488
2025-11-25T07:15:53.605769,0.15702,-0.00452,-9.64150,0.17751,0.03004,0.01612
2025-11-25T07:15:53.615385,0.14233,-0.07538,-9.73830,-0.00396,-0.11402,0.00047
2025-11-25T07:15:53.625,0.08648,-0.04891,-9.74305,0.03500,-0.02963,0.05967
2025-11-25T07:15:53.634615,0.18153,-0.05687,-9.64668,0.08722,-0.06631,0.11961
2025-11-25T07:15:53.644231,0.15822,0.01522,-9.56988,0.07526,-0.14525,0.03483
2025-11-25T07:15:53.653846,0.16642,-0.02599,-9.66268,0.08329,-0.01957,0.06031
2025-11-25T07:15:53.663462,0.19457,-0.11469,-9.67206,0.17941,0.02272,0.02207
2025-11-25T07:15:53.673077,0.18010,-0.08037,-9.65358,0.07268,0.13780,0.03640
2025-11-25T07:15:53.682692,0.13920,-0.07618,-9.57649,0.05279,-0.04573,-0.01334
2025-11-25T07:15:53.692308,0.18896,-0.06541,-9.69089,0.10672,0.05502,0.06570
2025-11-25T07:15:53.701923,0.12553,-0.12640,-9.63916,0.10230,0.12767,0.05954
2025-11-25T07:15:53.711538,0.13398,-0.09062,-9.61408,0.11189,0.09844,0.11071
2025-11-25T07:15:53.721154,0.10077,-0.04446,-9.65706,0.08267,0.01247,0.06285
2025-11-25T07:15:53.730769,0.12497,-0.12681,-9.54327,0.11337,0.06278,-0.00356
2025-11-25T07:15:53.740385,0.13642,-0.05112,-9.59483,0.06850,0.10976,0.03327
2025-11-25T07:15:53.75,0.16706,-0.19798,-9.54431,0.02157,0.00967,-0.02329
2025-11-25T07:15:53.759615,0.14054,-0.04644,-9.60654,-0.02520,-0.01254,0.10014
2025-11-25T07:15:53.769231,0.15394,-0.16843,-9.62269,0.08077,0.04578,0.04494
2025-11-25T07:15:53.778846,0.10405,-0.13080,-9.63746,0.18438,0.05525,-0.00817
2025-11-25T07:15:53.788462,0.09188,-0.11666,-9.51794,-0.00847,-0.02608,0.06143
2025-11-25T07:15:53.798077,0.09370,-0.13732,-9.53357,0.16663,0.13097,0.09391
2025-11-25T07:15:53.807692,0.19909,-0.10480,-9.54032,0.29098,0.04747,0.05994
2025-11-25T07:15:53.817308,0.12603,-0.17913,-9.51519,0.03916,0.22889,0.09255
2025-11-25T07:15:53.826923,0.07635,-0.12383,-9.44035,0.07136,0.12503,0.03253
2025-11-25T07:15:53.836538,0.13564,-0.11580,-9.48802,0.12267,-0.00965,0.01288
2025-11-25T07:15:53.846154,0.12250,-0.09617,-9.43342,0.17846,0.12920,0.03710
2025-11-25T07:15:53.855769,0.14630,-0.16567,-9.56475,0.07644,0.19717,0.02538
2025-11-25T07:15:53.865385,0.15069,-0.18738,-9.40984,0.17064,0.22178,0.16385
2025-11-25T07:15:53.875,0.09236,-0.13913,-9.55507,0.04114,0.14650,0.08826
2025-11-25T07:15:53.884615,0.09572,-0.14635,-9.45526,0.10024,0.05436,0.12440
2025-11-25T07:15:53.894231,0.10305,-0.13728,-9.50388,0.18333,0.15326,0.02350
2025-11-25T07:15:53.903846,0.11103,-0.18970,-9.47165,0.02867,0.05672,0.03950
2025-11-25T07:15:53.913462,0.13892,-0.14228,-9.48028,0.07619,0.27900,0.03766
2025-11-25T07:15:53.923077,0.08648,-0.20701,-9.43767,-0.08774,0.08555,0.03423
2025-11-25T07:15:53.932692,0.13887,-0.11367,-9.41639,0.03134,0.14806,0.06289
2025-11-25T07:15:53.942308,0.13566,-0.15053,-9.40365,0.08061,0.05332,0.07307
2025-11-25T07:15:53.951923,0.07401,-0.19792,-9.45545,0.12540,0.03112,0.05671
2025-11-25T07:15:53.961538,0.09166,-0.19945,-9.44672,0.12225,0.22527,0.07805
2025-11-25T07:15:53.971154,0.09403,-0.20690,-9.43884,-0.05280,0.14886,0.01047
2025-11-25T07:15:53.980769,0.07751,-0.22520,-9.36478,0.07672,0.22349,0.02771
2025-11-25T07:15:53.990385,0.11514,-0.16497,-9.40517,0.12506,0.19967,0.02612
2025-11-25T07:15:54,0.09037,-0.21662,-9.40835,0.04359,0.10818,0.09969
2025-11-25T07:15:54.009615,0.10648,-0.19751,-9.36250,0.20412,-0.10902,0.00539
2025-11-25T07:15:54.019231,0.05563,-0.20585,-9.40356,0.05765,0.11077,0.04402
2025-11-25T07:15:54.028846,0.07920,-0.19294,-9.42296,0.02474,0.14113,0.06011
2025-11-25T07:15:54.038462,0.02716,-0.15811,-9.37005,-0.01718,0.23646,0.08711
2025-11-25T07:15:54.048077,0.10177,-0.15784,-9.32506,-0.02261,0.05076,0.06122
2025-11-25T07:15:54.057692,0.10493,-0.18320,-9.28530,0.09638,0.06171,0.13639
2025-11-25T07:15:54.067308,0.09860,-0.21252,-9.41522,0.08947,0.10242,0.02399
2025-11-25T07:15:54.076923,0.05396,-0.22657,-9.27081,-0.02291,0.19593,0.07681
2025-11-25T07:15:54.086538,0.04607,-0.26528,-9.39886,0.04732,0.07032,0.00867
2025-11-25T07:15:54.096154,0.03116,-0.24620,-9.38127,0.06090,0.13116,0.10219
2025-11-25T07:15:54.105769,0.02537,-0.19506,-9.42802,0.07942,0.14124,0.06330
2025-11-25T07:15:54.115385,0.09532,-0.18891,-9.36010,-0.01470,0.16244,0.02774
2025-11-25T07:15:54.125,0.06464,-0.18782,-9.29310,0.05899,0.06704,0.13500
2025-11-25T07:15:54.134615,0.05491,-0.27669,-9.39381,0.02789,0.19088,0.03512
2025-11-25T07:15:54.144231,0.04883,-0.21457,-9.29573,0.02016,0.18675,0.05688
2025-11-25T07:15:54.153846,0.09790,-0.22409,-9.39518,0.12204,0.17148,0.05129
2025-11-25T07:15:54.163462,0.04146,-0.25626,-9.37360,0.06172,0.20664,0.08056
2025-11-25T07:15:54.173077,0.08031,-0.25585,-9.31598,-0.04387,0.18230,0.01711
2025-11-25T07:15:54.182692,0.07316,-0.26092,-9.34812,0.02511,0.12803,-0.02653
2025-11-25T07:15:54.192308,0.02394,-0.21694,-9.36580,-0.06887,0.23035,0.04771
2025-11-25T07:15:54.201923,0.02186,-0.24884,-9.27143,-0.01670,0.21904,0.07745
2025-11-25T07:15:54.211538,0.08959,-0.23284,-9.24113,0.03061,0.19049,0.04176
2025-11-25T07:15:54.221154,0.08187,-0.27534,-9.28773,-0.02366,0.22306,0.18952
2025-11-25T07:15:54.230769,0.02816,-0.23934,-9.36211,0.01033,0.13784,0.01020
2025-11-25T07:15:54.240385,0.07494,-0.18942,-9.31337,0.07582,0.18324,0.01498
2025-11-25T07:15:54.25,0.01961,-0.21787,-9.31478,0.01606,0.30176,0.02474
2025-11-25T07:15:54.259615,0.01952,-0.26784,-9.33034,0.05631,0.01542,-0.03565
2025-11-25T07:15:54.269231,0.01464,-0.25700,-9.32657,0.05566,0.24129,0.04490
2025-11-25T07:15:54.278846,0.00522,-0.24433,-9.42677,-0.05266,0.19038,0.08617
2025-11-25T07:15:54.288462,-0.02794,-0.26942,-9.42926,-0.03718,0.06227,0.06166
2025-11-25T07:15:54.298077,0.02423,-0.29364,-9.41732,-0.07128,0.25043,-0.01386
2025-11-25T07:15:54.307692,0.01381,-0.23094,-9.30635,-0.03541,0.19250,0.06462
2025-11-25T07:15:54.317308,0.01971,-0.29346,-9.39533,0.08293,0.16910,-0.05571
2025-11-25T07:15:54.326923,-0.03004,-0.23581,-9.37952,-0.08703,0.17257,0.03503
2025-11-25T07:15:54.336538,0.03560,-0.22610,-9.43064,-0.03893,0.13306,0.02560
2025-11-25T07:15:54.346154,-0.01660,-0.22340,-9.46021,-0.10869,0.22361,0.00159
2025-11-25T07:15:54.355769,0.03044,-0.23453,-9.33444,-0.09950,0.15051,-0.00938
2025-11-25T07:15:54.365385,-0.03428,-0.27258,-9.45191,-0.08004,0.13538,-0.02462
2025-11-25T07:15:54.375,-0.00297,-0.27063,-9.37009,-0.08942,0.15745,0.01182
2025-11-25T07:15:54.384615,-0.05028,-0.22273,-9.48120,-0.12534,0.25642,-0.03731
2025-11-25T07:15:54.394231,0.01431,-0.21025,-9.50162,-0.07357,0.33935,0.11129
2025-11-25T07:15:54.403846,-0.10491,-0.22293,-9.35133,-0.13545,0.27356,0.04662
2025-11-25T07:15:54.413462,-0.06417,-0.25374,-9.42121,-0.00380,0.21130,-0.04864
2025-11-25T07:15:54.423077,-0.01620,-0.11699,-9.37174,-0.22440,-0.02720,0.10289
2025-11-25T07:15:54.432692,-0.04805,-0.30950,-9.31309,-0.11378,0.15662,-0.03112
2025-11-25T07:15:54.442308,-0.07238,-0.20096,-9.41507,-0.12414,0.13259,-0.02355
2025-11-25T07:15:54.451923,-0.04551,-0.19281,-9.45752,-0.11290,0.19032,-0.01829
2025-11-25T07:15:54.461538,-0.05999,-0.25058,-9.42456,-0.02490,0.15049,-0.03102
2025-11-25T07:15:54.471154,-0.09477,-0.19678,-9.39857,-0.13935,0.09130,-0.00039
2025-11-25T07:15:54.480769,-0.05276,-0.19755,-9.45715,-0.15803,0.09714,0.06025
2025-11-25T07:15:54.490385,-0.12895,-0.22802,-9.39656,-0.07504,0.11928,-0.02505
2025-11-25T07:15:54.5,-0.06965,-0.22787,-9.41160,-0.00508,0.17242,-0.07760
2025-11-25T07:15:54.509615,-0.08681,-0.22926,-9.47007,-0.29919,0.21983,-0.05386
2025-11-25T07:15:54.519231,-0.06640,-0.18953,-9.48170,-0.10650,0.15451,-0.00332
2025-11-25T07:15:54.528846,-0.06210,-0.25046,-9.50050,-0.08277,0.10336,-0.01164
2025-11-25T07:15:54.538462,-0.08454,-0.15091,-9.42377,0.00897,0.13465,-0.07471
2025-11-25T07:15:54.548077,-0.10761,-0.17617,-9.50795,-0.13359,0.14306,0.02647
2025-11-25T07:15:54.557692,-0.06855,-0.12722,-9.45356,-0.14141,0.10190,-0.06116
2025-11-25T07:15:54.567308,-0.06997,-0.19898,-9.43312,-0.10174,0.19514,-0.09453
2025-11-25T07:15:54.576923,-0.13597,-0.25491,-9.41243,-0.15055,0.17480,-0.01901
2025-11-25T07:15:54.586538,-0.07074,-0.20329,-9.56143,-0.13059,0.11619,-0.03528
2025-11-25T07:15:54.596154,-0.12666,-0.23897,-9.52291,-0.16636,0.21915,-0.11128
2025-11-25T07:15:54.605769,-0.08433,-0.15200,-9.52434,-0.14077,0.18981,-0.10812
2025-11-25T07:15:54.615385,-0.11085,-0.14497,-9.46047,-0.21972,0.22250,-0.09536
2025-11-25T07:15:54.625,-0.07723,-0.18105,-9.58026,-0.11324,0.06946,-0.08552
2025-11-25T07:15:54.634615,-0.08653,-0.19089,-9.51156,-0.11911,0.05726,-0.06879
2025-11-25T07:15:54.644231,-0.09497,-0.14550,-9.54125,-0.24415,0.11233,-0.02343
2025-11-25T07:15:54.653846,-0.10527,-0.18272,-9.56808,-0.22945,0.08986,-0.06724
2025-11-25T07:15:54.663462,-0.11270,-0.11969,-9.47142,-0.19488,0.09998,-0.05309
2025-11-25T07:15:54.673077,-0.11362,-0.17742,-9.61992,-0.24195,0.11436,-0.04811
2025-11-25T07:15:54.682692,-0.07884,-0.15691,-9.64528,-0.12671,0.18752,0.06296
2025-11-25T07:15:54.692308,-0.17506,-0.16493,-9.53333,-0.15585,-0.00422,-0.08292
2025-11-25T07:15:54.701923,-0.13492,-0.11691,-9.54165,-0.04606,0.05457,-0.08293
2025-11-25T07:15:54.711538,-0.16298,-0.11308,-9.71844,-0.05958,0.13269,-0.14876
2025-11-25T07:15:54.721154,-0.15194,-0.12951,-9.65934,-0.13531,0.18825,-0.07784
2025-11-25T07:15:54.730769,-0.11070,-0.12696,-9.63925,-0.04603,0.19985,-0.08609
2025-11-25T07:15:54.740385,-0.13901,-0.11007,-9.62292,-0.13414,0.25635,-0.01431
2025-11-25T07:15:54.75,-0.18327,-0.13081,-9.67372,-0.27571,0.14901,-0.07032
2025-11-25T07:15:54.759615,-0.13641,-0.24721,-9.71703,-0.25182,0.17601,-0.13249
2025-11-25T07:15:54.769231,-0.17140,-0.14441,-9.63984,-0.10517,0.03320,-0.12170
2025-11-25T07:15:54.778846,-0.13527,-0.22506,-9.71789,-0.10740,0.10903,-0.07052
2025-11-25T07:15:54.788462,-0.14568,-0.15491,-9.69183,-0.20181,0.13215,-0.06955
2025-11-25T07:15:54.798077,-0.12177,-0.11263,-9.66161,-0.21142,0.11917,-0.17729
2025-11-25T07:15:54.807692,-0.17521,-0.06791,-9.67957,-0.27307,0.11194,-0.08725
2025-11-25T07:15:54.817308,-0.13411,-0.06476,-9.73387,-0.18968,0.17721,0.01359
2025-11-25T07:15:54.826923,-0.07549,-0.11569,-9.70699,-0.12313,0.11459,-0.15445
2025-11-25T07:15:54.836538,-0.11674,-0.06853,-9.75892,-0.22257,0.14535,-0.08664
2025-11-25T07:15:54.846154,-0.17740,-0.11435,-9.77289,-0.15614,0.05369,-0.02492
2025-11-25T07:15:54.855769,-0.13542,-0.17296,-9.81115,-0.13881,0.17593,-0.09865
2025-11-25T07:15:54.865385,-0.13994,-0.06191,-9.69589,-0.28731,0.16415,-0.03818
2025-11-25T07:15:54.875,-0.15285,-0.14842,-9.83813,-0.29686,0.00172,-0.10355
2025-11-25T07:15:54.884615,-0.14930,-0.20849,-9.75424,-0.23206,0.05096,-0.06140
2025-11-25T07:15:54.894231,-0.07669,-0.04198,-9.84891,-0.16672,0.05904,-0.09850
2025-11-25T07:15:54.903846,-0.18927,-0.09366,-9.90981,-0.16289,0.15633,-0.17268
2025-11-25T07:15:54.913462,-0.18187,-0.09026,-9.85767,-0.23541,0.11329,-0.05686
2025-11-25T07:15:54.923077,-0.15662,-0.08451,-9.84765,-0.23621,0.04215,-0.03286
2025-11-25T07:15:54.932692,-0.15612,-0.09914,-9.85808,-0.25867,0.03130,0.05950
2025-11-25T07:15:54.942308,-0.14450,-0.06997,-9.83499,-0.11130,0.08713,-0.13508
2025-11-25T07:15:54.951923,-0.17075,-0.03687,-9.84574,-0.21316,-0.05731,-0.08471
2025-11-25T07:15:54.961538,-0.17401,-0.04234,-9.85942,-0.26830,-0.04642,-0.03997
2025-11-25T07:15:54.971154,-0.21139,-0.01557,-10.03389,-0.28405,-0.00935,-0.15388
2025-11-25T07:15:54.980769,-0.14613,0.01626,-9.93275,-0.23295,-0.01330,-0.18159
2025-11-25T07:15:54.990385,-0.14690,-0.08593,-9.94041,-0.19523,-0.01856,-0.06997
2025-11-25T07:15:55,-0.23531,-0.02618,-9.89936,-0.24629,0.15060,-0.16618
2025-11-25T07:15:55.009615,-0.12974,-0.01609,-9.99484,-0.32990,-0.05180,-0.10933
2025-11-25T07:15:55.019231,-0.15519,-0.02327,-9.91274,-0.12835,-0.01610,-0.12868
2025-11-25T07:15:55.028846,-0.15942,0.00785,-9.91081,-0.11075,-0.19331,-0.09441
2025-11-25T07:15:55.038462,-0.21229,-0.03028,-9.90918,-0.19786,-0.05902,-0.03419
2025-11-25T07:15:55.048077,-0.17224,-0.03647,-9.90628,-0.31184,-0.05196,-0.12880
2025-11-25T07:15:55.057692,-0.17137,0.04876,-9.90410,-0.20586,0.07375,-0.15512
2025-11-25T07:15:55.067308,-0.18275,0.02825,-9.97377,-0.27049,0.00136,-0.08056
2025-11-25T07:15:55.076923,-0.15493,-0.00469,-9.97523,-0.19328,0.08226,-0.12218
2025-11-25T07:15:55.086538,-0.13790,-0.00302,-10.04071,-0.28373,0.02611,-0.10263
2025-11-25T07:15:55.096154,-0.12171,0.06020,-10.05194,-0.32432,0.05124,-0.21866
2025-11-25T07:15:55.105769,-0.12002,0.06754,-10.08949,-0.15036,-0.04617,-0.06208
2025-11-25T07:15:55.115385,-0.10617,0.01789,-10.06284,-0.18957,-0.07356,-0.09055
2025-11-25T07:15:55.125,-0.10154,0.12451,-10.16838,-0.14969,-0.09200,-0.20088
2025-11-25T07:15:55.134615,-0.16622,-0.02955,-9.99946,-0.21637,-0.02799,-0.12065
2025-11-25T07:15:55.144231,-0.13894,0.04805,-10.04806,-0.17525,-0.19365,-0.13038
2025-11-25T07:15:55.153846,-0.20069,0.07820,-9.93644,-0.15236,-0.04117,-0.07441
2025-11-25T07:15:55.163462,-0.11664,0.04640,-10.02093,-0.22385,-0.15292,-0.08593
2025-11-25T07:15:55.173077,-0.16318,-0.01826,-10.02742,-0.26858,0.08763,-0.12982
2025-11-25T07:15:55.182692,-0.16484,0.07225,-10.16964,-0.36378,-0.16818,-0.08038
2025-11-25T07:15:55.192308,-0.12630,0.09677,-10.11866,-0.23687,0.00612,-0.19757
2025-11-25T07:15:55.201923,-0.11085,0.09833,-10.07000,-0.22970,-0.08722,-0.16380
2025-11-25T07:15:55.211538,-0.10109,0.12579,-10.14393,-0.12712,-0.11370,-0.14875
2025-11-25T07:15:55.221154,-0.16553,0.05351,-10.17184,-0.03630,-0.06944,-0.04046
2025-11-25T07:15:55.230769,-0.18284,0.07919,-10.17350,-0.12008,0.06301,-0.11542
2025-11-25T07:15:55.240385,-0.10215,0.10451,-10.14338,-0.13723,-0.10370,-0.05775
2025-11-25T07:15:55.25,-0.09048,0.06266,-10.19317,-0.10138,-0.09144,-0.00544
2025-11-25T07:15:55.259615,-0.10340,0.09088,-10.11791,-0.27019,-0.03310,-0.12540
2025-11-25T07:15:55.269231,-0.10272,0.12110,-10.08929,-0.20713,-0.08982,-0.05476
2025-11-25T07:15:55.278846,-0.09674,0.13004,-10.14300,-0.12750,-0.16188,-0.14846
2025-11-25T07:15:55.288462,-0.14226,0.19904,-10.19531,-0.16081,-0.16783,-0.05152
2025-11-25T07:15:55.298077,-0.15077,0.15686,-10.21912,-0.11750,-0.12434,-0.15655
2025-11-25T07:15:55.307692,-0.08960,0.09318,-10.21757,-0.21231,-0.04618,-0.11589
2025-11-25T07:15:55.317308,-0.08087,0.08909,-10.30779,-0.13787,-0.11744,-0.05742
2025-11-25T07:15:55.326923,-0.12599,0.11892,-10.21315,-0.20954,-0.24140,-0.16001
2025-11-25T07:15:55.336538,-0.10312,0.08889,-10.14780,-0.11722,-0.32945,-0.12408
2025-11-25T07:15:55.346154,-0.09010,0.13631,-10.24324,-0.28433,-0.06123,-0.10031
2025-11-25T07:15:55.355769,-0.05053,0.15646,-10.25441,-0.14576,-0.20681,-0.14909
2025-11-25T07:15:55.365385,-0.13484,0.06924,-10.14729,0.00419,-0.11250,-0.09091
2025-11-25T07:15:55.375,-0.10728,0.15284,-10.20989,-0.04083,-0.21297,-0.13937
2025-11-25T07:15:55.384615,-0.07303,0.10544,-10.26042,-0.01097,-0.16351,-0.15901
2025-11-25T07:15:55.394231,-0.06391,0.12820,-10.20016,-0.28004,-0.03992,-0.06344
2025-11-25T07:15:55.403846,-0.03648,0.12303,-10.30044,-0.11510,-0.04818,-0.08808
2025-11-25T07:15:55.413462,-0.04932,0.13922,-10.32661,-0.22688,-0.15872,-0.12946
2025-11-25T07:15:55.423077,-0.10965,0.18975,-10.23573,-0.10299,-0.11240,-0.11357
2025-11-25T07:15:55.432692,-0.10007,0.16285,-10.22238,-0.11878,-0.20681,-0.05324
2025-11-25T07:15:55.442308,-0.03216,0.06542,-10.28596,-0.11617,-0.25883,-0.09405
2025-11-25T07:15:55.451923,-0.05051,0.13420,-10.25645,-0.17859,-0.06641,-0.01308
2025-11-25T07:15:55.461538,-0.02770,0.20732,-10.31413,-0.05124,-0.20518,-0.12268
2025-11-25T07:15:55.471154,-0.02394,0.07623,-10.28438,0.03585,-0.19379,0.00261
2025-11-25T07:15:55.480769,-0.00307,0.16799,-10.29337,-0.16800,-0.00183,-0.19126
2025-11-25T07:15:55.490385,-0.05380,0.13203,-10.16453,-0.12725,-0.17273,-0.08763
2025-11-25T07:15:55.5,-0.01187,0.14241,-10.21151,-0.17000,-0.15024,-0.03952
2025-11-25T07:15:55.509615,-0.01141,0.12958,-10.24512,-0.11735,-0.20145,-0.08403
2025-11-25T07:15:55.519231,-0.00064,0.13157,-10.23207,-0.14645,-0.03918,-0.07925
2025-11-25T07:15:55.528846,-0.03451,0.09894,-10.22895,-0.11003,-0.23253,-0.16394
2025-11-25T07:15:55.538462,-0.04533,0.09562,-10.21651,0.01893,0.00191,-0.08879
2025-11-25T07:15:55.548077,-0.03708,0.13132,-10.30603,0.07178,-0.20681,-0.06211
2025-11-25T07:15:55.557692,0.01889,0.14840,-10.25113,-0.00418,-0.23587,0.00429
2025-11-25T07:15:55.567308,-0.05724,0.13867,-10.16029,-0.07105,-0.23604,-0.04084
2025-11-25T07:15:55.576923,-0.02956,0.18784,-10.21616,-0.18706,-0.13202,-0.15463
2025-11-25T07:15:55.586538,0.03116,0.15588,-10.24542,-0.00168,-0.07250,-0.02756
2025-11-25T07:15:55.596154,0.00063,0.16894,-10.27211,-0.07393,-0.20237,-0.01391
2025-11-25T07:15:55.605769,0.01639,0.16416,-10.22761,-0.03446,-0.15612,0.03925
2025-11-25T07:15:55.615385,0.02787,0.10348,-10.30411,-0.13757,-0.12040,-0.07544
2025-11-25T07:15:55.625,0.07799,0.18947,-10.21931,-0.06343,-0.24021,-0.02052
2025-11-25T07:15:55.634615,0.02432,0.16327,-10.25408,-0.01918,-0.25964,0.00573
2025-11-25T07:15:55.644231,0.02251,0.16495,-10.22101,-0.12199,-0.08169,0.05771
2025-11-25T07:15:55.653846,0.05402,0.21309,-10.19920,-0.01409,-0.00723,0.06481
2025-11-25T07:15:55.663462,0.05728,0.20256,-10.24482,0.16952,-0.10334,-0.10370
2025-11-25T07:15:55.673077,0.04804,0.11708,-10.19738,-0.04930,-0.08646,0.01606
2025-11-25T07:15:55.682692,0.10537,0.25395,-10.24309,-0.04862,-0.16212,-0.05992
2025-11-25T07:15:55.692308,0.03769,0.16680,-10.17416,-0.09017,-0.22777,-0.00981
2025-11-25T07:15:55.701923,0.00524,0.18301,-10.15342,0.08002,-0.14719,-0.05283
2025-11-25T07:15:55.711538,0.06155,0.19791,-10.17308,0.05783,0.00947,-0.01472
2025-11-25T07:15:55.721154,0.06687,0.17617,-10.13069,0.11307,-0.09076,-0.09019
2025-11-25T07:15:55.730769,0.05936,0.14549,-10.14771,0.08164,-0.13053,0.02002
2025-11-25T07:15:55.740385,0.07313,0.14266,-10.14276,0.00954,-0.17896,-0.01612
2025-11-25T07:15:55.75,0.07867,0.11162,-10.12069,0.15037,-0.07533,0.05021
2025-11-25T07:15:55.759615,0.04077,0.10636,-10.23289,0.00975,-0.12404,-0.01264
2025-11-25T07:15:55.769231,0.05262,0.18260,-10.14668,0.13506,-0.29867,0.01756
2025-11-25T07:15:55.778846,0.02546,0.12505,-10.12225,0.02914,-0.12465,-0.02182
2025-11-25T07:15:55.788462,0.08484,0.23520,-10.13878,0.04466,-0.15232,-0.03113
2025-11-25T07:15:55.798077,0.16059,0.15933,-10.12446,-0.05457,-0.08042,0.03525
2025-11-25T07:15:55.807692,0.08270,0.10450,-10.07343,0.09748,-0.11659,0.09393
2025-11-25T07:15:55.817308,0.10671,0.03425,-10.04389,0.02388,-0.18765,0.04653
2025-11-25T07:15:55.826923,0.05473,0.09393,-9.97781,-0.05295,-0.21426,0.00007
2025-11-25T07:15:55.836538,0.10459,0.12490,-10.09360,0.12550,-0.29320,0.05293
2025-11-25T07:15:55.846154,0.04003,0.15799,-10.07605,0.04060,-0.14276,0.02840
2025-11-25T07:15:55.855769,0.07463,0.02265,-10.13071,0.07774,-0.25542,0.11402
2025-11-25T07:15:55.865385,0.09083,0.11173,-10.01784,0.14513,-0.12290,0.01142
2025-11-25T07:15:55.875,0.09864,0.06799,-10.05528,0.05766,-0.13508,0.03075
2025-11-25T07:15:55.884615,0.13031,0.08051,-9.93954,0.08156,-0.03507,0.04607
2025-11-25T07:15:55.894231,0.09439,0.08258,-9.94749,0.28653,-0.06178,0.08388
2025-11-25T07:15:55.903846,0.08790,0.08414,-9.88253,0.08310,-0.22354,0.06645
2025-11-25T07:15:55.913462,0.13584,0.04554,-10.01727,0.07736,-0.20103,0.02989
2025-11-25T07:15:55.923077,0.11948,0.09763,-10.10098,0.10465,-0.11100,0.08081
2025-11-25T07:15:55.932692,0.12486,0.05626,-9.95914,0.14005,-0.05790,0.08661
2025-11-25T07:15:55.942308,0.10251,0.06033,-9.97637,0.10723,-0.05162,0.11655
2025-11-25T07:15:55.951923,0.09272,-0.01002,-10.03866,0.14311,-0.12226,0.13283
2025-11-25T07:15:55.961538,0.13206,0.02086,-9.91874,0.11520,0.04998,0.08681
2025-11-25T07:15:55.971154,0.13212,0.09143,-9.91003,0.20478,-0.04638,0.10833
2025-11-25T07:15:55.980769,0.16414,0.01071,-9.96021,0.29037,-0.17235,0.21048
2025-11-25T07:15:55.990385,0.07734,0.07121,-9.89530,0.09926,0.05340,0.15125
2025-11-25T07:15:56,0.12607,0.04711,-9.89028,0.14836,0.01569,0.09061
2025-11-25T07:15:56.009615,0.14209,-0.02143,-9.85541,0.22013,0.05074,0.11317
2025-11-25T07:15:56.019231,0.07417,0.02104,-9.90687,0.10981,-0.03388,0.11872
2025-11-25T07:15:56.028846,0.17165,0.03805,-9.84246,0.08501,-0.01999,0.09732
2025-11-25T07:15:56.038462,0.13537,-0.05331,-9.77916,0.11364,-0.00409,0.10678
2025-11-25T07:15:56.048077,0.11588,-0.05002,-9.72871,0.10009,0.10161,0.09410
2025-11-25T07:15:56.057692,0.13867,0.05251,-9.80316,0.23800,-0.06332,0.11920
2025-11-25T07:15:56.067308,0.12766,-0.02365,-9.86644,0.05161,0.02497,0.13734
2025-11-25T07:15:56.076923,0.13135,-0.07175,-9.80281,0.14517,0.00791,0.07457
2025-11-25T07:15:56.086538,0.16526,0.03839,-9.89432,0.08023,-0.03023,0.08226
2025-11-25T07:15:56.096154,0.16700,-0.02600,-9.71781,0.17026,0.03446,0.13742
2025-11-25T07:15:56.105769,0.09960,-0.03224,-9.83137,0.23594,0.10959,0.15576
2025-11-25T07:15:56.115385,0.10518,-0.07779,-9.77876,0.16963,0.08343,0.14868
2025-11-25T07:15:56.125,0.10015,-0.00995,-9.77687,0.15848,0.09613,0.13929
2025-11-25T07:15:56.134615,0.15314,-0.01928,-9.69018,0.08757,0.21656,0.17532
2025-11-25T07:15:56.144231,0.15737,-0.01446,-9.64745,0.12858,0.09682,0.11705
2025-11-25T07:15:56.153846,0.11197,-0.06962,-9.73547,0.19931,0.04803,0.15694
2025-11-25T07:15:56.163462,0.17393,-0.03410,-9.69521,0.09526,0.09871,0.14420
2025-11-25T07:15:56.173077,0.19971,-0.09695,-9.63232,0.15733,0.09546,0.12569
2025-11-25T07:15:56.182692,0.16080,-0.10518,-9.68661,0.15159,0.09127,0.05608
2025-11-25T07:15:56.192308,0.12185,-0.04753,-9.71470,0.11581,0.01999,0.17397
2025-11-25T07:15:56.201923,0.18792,-0.08460,-9.61266,0.29383,0.12074,0.26212
2025-11-25T07:15:56.211538,0.15573,-0.12723,-9.64420,0.18220,0.20760,0.13199
2025-11-25T07:15:56.221154,0.11138,-0.01023,-9.63068,-0.02104,0.02343,0.14855
2025-11-25T07:15:56.230769,0.16534,-0.12685,-9.56766,0.12146,0.09368,0.20771
2025-11-25T07:15:56.240385,0.15677,-0.17503,-9.50828,0.17114,0.01935,-0.00180
2025-11-25T07:15:56.25,0.15697,-0.14907,-9.54866,0.17001,0.18978,0.14114
2025-11-25T07:15:56.259615,0.12484,-0.19197,-9.60415,0.06494,0.24534,0.18479
2025-11-25T07:15:56.269231,0.14859,-0.14426,-9.45949,0.16983,0.23598,0.11665
2025-11-25T07:15:56.278846,0.07189,-0.11747,-9.46173,0.01566,0.12340,0.17295
2025-11-25T07:15:56.288462,0.14338,-0.11797,-9.45887,0.11910,0.08265,0.20258
2025-11-25T07:15:56.298077,0.10689,-0.09569,-9.50247,0.07373,0.20224,0.18926
2025-11-25T07:15:56.307692,0.10000,-0.14492,-9.48408,0.24497,0.15436,0.17621
2025-11-25T07:15:56.317308,0.15676,-0.17054,-9.55091,0.19810,0.17070,0.15568
2025-11-25T07:15:56.326923,0.12905,-0.18660,-9.46535,0.08008,0.19497,0.13064
2025-11-25T07:15:56.336538,0.16174,-0.15065,-9.48558,0.17851,0.15601,0.13065
2025-11-25T07:15:56.346154,0.11853,-0.21508,-9.47282,0.16046,0.20833,0.10542
2025-11-25T07:15:56.355769,0.10612,-0.09764,-9.49041,0.12301,0.17530,0.20441
2025-11-25T07:15:56.365385,0.06035,-0.15128,-9.47761,0.12702,0.31880,0.14205
2025-11-25T07:15:56.375,0.13330,-0.19150,-9.45639,0.06239,0.19653,0.28795
2025-11-25T07:15:56.384615,0.14397,-0.20088,-9.43409,0.05376,0.16759,0.18951
2025-11-25T07:15:56.394231,0.11576,-0.12518,-9.43233,0.05947,0.21883,0.16441
2025-11-25T07:15:56.403846,0.10190,-0.27384,-9.41079,0.18295,0.20894,0.13550
2025-11-25T07:15:56.413462,0.07977,-0.22270,-9.45354,-0.00177,0.17990,0.15068
2025-11-25T07:15:56.423077,0.14533,-0.20700,-9.46649,0.10213,0.15539,0.11429
2025-11-25T07:15:56.432692,0.05661,-0.21870,-9.43421,0.13529,0.12191,0.13109
2025-11-25T07:15:56.442308,0.06289,-0.18332,-9.47826,0.10821,0.23986,0.12896
2025-11-25T07:15:56.451923,0.03384,-0.28464,-9.31480,-0.00270,0.17962,0.07766
2025-11-25T07:15:56.461538,0.08625,-0.24753,-9.41000,0.07341,0.10416,0.09616
2025-11-25T07:15:56.471154,0.08469,-0.23799,-9.32917,0.00481,0.25700,0.17633
2025-11-25T07:15:56.480769,0.06770,-0.19115,-9.32817,0.02338,0.40734,0.19811
2025-11-25T07:15:56.490385,0.09580,-0.22734,-9.35935,0.06624,0.15978,0.19248
2025-11-25T07:15:56.5,0.04922,-0.30272,-9.32079,0.03140,0.16341,0.18120
2025-11-25T07:15:56.509615,0.04954,-0.24630,-9.34166,0.13683,0.29780,0.15293
2025-11-25T07:15:56.519231,0.02264,-0.22805,-9.35075,0.02597,0.31081,0.05850
2025-11-25T07:15:56.528846,0.08497,-0.32143,-9.40069,-0.00314,0.12627,0.15412
2025-11-25T07:15:56.538462,0.03496,-0.22751,-9.38415,-0.00353,0.11742,0.17798
2025-11-25T07:15:56.548077,0.02827,-0.17034,-9.45277,-0.03502,0.28429,-0.03934
2025-11-25T07:15:56.557692,0.06782,-0.22548,-9.39561,-0.05310,0.20700,0.17548
2025-11-25T07:15:56.567308,0.01457,-0.31616,-9.27850,0.06019,0.25428,0.01456
2025-11-25T07:15:56.576923,0.01807,-0.21345,-9.34415,-0.07051,0.30804,0.05258
2025-11-25T07:15:56.586538,0.05126,-0.28675,-9.34468,-0.04163,0.23870,0.12066
2025-11-25T07:15:56.596154,-0.00046,-0.22740,-9.33207,0.00162,0.25776,0.09375
2025-11-25T07:15:56.605769,0.02893,-0.15461,-9.30070,-0.00457,0.37447,0.12081
2025-11-25T07:15:56.615385,-0.01676,-0.22689,-9.42986,-0.15426,0.18814,0.15003
2025-11-25T07:15:56.625,-0.02559,-0.21813,-9.37806,0.07915,0.24620,0.11756
2025-11-25T07:15:56.634615,0.05060,-0.19111,-9.31714,-0.06717,0.25806,0.09233
2025-11-25T07:15:56.644231,-0.00620,-0.24961,-9.36086,-0.06774,0.32947,0.02297
2025-11-25T07:15:56.653846,0.01458,-0.26943,-9.38194,-0.04125,0.37245,0.13807
2025-11-25T07:15:56.663462,-0.01346,-0.27106,-9.27242,-0.06892,0.38018,0.11497
2025-11-25T07:15:56.673077,-0.03307,-0.20034,-9.28065,-0.11544,0.25951,0.09696
2025-11-25T07:15:56.682692,-0.03429,-0.29507,-9.39925,-0.10001,0.23143,0.02439
2025-11-25T07:15:56.692308,-0.04932,-0.30501,-9.38736,-0.10253,0.12535,0.12006
2025-11-25T07:15:56.701923,-0.01801,-0.30578,-9.46460,0.04598,0.36581,0.08634
2025-11-25T07:15:56.711538,-0.02729,-0.26401,-9.45614,-0.20738,0.34347,0.09172
2025-11-25T07:15:56.721154,-0.03904,-0.28459,-9.45465,-0.06183,0.27742,0.01779
2025-11-25T07:15:56.730769,-0.03682,-0.29916,-9.43819,-0.11109,0.10452,0.04247
2025-11-25T07:15:56.740385,-0.06248,-0.29302,-9.40441,-0.08487,0.39365,0.12307
2025-11-25T07:15:56.75,-0.05410,-0.20252,-9.43067,-0.10795,0.12713,0.08441
2025-11-25T07:15:56.759615,-0.03367,-0.17706,-9.35256,-0.25213,0.29279,-0.05614
2025-11-25T07:15:56.769231,-0.03973,-0.17601,-9.44149,-0.08793,0.14807,-0.01681
2025-11-25T07:15:56.778846,-0.00018,-0.25173,-9.43182,-0.09067,0.12950,0.12209
2025-11-25T07:15:56.788462,-0.09069,-0.16603,-9.43954,0.01038,0.21437,-0.02310
2025-11-25T07:15:56.798077,-0.05337,-0.25065,-9.44280,-0.19424,0.19874,0.02418
2025-11-25T07:15:56.807692,-0.09600,-0.24016,-9.43175,-0.17723,0.30470,0.02005
2025-11-25T07:15:56.817308,-0.10837,-0.22360,-9.45267,-0.18316,0.29981,-0.07695
2025-11-25T07:15:56.826923,-0.07325,-0.27766,-9.48189,-0.19783,0.25063,-0.01769
2025-11-25T07:15:56.836538,-0.07063,-0.20497,-9.52047,-0.11347,0.30247,0.11112
2025-11-25T07:15:56.846154,-0.06865,-0.17507,-9.54765,-0.15859,0.18102,-0.03722
2025-11-25T07:15:56.855769,-0.09706,-0.25447,-9.48151,-0.28082,0.15666,-0.04791
2025-11-25T07:15:56.865385,-0.12437,-0.21257,-9.56366,-0.13692,0.22273,0.04986
2025-11-25T07:15:56.875,-0.10865,-0.17856,-9.49888,-0.10006,0.18892,0.00628
2025-11-25T07:15:56.884615,-0.09989,-0.18650,-9.47241,-0.14464,0.25654,-0.04899
2025-11-25T07:15:56.894231,-0.12705,-0.16503,-9.52617,-0.13724,0.20999,0.07647
2025-11-25T07:15:56.903846,-0.13321,-0.14324,-9.50758,-0.20986,0.19366,0.04729
2025-11-25T07:15:56.913462,-0.09842,-0.11128,-9.59862,-0.06220,0.27343,-0.05690
2025-11-25T07:15:56.923077,-0.14664,-0.18874,-9.55192,-0.24291,0.21470,-0.09607
2025-11-25T07:15:56.932692,-0.10486,-0.14718,-9.55808,-0.24207,0.08959,-0.05512
2025-11-25T07:15:56.942308,-0.17362,-0.21508,-9.64196,-0.14843,0.06636,0.00393
2025-11-25T07:15:56.951923,-0.19544,-0.11163,-9.63119,-0.21368,0.13815,0.04630
2025-11-25T07:15:56.961538,-0.13102,-0.16265,-9.61744,-0.22924,0.22960,0.05193
2025-11-25T07:15:56.971154,-0.13643,-0.18896,-9.60594,-0.26625,0.15696,-0.03050
2025-11-25T07:15:56.980769,-0.11049,-0.18441,-9.69205,-0.35013,0.28205,-0.10322
2025-11-25T07:15:56.990385,-0.14394,-0.16695,-9.72089,-0.23423,0.12225,-0.01583
2025-11-25T07:15:57,0.01563,-0.12195,-9.74851,-0.11544,0.18277,0.01960
2025-11-25T07:15:57.009615,-0.00535,-0.03074,-9.72148,0.06908,-0.01970,-0.02710
2025-11-25T07:15:57.019231,0.02167,0.02179,-9.76141,-0.09107,-0.01579,0.03711
2025-11-25T07:15:57.028846,0.00340,-0.04016,-9.85269,0.09544,0.10480,0.07747
2025-11-25T07:15:57.038462,-0.04130,-0.05309,-9.85796,-0.15141,0.07401,0.06038
2025-11-25T07:15:57.048077,-0.04064,0.01162,-9.75472,-0.09510,-0.00322,0.08649
2025-11-25T07:15:57.057692,0.03544,-0.09541,-9.81539,0.02125,-0.00830,0.05497
2025-11-25T07:15:57.067308,0.01210,-0.07936,-9.75880,-0.17103,0.10846,-0.10572
2025-11-25T07:15:57.076923,0.01012,0.00111,-9.77772,-0.01018,0.03513,0.00028
2025-11-25T07:15:57.086538,-0.05039,-0.06542,-9.88857,-0.02117,0.01056,0.03491
2025-11-25T07:15:57.096154,0.03075,-0.03654,-9.78600,-0.02750,-0.11466,0.10006
2025-11-25T07:15:57.105769,0.00724,-0.03086,-9.81320,-0.08976,0.01179,-0.00671
2025-11-25T07:15:57.115385,-0.01163,-0.12965,-9.79861,0.04321,0.13328,0.08294
2025-11-25T07:15:57.125,0.00737,-0.02588,-9.81556,-0.03112,0.05648,0.04284
2025-11-25T07:15:57.134615,-0.05909,-0.03641,-9.84577,-0.07632,0.06903,0.15140
2025-11-25T07:15:57.144231,-0.02449,0.02237,-9.70420,-0.10450,0.09115,0.06169
2025-11-25T07:15:57.153846,0.04579,-0.02612,-9.84375,-0.00570,-0.03421,-0.00696
2025-11-25T07:15:57.163462,0.01024,-0.07613,-9.79548,-0.06726,0.07520,-0.02861
2025-11-25T07:15:57.173077,0.00790,-0.05170,-9.85464,-0.04375,0.04701,0.02095
2025-11-25T07:15:57.182692,0.05943,-0.08303,-9.81278,-0.07174,-0.08775,-0.01164
2025-11-25T07:15:57.192308,0.02929,-0.07210,-9.89125,-0.19787,-0.04360,0.03871
2025-11-25T07:15:57.201923,0.03048,-0.03113,-9.75833,-0.13634,-0.08634,0.02398
2025-11-25T07:15:57.211538,0.01332,-0.13015,-9.81580,-0.02473,0.01205,0.08791
2025-11-25T07:15:57.221154,0.07580,0.00143,-9.84699,-0.04275,0.05167,0.02790
2025-11-25T07:15:57.230769,0.05839,-0.03249,-9.76032,-0.14620,0.11990,0.09018
2025-11-25T07:15:57.240385,-0.05438,-0.11749,-9.75418,-0.03743,0.00088,0.00265
2025-11-25T07:15:57.25,-0.05437,0.02038,-9.80567,0.07745,-0.08319,0.07650
2025-11-25T07:15:57.259615,0.03291,-0.02532,-9.79638,-0.10973,0.03506,0.03007
2025-11-25T07:15:57.269231,0.01028,-0.08548,-9.76887,-0.06875,0.10888,0.01829
2025-11-25T07:15:57.278846,0.02145,-0.05671,-9.82324,-0.01424,0.04489,0.05175
2025-11-25T07:15:57.288462,-0.01003,-0.10246,-9.76251,0.07345,-0.02658,0.04863
2025-11-25T07:15:57.298077,-0.00999,-0.09507,-9.78354,0.00637,0.03802,-0.00857
2025-11-25T07:15:57.307692,0.00547,-0.01965,-9.81201,-0.00550,0.03009,0.02720
2025-11-25T07:15:57.317308,0.04996,-0.05438,-9.69086,-0.15407,0.09223,0.07022
2025-11-25T07:15:57.326923,0.03453,-0.04918,-9.84320,-0.11213,0.02666,0.08337
2025-11-25T07:15:57.336538,0.04487,-0.04451,-9.79543,0.00650,0.02505,0.12550
2025-11-25T07:15:57.346154,-0.00152,0.00269,-9.92656,-0.18054,-0.07992,0.07379
2025-11-25T07:15:57.355769,0.10537,-0.03862,-9.78840,-0.09295,-0.00146,0.07416
2025-11-25T07:15:57.365385,-0.00709,-0.05567,-9.89863,-0.17792,0.00318,0.07939
2025-11-25T07:15:57.375,0.02528,-0.04840,-9.81339,-0.09648,0.01821,0.04480
2025-11-25T07:15:57.384615,0.01623,0.01939,-9.83700,-0.02855,-0.00022,0.10939
2025-11-25T07:15:57.394231,-0.01315,-0.08078,-9.80028,-0.15725,0.03449,0.05209
2025-11-25T07:15:57.403846,0.00328,-0.02685,-9.81419,-0.12687,0.05613,0.10866
2025-11-25T07:15:57.413462,0.02767,-0.00715,-9.71795,-0.02033,0.10457,0.02265
2025-11-25T07:15:57.423077,0.05961,-0.06846,-9.75453,-0.08616,-0.05808,0.13699
2025-11-25T07:15:57.432692,0.01195,0.02137,-9.81305,-0.03919,0.01504,0.10300
2025-11-25T07:15:57.442308,0.01078,-0.10101,-9.86490,0.03554,0.03334,0.08316
2025-11-25T07:15:57.451923,0.02872,-0.05523,-9.80186,-0.00774,0.00363,0.05293
2025-11-25T07:15:57.461538,0.00365,-0.02189,-9.78900,-0.09710,0.20496,0.04563
2025-11-25T07:15:57.471154,0.02947,-0.04772,-9.80705,-0.03627,0.11837,0.02263
2025-11-25T07:15:57.480769,0.04973,-0.05783,-9.80679,-0.03281,-0.04867,0.06572
2025-11-25T07:15:57.490385,0.01099,-0.05308,-9.85253,-0.07984,0.06219,0.00544
2025-11-25T07:15:57.5,0.05423,-0.03019,-9.70403,-0.11070,0.04748,0.12007
2025-11-25T07:15:57.509615,-0.03250,-0.01445,-9.75715,-0.20643,0.04624,0.13860
2025-11-25T07:15:57.519231,-0.02786,-0.04882,-9.78129,-0.05484,0.15538,-0.00674
2025-11-25T07:15:57.528846,0.02355,-0.02281,-9.78744,-0.08431,-0.14151,0.11576
2025-11-25T07:15:57.538462,0.00798,0.00986,-9.74143,-0.05299,0.11896,0.06986
2025-11-25T07:15:57.548077,0.00573,-0.09451,-9.82434,-0.01584,-0.07950,0.10471
2025-11-25T07:15:57.557692,0.02059,0.01786,-9.84895,-0.11409,0.05350,0.01334
2025-11-25T07:15:57.567308,0.11363,-0.04083,-9.73813,-0.12102,0.03012,0.10086
2025-11-25T07:15:57.576923,0.07206,-0.02882,-9.72350,-0.01796,-0.07872,0.01538
2025-11-25T07:15:57.586538,0.01421,-0.01245,-9.83425,-0.11029,-0.09641,0.07829
2025-11-25T07:15:57.596154,0.02081,-0.04865,-9.87621,-0.01098,0.03231,0.01374
2025-11-25T07:15:57.605769,-0.02151,-0.07185,-9.80563,-0.10335,-0.04999,0.00238
2025-11-25T07:15:57.615385,0.01391,-0.08850,-9.83008,-0.09441,0.00324,0.05822
2025-11-25T07:15:57.625,0.01263,-0.05626,-9.85207,-0.00114,0.02865,0.05526
2025-11-25T07:15:57.634615,0.00980,-0.00818,-9.88554,-0.17647,-0.14636,0.04535
2025-11-25T07:15:57.644231,0.00387,-0.06351,-9.71479,-0.02689,-0.01125,0.06505
2025-11-25T07:15:57.653846,-0.00028,-0.08272,-9.78588,0.10211,-0.11226,-0.02632
2025-11-25T07:15:57.663462,0.01351,-0.01900,-9.83538,-0.08381,0.15507,0.09998
2025-11-25T07:15:57.673077,0.02802,-0.09002,-9.80698,0.08912,0.07251,0.07006
2025-11-25T07:15:57.682692,-0.02950,-0.08789,-9.86424,-0.03523,-0.00692,0.09714
2025-11-25T07:15:57.692308,0.02968,0.01751,-9.81800,0.00905,-0.13077,-0.03666
2025-11-25T07:15:57.701923,-0.00640,-0.06543,-9.80181,0.00788,-0.02170,0.02303
2025-11-25T07:15:57.711538,0.05577,-0.04359,-9.77901,-0.12265,-0.02679,0.03027
2025-11-25T07:15:57.721154,-0.00091,-0.04368,-9.86452,-0.04573,-0.03525,0.11054
2025-11-25T07:15:57.730769,-0.05628,-0.03204,-9.72195,0.01173,-0.02322,0.04284
2025-11-25T07:15:57.740385,0.01608,0.06373,-9.77154,-0.00247,-0.07768,-0.02792
2025-11-25T07:15:57.75,0.07419,-0.02027,-9.75023,-0.04907,-0.03246,0.04017
2025-11-25T07:15:57.759615,0.05385,0.04550,-9.76631,-0.10818,0.16286,0.07797
2025-11-25T07:15:57.769231,0.01222,0.00473,-9.77819,0.03479,0.17687,0.01275
2025-11-25T07:15:57.778846,0.02099,-0.04405,-9.78497,-0.07067,0.05914,0.06363
2025-11-25T07:15:57.788462,0.03375,-0.06916,-9.74388,-0.01305,0.02240,0.09435
2025-11-25T07:15:57.798077,-0.01141,-0.05319,-9.79458,0.04548,0.04709,0.02082
2025-11-25T07:15:57.807692,0.03073,-0.10658,-9.74618,-0.04285,-0.02190,-0.06515
2025-11-25T07:15:57.817308,-0.02128,0.03263,-9.80706,0.03358,-0.01261,0.04794
2025-11-25T07:15:57.826923,-0.00797,-0.02788,-9.80623,-0.14980,-0.06003,0.04983
2025-11-25T07:15:57.836538,-0.00180,-0.05684,-9.76535,-0.09296,0.02151,0.10516
2025-11-25T07:15:57.846154,0.01616,-0.07193,-9.79711,-0.05183,-0.11304,-0.00179
2025-11-25T07:15:57.855769,-0.02732,-0.03329,-9.81158,-0.05947,0.02367,0.05377
2025-11-25T07:15:57.865385,0.02434,-0.06274,-9.74981,-0.16717,0.09533,0.05205
2025-11-25T07:15:57.875,0.06902,-0.05379,-9.77667,-0.11693,0.12642,0.09003
2025-11-25T07:15:57.884615,0.04124,-0.02941,-9.84541,-0.21112,0.15674,-0.01791
2025-11-25T07:15:57.894231,-0.02425,-0.02890,-9.68630,-0.09170,0.01647,0.05297
2025-11-25T07:15:57.903846,0.00025,-0.08754,-9.81016,0.02094,0.04168,0.00794
2025-11-25T07:15:57.913462,0.04454,-0.09831,-9.82595,-0.18460,0.00592,0.09941
2025-11-25T07:15:57.923077,0.03141,-0.00916,-9.79545,-0.09270,0.04622,0.08855
2025-11-25T07:15:57.932692,0.03313,-0.00065,-9.71566,0.10686,0.05205,0.02030
2025-11-25T07:15:57.942308,0.02167,-0.03993,-9.68898,0.04978,0.01731,0.05098
2025-11-25T07:15:57.951923,-0.01280,-0.07083,-9.81086,-0.01775,0.06356,-0.01368
2025-11-25T07:15:57.961538,0.02506,-0.12404,-9.72174,-0.05755,-0.03470,-0.06618
2025-11-25T07:15:57.971154,0.00418,-0.07676,-9.77442,-0.03234,0.00764,0.07979
2025-11-25T07:15:57.980769,0.03213,-0.00904,-9.72995,-0.04412,0.12580,0.09593
2025-11-25T07:15:57.990385,-0.02552,-0.08619,-9.77137,-0.06054,0.04595,0.15404
2025-11-25T07:15:58,0.02362,-0.02241,-9.79790,-0.02941,-0.11810,0.07476
2025-11-25T07:15:58.009615,-0.04495,-0.03076,-9.82248,-0.06014,-0.11159,0.08824
2025-11-25T07:15:58.019231,-0.01905,-0.01334,-9.84913,-0.00852,-0.10946,0.10026
2025-11-25T07:15:58.028846,0.01978,-0.00831,-9.90193,0.02891,-0.08603,-0.00320
2025-11-25T07:15:58.038462,0.01317,-0.04919,-9.77452,-0.04682,0.05022,-0.01895
2025-11-25T07:15:58.048077,-0.00298,-0.02704,-9.77234,0.00509,0.01967,0.08474
2025-11-25T07:15:58.057692,-0.00323,-0.07204,-9.72865,-0.03463,0.02853,-0.04148
2025-11-25T07:15:58.067308,0.06397,-0.08663,-9.79154,-0.03916,0.07730,0.09765
2025-11-25T07:15:58.076923,-0.03670,-0.04654,-9.82729,-0.10954,0.12416,0.07127
2025-11-25T07:15:58.086538,0.03588,-0.14599,-9.82200,0.07067,0.06729,0.00081
2025-11-25T07:15:58.096154,0.03845,-0.07874,-9.82934,-0.03994,-0.16140,0.03538
2025-11-25T07:15:58.105769,0.02692,-0.07831,-9.71389,-0.09436,-0.05716,0.10288
2025-11-25T07:15:58.115385,-0.08329,-0.08623,-9.65942,-0.15565,0.05462,-0.00349
2025-11-25T07:15:58.125,0.00087,-0.06253,-9.74907,-0.04944,-0.04902,0.03424
2025-11-25T07:15:58.134615,-0.06172,-0.05735,-9.77364,-0.08130,-0.04376,0.07955
2025-11-25T07:15:58.144231,0.02551,-0.05259,-9.76904,0.03743,-0.08842,0.06232
2025-11-25T07:15:58.153846,-0.02493,0.00500,-9.74615,-0.09918,-0.04386,-0.00492
2025-11-25T07:15:58.163462,0.04511,-0.05388,-9.77841,-0.11146,0.02069,0.05357
2025-11-25T07:15:58.173077,-0.00659,-0.02278,-9.87557,-0.03007,-0.04564,0.01027
2025-11-25T07:15:58.182692,-0.01724,-0.01254,-9.72819,-0.06275,-0.01917,0.03859
2025-11-25T07:15:58.192308,-0.00623,-0.07325,-9.84238,-0.08129,0.05875,0.03678
2025-11-25T07:15:58.201923,0.04413,-0.02981,-9.81166,-0.06100,-0.06480,0.05629
2025-11-25T07:15:58.211538,-0.04093,-0.04737,-9.80410,0.03038,-0.07407,0.09525
2025-11-25T07:15:58.221154,-0.02015,0.03707,-9.83915,-0.00903,-0.08195,0.02236
2025-11-25T07:15:58.230769,0.03636,-0.07387,-9.74545,-0.13083,0.04343,0.07367
2025-11-25T07:15:58.240385,-0.01066,-0.07604,-9.83680,-0.03545,-0.04291,0.06509
2025-11-25T07:15:58.25,0.04800,-0.04914,-9.71545,-0.01174,-0.01603,0.05261
2025-11-25T07:15:58.259615,0.02415,-0.08321,-9.74503,-0.08324,0.04589,0.01726
2025-11-25T07:15:58.269231,-0.01575,-0.08135,-9.83531,-0.00269,0.15710,-0.04339
2025-11-25T07:15:58.278846,-0.00891,-0.04069,-9.80555,0.06811,-0.04867,0.08594
2025-11-25T07:15:58.288462,-0.02076,-0.07408,-9.69707,-0.02523,-0.04615,0.03472
2025-11-25T07:15:58.298077,0.01513,-0.01747,-9.77880,-0.25148,-0.22003,0.09133
2025-11-25T07:15:58.307692,0.00187,-0.07624,-9.71601,-0.00126,0.05136,0.01798
2025-11-25T07:15:58.317308,-0.03624,-0.02244,-9.72608,-0.09508,0.02982,0.02621
2025-11-25T07:15:58.326923,-0.00771,-0.10170,-9.78413,-0.12905,-0.04520,0.08670
2025-11-25T07:15:58.336538,-0.01478,-0.02243,-9.84370,-0.02580,-0.03763,0.09897
2025-11-25T07:15:58.346154,0.03167,0.00743,-9.73640,-0.14502,-0.02078,0.08811
2025-11-25T07:15:58.355769,0.02447,-0.02769,-9.81560,0.08519,0.05970,0.01523
2025-11-25T07:15:58.365385,0.03097,-0.00932,-9.78313,-0.03419,0.08394,0.18024
2025-11-25T07:15:58.375,0.06853,-0.06484,-9.78808,-0.02765,0.10476,-0.02470
2025-11-25T07:15:58.384615,0.02628,-0.03693,-9.82706,-0.01186,-0.01444,0.09221
2025-11-25T07:15:58.394231,0.02257,-0.03272,-9.69104,0.03675,0.03292,0.05377
2025-11-25T07:15:58.403846,0.00818,-0.09363,-9.74179,-0.00110,0.02070,0.03662
2025-11-25T07:15:58.413462,-0.02819,-0.02679,-9.80505,0.01619,-0.11988,0.07553
2025-11-25T07:15:58.423077,0.06084,-0.05066,-9.80754,-0.10514,-0.00265,0.03349
2025-11-25T07:15:58.432692,-0.04146,-0.03276,-9.83905,-0.07469,0.05119,-0.03021
2025-11-25T07:15:58.442308,0.01986,-0.01099,-9.75765,-0.00819,-0.09625,0.12880
2025-11-25T07:15:58.451923,-0.02517,-0.04442,-9.87639,0.05172,0.02636,0.08881
2025-11-25T07:15:58.461538,-0.02595,-0.09456,-9.73483,0.05921,-0.00191,0.08361
2025-11-25T07:15:58.471154,0.00252,-0.03807,-9.81437,-0.06815,-0.08464,-0.06945
2025-11-25T07:15:58.480769,-0.01005,-0.07932,-9.73484,-0.01375,-0.09257,0.06702
2025-11-25T07:15:58.490385,-0.01521,-0.05688,-9.77963,-0.12777,0.06886,0.05336
2025-11-25T07:15:58.5,0.02960,-0.13061,-9.81143,-0.02242,-0.02946,0.13585
2025-11-25T07:15:58.509615,0.02816,-0.07352,-9.85494,0.01268,0.03199,0.09678
2025-11-25T07:15:58.519231,0.01856,-0.03919,-9.78102,-0.09642,-0.00756,0.11776
2025-11-25T07:15:58.528846,0.04518,-0.05477,-9.73587,-0.10828,0.03166,-0.00576
2025-11-25T07:15:58.538462,0.03966,-0.04764,-9.80347,-0.03132,0.03637,-0.01509
2025-11-25T07:15:58.548077,0.02841,-0.09412,-9.79611,-0.03789,-0.04823,0.00893
2025-11-25T07:15:58.557692,0.03470,-0.02172,-9.74413,0.07761,0.16339,0.01760
2025-11-25T07:15:58.567308,-0.01066,-0.13735,-9.75265,0.00879,0.05109,0.06886
2025-11-25T07:15:58.576923,0.05173,-0.05153,-9.78592,-0.12161,-0.06264,0.07048
2025-11-25T07:15:58.586538,0.01217,-0.04731,-9.80784,0.03962,0.00290,0.05661
2025-11-25T07:15:58.596154,-0.01440,-0.06535,-9.85686,-0.00719,0.10453,0.07656
2025-11-25T07:15:58.605769,0.03439,-0.00368,-9.69050,-0.02131,0.00733,0.03710
2025-11-25T07:15:58.615385,-0.00953,-0.04069,-9.78403,-0.08726,0.12126,0.04913
2025-11-25T07:15:58.625,-0.01243,-0.04705,-9.79672,-0.02688,-0.04443,0.09616
2025-11-25T07:15:58.634615,0.02524,0.01607,-9.72319,-0.01599,0.01907,0.04489
2025-11-25T07:15:58.644231,-0.06964,0.02478,-9.74251,0.02899,-0.02707,0.15014
2025-11-25T07:15:58.653846,0.09775,-0.10921,-9.81032,-0.02453,0.05981,0.06652
2025-11-25T07:15:58.663462,-0.01427,-0.03581,-9.79940,0.02930,0.06489,0.09847
2025-11-25T07:15:58.673077,-0.03130,-0.11407,-9.76826,-0.15676,0.14068,0.11659
2025-11-25T07:15:58.682692,0.00003,-0.01613,-9.81216,0.06775,-0.13443,0.04170
2025-11-25T07:15:58.692308,0.03050,-0.07231,-9.79550,-0.04870,-0.03187,0.07031
2025-11-25T07:15:58.701923,0.04768,-0.07381,-9.80853,-0.15030,-0.00093,0.11695
2025-11-25T07:15:58.711538,-0.01377,-0.04797,-9.79980,-0.11654,-0.04874,0.05380
2025-11-25T07:15:58.721154,0.00837,-0.03681,-9.78177,-0.04766,-0.05228,0.06613
2025-11-25T07:15:58.730769,-0.00276,-0.13677,-9.66912,-0.18271,0.03341,0.05402
2025-11-25T07:15:58.740385,0.06815,-0.06808,-9.73418,-0.04840,0.06652,0.04883
2025-11-25T07:15:58.75,-0.01639,-0.07856,-9.74760,-0.09226,0.02717,0.06691
2025-11-25T07:15:58.759615,0.06230,-0.05734,-9.76609,-0.06397,-0.07945,0.04373
2025-11-25T07:15:58.769231,0.02820,-0.10864,-9.79626,0.02930,-0.09579,0.04185
2025-11-25T07:15:58.778846,-0.04555,-0.02925,-9.77717,-0.04102,-0.07211,0.15811
2025-11-25T07:15:58.788462,-0.02008,-0.06043,-9.69898,-0.08079,-0.16581,0.07147
2025-11-25T07:15:58.798077,-0.01261,-0.07984,-9.72388,-0.04124,0.10944,0.03399
2025-11-25T07:15:58.807692,-0.03166,-0.03956,-9.77451,-0.00730,-0.00275,0.06467
2025-11-25T07:15:58.817308,-0.03319,-0.04875,-9.70239,0.04049,-0.01240,0.06319
2025-11-25T07:15:58.826923,-0.00293,-0.05436,-9.76841,-0.03364,-0.06943,0.08260
2025-11-25T07:15:58.836538,-0.01297,-0.08368,-9.69812,0.00392,-0.05524,0.09035
2025-11-25T07:15:58.846154,-0.01339,-0.06534,-9.80673,-0.13248,0.00734,0.10921
2025-11-25T07:15:58.855769,0.00051,-0.04627,-9.78970,-0.04559,0.01010,0.06481
2025-11-25T07:15:58.865385,-0.00735,-0.09247,-9.72040,0.01276,-0.04262,-0.02137
2025-11-25T07:15:58.875,-0.00961,-0.06061,-9.85295,0.03245,-0.01907,0.00725
2025-11-25T07:15:58.884615,-0.00835,-0.07681,-9.65202,0.03175,-0.01399,0.07731
2025-11-25T07:15:58.894231,-0.02343,-0.05927,-9.71366,-0.04485,0.12962,-0.01993
2025-11-25T07:15:58.903846,0.03862,-0.06075,-9.84200,0.05664,0.00027,0.09636
2025-11-25T07:15:58.913462,0.04142,0.00907,-9.80682,-0.10944,0.06625,0.08591
2025-11-25T07:15:58.923077,0.01964,-0.09822,-9.80787,-0.01336,-0.06497,0.06269
2025-11-25T07:15:58.932692,0.01086,-0.09314,-9.72875,-0.02574,0.02020,-0.01314
2025-11-25T07:15:58.942308,-0.01982,-0.09262,-9.77296,-0.04511,-0.04749,0.12976
2025-11-25T07:15:58.951923,-0.00183,-0.04369,-9.75812,-0.10325,0.01102,0.04059
2025-11-25T07:15:58.961538,0.03431,-0.09152,-9.80816,-0.00838,-0.01588,0.11418
2025-11-25T07:15:58.971154,0.01309,-0.04704,-9.85592,0.08092,-0.00210,0.10687
2025-11-25T07:15:58.980769,-0.02528,-0.05998,-9.74692,-0.14852,0.25881,-0.00648
2025-11-25T07:15:58.990385,-0.03960,-0.04955,-9.83752,-0.11631,0.08106,0.06686
2025-11-25T07:15:59,0.05327,-0.01618,-9.82930,-0.08601,0.07216,0.06495
2025-11-25T07:15:59.009615,0.01025,-0.08758,-9.77520,-0.20706,-0.06599,0.02424
2025-11-25T07:15:59.019231,0.01983,-0.00277,-9.87993,0.00386,-0.00300,0.04220
2025-11-25T07:15:59.028846,-0.02834,0.05186,-9.78880,-0.03646,-0.08614,0.09971
2025-11-25T07:15:59.038462,0.05040,-0.04926,-9.79599,-0.06459,0.02707,0.05656
2025-11-25T07:15:59.048077,-0.02996,-0.04778,-9.79183,0.09319,0.03326,0.08163
2025-11-25T07:15:59.057692,0.05023,-0.01636,-9.76319,0.00386,0.09487,0.03298
2025-11-25T07:15:59.067308,0.02965,0.03211,-9.78084,-0.18831,-0.01581,0.03965
2025-11-25T07:15:59.076923,-0.00017,-0.02213,-9.79340,0.03785,0.02896,0.09067
2025-11-25T07:15:59.086538,-0.00093,-0.01930,-9.73217,-0.10060,-0.06252,0.05626
2025-11-25T07:15:59.096154,-0.00970,-0.11432,-9.74810,-0.02742,-0.00347,0.06260
2025-11-25T07:15:59.105769,0.00329,0.00155,-9.87179,0.00437,-0.01407,0.09699
2025-11-25T07:15:59.115385,0.06931,-0.09167,-9.77383,0.07292,-0.05699,0.07031
2025-11-25T07:15:59.125,0.03637,-0.01348,-9.83846,-0.05079,-0.08008,0.13725
2025-11-25T07:15:59.134615,0.05698,-0.08196,-9.86340,-0.14741,-0.03243,0.03918
2025-11-25T07:15:59.144231,-0.00706,-0.10571,-9.76701,-0.10856,-0.09241,0.07854
2025-11-25T07:15:59.153846,-0.00139,-0.08738,-9.74808,-0.11934,-0.07762,0.01881
2025-11-25T07:15:59.163462,-0.01269,-0.04277,-9.83829,0.05047,0.02934,0.03659
2025-11-25T07:15:59.173077,0.00458,-0.12302,-9.74064,0.09358,0.01555,-0.02645
2025-11-25T07:15:59.182692,-0.01661,-0.02719,-9.71772,-0.00103,0.06499,0.05746
2025-11-25T07:15:59.192308,-0.04570,-0.08908,-9.74905,-0.03826,0.04820,0.04986
2025-11-25T07:15:59.201923,-0.02918,-0.05176,-9.76674,-0.03535,-0.00286,0.03726
2025-11-25T07:15:59.211538,-0.00140,-0.04448,-9.78128,0.03819,-0.07026,-0.01730
2025-11-25T07:15:59.221154,-0.05151,-0.04338,-9.76255,-0.09337,0.04918,-0.02228
2025-11-25T07:15:59.230769,0.04278,-0.07784,-9.73843,-0.13007,0.00653,0.12719
2025-11-25T07:15:59.240385,0.00326,-0.00548,-9.77939,-0.04392,0.10327,-0.00202
2025-11-25T07:15:59.25,0.03246,-0.10961,-9.73876,-0.03082,-0.15867,0.02517
2025-11-25T07:15:59.259615,0.01944,-0.02114,-9.86155,-0.16566,-0.05446,0.06218
2025-11-25T07:15:59.269231,0.00487,-0.08445,-9.72702,-0.09032,-0.13358,0.07513
2025-11-25T07:15:59.278846,-0.00883,-0.01949,-9.76406,0.03315,0.04683,0.14880
2025-11-25T07:15:59.288462,-0.01844,-0.07406,-9.81713,-0.12723,0.10928,0.08518
2025-11-25T07:15:59.298077,0.00811,-0.10753,-9.84979,-0.08050,-0.09860,0.02766
2025-11-25T07:15:59.307692,0.02396,-0.01606,-9.82853,-0.24454,-0.04581,0.11730
2025-11-25T07:15:59.317308,0.02417,0.02699,-9.80463,-0.18243,-0.10279,0.00381
2025-11-25T07:15:59.326923,0.02616,-0.05241,-9.72513,0.00279,-0.02056,0.07932
2025-11-25T07:15:59.336538,0.01946,-0.04477,-9.85043,-0.11756,-0.06623,0.13681
2025-11-25T07:15:59.346154,0.02206,-0.10628,-9.83940,-0.04014,-0.10416,0.06519
2025-11-25T07:15:59.355769,0.07617,-0.04072,-9.69892,-0.02884,0.00776,-0.03561
2025-11-25T07:15:59.365385,0.01185,-0.06953,-9.77642,-0.05852,-0.04797,0.08650
2025-11-25T07:15:59.375,0.01063,-0.04387,-9.77129,-0.03176,0.06612,0.03810
2025-11-25T07:15:59.384615,-0.01940,-0.05483,-9.74465,-0.05594,0.06955,-0.00402
2025-11-25T07:15:59.394231,0.03561,-0.03256,-9.75412,-0.10711,0.03171,0.07254
2025-11-25T07:15:59.403846,-0.03114,0.01084,-9.76207,-0.09859,-0.07389,-0.00679
2025-11-25T07:15:59.413462,0.03462,-0.04217,-9.71363,0.08783,-0.10570,0.00806
2025-11-25T07:15:59.423077,0.04980,-0.03557,-9.80242,-0.04553,-0.09373,-0.05247
2025-11-25T07:15:59.432692,0.00612,0.01752,-9.74974,0.09521,-0.02889,0.04491
2025-11-25T07:15:59.442308,0.03519,-0.00291,-9.69316,-0.00566,0.01854,0.01523
2025-11-25T07:15:59.451923,-0.03678,-0.03889,-9.73403,-0.02995,0.02709,0.04278
2025-11-25T07:15:59.461538,0.03903,-0.02595,-9.84576,-0.00135,-0.01390,-0.03013
2025-11-25T07:15:59.471154,0.03270,-0.02690,-9.78111,-0.08870,0.11316,0.14835
2025-11-25T07:15:59.480769,-0.04578,-0.08237,-9.75711,0.02083,0.00101,0.03471
2025-11-25T07:15:59.490385,-0.02659,-0.07948,-9.79927,-0.11650,-0.04950,0.03384
2025-11-25T07:15:59.5,-0.02608,0.03305,-9.84308,-0.07371,-0.10787,0.12630
2025-11-25T07:15:59.509615,-0.03797,0.00690,-9.87282,-0.14009,-0.02938,0.08105
2025-11-25T07:15:59.519231,0.03274,-0.01537,-9.80250,-0.05868,-0.05461,0.08157
2025-11-25T07:15:59.528846,0.00753,-0.05223,-9.74537,-0.13568,-0.00023,0.06222
2025-11-25T07:15:59.538462,0.04281,0.00201,-9.75747,0.03463,-0.04863,0.06349
2025-11-25T07:15:59.548077,-0.04864,0.01011,-9.81337,-0.06333,0.00961,0.08679
2025-11-25T07:15:59.557692,0.00481,-0.02899,-9.82366,-0.19522,-0.05292,0.06004
2025-11-25T07:15:59.567308,-0.03730,-0.04331,-9.76364,-0.02905,-0.11371,0.03861
2025-11-25T07:15:59.576923,0.01472,-0.06374,-9.74970,0.06144,-0.06987,0.03622
2025-11-25T07:15:59.586538,-0.02183,-0.07628,-9.75951,-0.08119,-0.03639,0.07896
2025-11-25T07:15:59.596154,-0.02565,-0.07746,-9.69771,-0.16781,-0.11669,0.02441
2025-11-25T07:15:59.605769,0.01686,-0.03944,-9.83538,-0.06089,-0.09704,0.10327
2025-11-25T07:15:59.615385,-0.03061,-0.07659,-9.78123,-0.06206,0.03536,0.02630
2025-11-25T07:15:59.625,0.04878,0.02171,-9.71473,-0.14161,-0.11480,0.05577
2025-11-25T07:15:59.634615,-0.00753,0.01874,-9.78070,-0.16894,-0.06955,0.11510
2025-11-25T07:15:59.644231,-0.02785,0.01798,-9.73312,0.03539,-0.01150,0.05179
2025-11-25T07:15:59.653846,-0.02585,-0.02724,-9.74608,-0.04295,0.00891,0.05348
2025-11-25T07:15:59.663462,0.00808,-0.04060,-9.74079,0.02640,-0.00502,0.00397
2025-11-25T07:15:59.673077,0.02098,-0.04398,-9.89203,-0.08762,-0.01608,-0.00416
