Timestamp,Acceleration_X,Acceleration_Y,Acceleration_Z,Gyro_X,Gyro_Y,Gyro_Z
2025-11-24T18:00:00,-0.05399941180190813,-0.09140286882337413,9.76476649056344,0.696191291120646,0.5542325987615484,0.07990885087134822
2025-11-24T18:00:00.009615,0.05375532264573125,0.021763534287783874,9.771880561835236,0.7085338100657679,0.5813906090905474,0.07621588824481644
2025-11-24T18:00:00.019231,0.16129513219990538,0.1358006479479075,9.778464741381713,0.7211427688505442,0.6087872735145033,0.07287304279372804
2025-11-24T18:00:00.028846,0.2681346783329279,0.24999396256720496,9.784530411903791,0.7341012449598483,0.6362640492695013,0.06990248728441845
2025-11-24T18:00:00.038462,0.37382463807236926,0.3636607822995287,9.790091074611487,0.747479390653683,0.6636647212600619,0.0673191689121426
2025-11-24T18:00:00.048077,0.4779555690998029,0.47616071880919714,9.79516116134831,0.7613285388466994,0.6908363848267532,0.06513014480957337
2025-11-24T18:00:00.057692,0.5801608816544814,0.5869038897567719,9.799755316962688,0.7756764644076737,0.7176304315070227,0.06333410804061188
2025-11-24T18:00:00.067308,0.6801188710303756,0.6953567796158516,9.803888216423005,0.790523982872426,0.7439035486577499,0.06192113226591327
2025-11-24T18:00:00.076923,0.7775537167665151,0.8010458564175894,9.807574920434876,0.8058429458639974,0.7695186789538228,0.06087265023448796
2025-11-24T18:00:00.086538,0.8722353459129378,0.9035591170057179,9.810831704806246,0.8215755902340426,0.7943458329322234,0.06016167301683677
2025-11-24T18:00:00.096154,0.9639780809156463,1.0025457834413996,9.813677244864518,0.8376351154555471,0.8182626248751378,0.05975325988751958
2025-11-24T18:00:00.105769,1.0526380404041114,1.0977144088564068,9.816133993392928,0.8539073056888736,0.8411544120037553,0.05960526183587279
2025-11-24T18:00:00.115385,1.1381093412438918,1.1888296700784178,9.818229543266796,0.8702529838089936,0.86291395620556,0.05966936838159961
2025-11-24T18:00:00.125000,1.220319254838632,1.2757081266943309,9.819997731266708,0.8865110879267081,0.8834405969888123,0.05989247081554644
2025-11-24T18:00:00.134615,1.2992225587878612,1.3582132280229042,9.821479256834888,0.9025021904261484,0.9026390159068666,0.060218317118098955
2025-11-24T18:00:00.144231,1.3747953619103286,1.4362498680889837,9.822721657520619,0.9180323149580769,0.9204177536484757,0.060589390433923515
2025-11-24T18:00:00.153846,1.447028676119995,1.5097588067764396,9.82377855291039,0.9328969297000849,0.9366876717971707,0.06094890688644038
2025-11-24T18:00:00.163462,1.5159219955837335,1.5787112450985148,9.824708117473342,0.9468850041896326,0.9513605259153547,0.06124280271749989
2025-11-24T18:00:00.173077,1.58147713101829,1.6431037477041168,9.825570805433497,0.9597830234147813,0.9643477689734188,0.06142156315422461
2025-11-24T18:00:00.182692,1.6436925127622541,1.7029535894348613,9.826426464048977,0.9713788664958624,0.9755596706144039,0.061441741703333635
2025-11-24T18:00:00.192308,1.7025581070091416,1.758294514739829,9.827331113696294,0.981465475266483,0.9849048261894421,0.06126704686397012
2025-11-24T18:00:00.201923,1.7580510137971477,1.8091728500225417,9.828333775190776,0.9898442458189778,0.9922901218498794,0.06086894115156327
2025-11-24T18:00:00.211538,1.8101317817740266,1.8556438889425295,9.82947372754812,0.9963280654755602,0.9976211973302228,0.06022678001618852
2025-11-24T18:00:00.221154,1.858741498356226,1.8977684764254763,9.83077847813268,1.000743903224469,1.0008034045083187,0.059327578329130395
2025-11-24T18:00:00.230769,1.903799761898213,1.9356097516638506,9.832262573101163,1.0029348731866337,1.0017432151915378,0.05816551396889482
2025-11-24T18:00:00.240385,1.9452036766875533,1.969230062113331,9.833927241490242,1.002761744302123,1.0003500034863868,0.056741268645754635
2025-11-24T18:00:00.250000,1.9828280164616212,1.998688100398987,9.835760800605154,1.0001039466441215,0.9965381195255218,0.05506127842025172
2025-11-24T18:00:00.259615,2.016526670043175,2.0240363253106173,9.837739746725244,0.9948601861823085,0.9902291741030056,0.05313693802909647
2025-11-24T18:00:00.269231,2.0461354094551365,2.0453187169271265,9.839830456687407,0.9869487978013626,0.9813544580879237,0.05098379357317231
2025-11-24T18:00:00.278846,2.0714759199389747,2.0625689068131825,9.841991386497188,0.9763079413559371,0.9698574207951302,0.048620768537036944
2025-11-24T18:00:00.288462,2.0923609253395306,2.0758087280875044,9.844175588832572,0.9628957026789278,0.9556961264527437,0.046069476743838975
2025-11-24T18:00:00.298077,2.1086001482121692,2.0850472411724357,9.846333332983502,0.9466901330129626,0.9388455955207055,0.043353664875269544
2025-11-24T18:00:00.307692,2.120006780827778,2.0902802932241644,9.848414620967066,0.9276892558937481,0.9192999171977753,0.04049880157536925
2025-11-24T18:00:00.317308,2.12640413347299,2.091490652186766,9.850371434706956,0.905911068602889,0.8970739999889539,0.037531804310986405
2025-11-24T18:00:00.326923,2.1276321716908644,2.0886487352074194,9.852159597892692,0.881393542446046,0.8722048212387294,0.03448087543081084
2025-11-24T18:00:00.336538,2.1235537230973933,2.081713955977605,9.853740183597681,0.8541945820172386,0.8447520449409844,0.031375403929599935
2025-11-24T18:00:00.346154,2.114060184113568,2.0706367471716223,9.855080446730515,0.8243918562056661,0.8147978948732407,0.02824587703451637
2025-11-24T18:00:00.355769,2.0990765621068816,2.0553613302316722,9.856154311834162,0.7920823827735097,0.7824462040182787,0.025123737089923676
2025-11-24T18:00:00.365385,2.078565659218447,2.035829263066501,9.856942489991237,0.7573817458249552,0.7478206244510719,0.022041121488623947
2025-11-24T18:00:00.375000,2.0525311835315443,2.011983694990161,9.857432305149725,0.7204228537145789,0.7110620713820607,0.019030443592803665
2025-11-24T18:00:00.384615,2.021019601486706,1.9837741347876636,9.857617273149849,0.6813541960577852,0.6723255672422167,0.01612380745294423
2025-11-24T18:00:00.394231,1.9841206211422957,1.951161441204957,9.857496442232753,0.6403376154784904,0.6317767188180283,0.013352286814837888
2025-11-24T18:00:00.403846,1.9419662903041646,1.9141227043785256,9.85707352684826,0.5975456591948959,0.5895880850565719,0.010745128223312894
2025-11-24T18:00:00.413462,1.8947287881524217,1.8726556990690753,9.856355936970338,0.5531586200552627,0.5459356739565411,0.008328954130693268
2025-11-24T18:00:00.423077,1.842617064961543,1.826782637794317,9.85535385098721,0.507361420896093,0.5009957607629265,0.006127047260430632
2025-11-24T18:00:00.432692,1.7858725099624497,1.7765530190655352,9.854079451239514,0.4603405266827773,0.45494216984407526,0.0041587942457461695
2025-11-24T18:00:00.442308,1.7247638035715136,1.7220454478049243,9.852546363199322,0.4122810645797083,0.4079441166056363,0.0024393499172118468
2025-11-24T18:00:00.451923,1.6595810965256408,1.6633683961567636,9.850769273279619,0.3633642903789617,0.36016465440396983,0.000979553166558753
2025-11-24T18:00:00.461538,1.5906297080652616,1.6006599488848483,9.84876367351202,0.31376548285305506,0.31175971257130936,-0.00021390584311479664
2025-11-24T18:00:00.471154,1.5182236270929095,1.5340866124488826,9.846545681751731,0.26365230307684845,0.262877657017351,-0.0011380886317318673
2025-11-24T18:00:00.480769,1.4426791585586762,1.4638412738255955,9.84413189647026,0.2131836328249228,0.213659263120132,-0.0017932186130611607
2025-11-24T18:00:00.490385,1.3643090283558694,1.3901404100312071,9.841539251427928,0.16250889439698096,0.1642379653085929,-0.0021819537518947035
2025-11-24T18:00:00.500000,1.2834171631689082,1.3132206762777423,9.83878482711557,0.11176784281645519,0.1147402484304929,-0.0023085994710338544
2025-11-24T18:00:00.509615,1.2002942708415083,1.233335014304376,9.835885559563836,0.06109080742174529,0.06528607861362681,-0.002178360927271557
2025-11-24T18:00:00.519231,1.115214315859402,1.150748416842677,9.832857785773514,0.01059934057084788,0.015989320434617902,-0.00179674089892399
2025-11-24T18:00:00.528846,1.0284319928855092,1.0657334844749733,9.829716601454484,-0.03959279542312176,-0.03304187259271264,-0.0011691716564093781
2025-11-24T18:00:00.538462,0.9401812860241139,0.9785659332340877,9.826475082927937,-0.08937839915380699,-0.08170468526294472,-0.00030092834281814475
2025-11-24T18:00:00.548077,0.8506751340551724,0.8895202385945069,9.823143501922916,-0.1386554732741658,-0.1299012681265323,0.000802680026248713
2025-11-24T18:00:00.557692,0.7601061284845727,0.7988656140476041,9.819728679046817,-0.18732586364083528,-0.1775383543158979,0.0021358938239334282
2025-11-24T18:00:00.567308,0.6686480926176154,0.7068625267577778,9.816233562226882,-0.23529402274058553,-0.224526880327501,0.0036919440628465534
2025-11-24T18:00:00.576923,0.5764583502797147,0.613759960370113,9.81265704024357,-0.28246602313793334,-0.27078165070586857,0.005462442173993719
2025-11-24T18:00:00.586538,0.48368049184414946,0.5197936243501393,9.808993983970836,-0.3287489239388084,-0.3162210817850652,0.007436793954521756
2025-11-24T18:00:00.596154,0.3904474596791545,0.425185239828379,9.805235552907769,-0.3740505411947482,-0.36076702139329564,0.009601691802134722
2025-11-24T18:00:00.605769,0.29688478619693626,0.33014290204066804,9.801369851566236,-0.41827960500465533,-0.40434460093979363,0.011940722370980386
2025-11-24T18:00:00.615385,0.2031138332369264,0.2348623865358428,9.797383028217162,-0.46134623234795397,-0.44688206497468785,0.01443411474035586
2025-11-24T18:00:00.625000,0.10925491195707669,0.13952919349946474,9.793260883199732,-0.5031626258542894,-0.4883105425247073,0.017058645013061553
2025-11-24T18:00:00.634615,0.015430196713134704,0.04432111547484918,9.788991002909707,-0.543643918164431,-0.5285637508302893,0.019787705402907103
2025-11-24T18:00:00.644231,-0.07823363003070556,-0.050588884405165846,9.784565354245592,-0.5827090939208185,-0.5675776322855065,0.022591538120213278
2025-11-24T18:00:00.653846,-0.1716030550160969,-0.1450297275443675,9.779983176517696,-0.6202819144500998,-0.6052899151439329,0.02543763093301447
2025-11-24T18:00:00.663462,-0.2645357904434609,-0.23882950039044903,9.77525392581037,-0.656291745172626,-0.6416395730451543,0.028291278314192765
2025-11-24T18:00:00.673077,-0.3568792770252224,-0.3318132618772653,9.77039998119769,-0.6906741684054066,-0.676566154996456,0.031116323800467707
2025-11-24T18:00:00.682692,-0.4484697081599249,-0.42380161695554147,9.765458811757188,-0.7233712794735312,-0.7100089712726797,0.03387609469206976
2025-11-24T18:00:00.692308,-0.5391316430869985,-0.5146101834706714,9.760484322087246,-0.7543316123110554,-0.7419061497719328,0.03653450243104417
2025-11-24T18:00:00.701923,-0.6286782557033204,-0.6040499634607979,9.755547148761684,-0.7835097000065956,-0.7721936203034215,0.03905722110704389
2025-11-24T18:00:00.711538,-0.7169122275617164,-0.6919285268581878,9.750733776517858,-0.8108653222272504,-0.8008041341589646,0.04141280744387779
2025-11-24T18:00:00.721154,-0.8036272392279333,-0.7780518189267159,9.746144461148564,-0.8363625191654446,-0.8276664654774246,0.043573618346271395
2025-11-24T18:00:00.730769,-0.8886099544698807,-0.8622263238434303,9.741890057467074,-0.8599684722698909,-0.8527049511492674,0.045516418906845185
2025-11-24T18:00:00.740385,-0.9716423457322378,-0.9442612867784664,9.73808794816047,-0.8816523723613633,-0.8758395032672737,0.04722263541912904
2025-11-24T18:00:00.750000,-1.0525041958433614,-1.0239707277427632,9.734857353662669,-0.901384404158526,-0.8969861838566219,0.048678274868993454
2025-11-24T18:00:00.759615,-1.1309756353818945,-1.1011750556061393,9.732314359834852,-0.9191349585831571,-0.9160583790633199,0.04987359122741247
2025-11-24T18:00:00.769231,-1.2068396192754667,-1.1757021876425715,9.73056700956054,-0.9348741423344255,-0.9329685541790922,0.05080261340106813
2025-11-24T18:00:00.778846,-1.2798842781985256,-1.2473881791515995,9.729710759033592,-0.9485716031177107,-0.9476305143589681,0.05146264739469704
2025-11-24T18:00:00.788462,-1.3499050842994231,-1.3160774520456227,9.729824510551268,-0.9601966454556616,-0.9599620444251804,0.051853834605332966
2025-11-24T18:00:00.798077,-1.4167067567547325,-1.3816227705318456,9.730967332760441,-0.9697185882585386,-0.9698877582400247,0.05197880732805004
2025-11-24T18:00:00.807692,-1.4801048122142457,-1.4438851315185228,9.733175906406418,-0.9771073125645635,-0.9773419542894137,0.051842437019005184
2025-11-24T18:00:00.817308,-1.5399266430590746,-1.5027336984434159,9.736462707810317,-0.9823339538765943,-0.9822712557349839,0.05145162562044627
2025-11-24T18:00:00.826923,-1.5960120060681993,-1.5580458220977622,9.740814948183393,-0.9853716936984781,-0.9846368207788494,0.050815067302180134
2025-11-24T18:00:00.836538,-1.6482128653236452,-1.6097071059537744,9.746194292427411,-0.9861965982105103,-0.9844159469452128,0.04994292627751797
2025-11-24T18:00:00.846154,-1.696392660823392,-1.6576114147912966,9.752537364974312,-0.9847884470245872,-0.9816029584552648,0.04884642671673657
2025-11-24T18:00:00.855769,-1.7404252091259749,-1.7016606911384615,9.75975701421795,-0.9811314920728865,-0.9762093522151897,0.047537404414193934
2025-11-24T18:00:00.865385,-1.7801935051759974,-1.7417644345572976,9.76774427227266,-0.9752150827848697,-0.9682632667041202,0.04602790105085488
2025-11-24T18:00:00.875000,-1.8155886590827068,-1.7778387248518177,9.776370937697298,-0.9670341010237069,-0.957808402205871,0.044329879637088475
2025-11-24T18:00:00.884615,-1.846509110647627,-1.809804734867381,9.785492728117378,-0.9565891844333725,-0.9449025458098351,0.04245511053936719
2025-11-24T18:00:00.894231,-1.872860175287676,-1.837586779303123,9.794952968732964,-0.9438867707342301,-0.9296158489889481,0.04041523989028499
2025-11-24T18:00:00.903846,-1.8945539118792334,-1.8611100732900125,9.804586764485487,-0.928939038808886,-0.9120289818621079,0.03822202127837657
2025-11-24T18:00:00.913462,-1.9115092620364236,-1.8802984931253797,9.814225534878997,-0.9117638392152058,-0.8922312506085553,0.035887670570522036
2025-11-24T18:00:00.923077,-1.9236523905383887,-1.8950726929079509,9.823701699712894,-0.8923846975587458,-0.8703187257743465,0.0334252922160305
2025-11-24T18:00:00.932692,-1.9309171710884843,-1.9053489133801889,9.832853249562135,-0.8708309367059153,-0.8463924113564593,0.0308493261558697
2025-11-24T18:00:00.942308,-1.9332458149718263,-1.9110387399109372,9.84152795541534,-0.847137902698852,-0.8205564896818791,0.028175976015322058
2025-11-24T18:00:00.951923,-1.9305897110305839,-1.9120499589516196,9.849587048059176,-0.8213472250086236,-0.7929166831611401,0.025423591617460377
2025-11-24T18:00:00.961538,-1.9229105992897633,-1.9082885574253021,9.856908276853662,-0.7935070301107202,-0.763578761899995,0.0226129817282499
2025-11-24T18:00:00.971154,-1.910182204694438,-1.899661818304522,9.863388310635106,-0.763672061593486,-0.7326471974521723,0.019767624953577412
2025-11-24T18:00:00.980769,-1.8923923882264817,-1.8860823726446683,9.868944482072541,-0.7319037101768423,-0.70022393794649,0.01691373542037935
2025-11-24T18:00:00.990385,-1.8695457418166352,-1.8674729657231433,9.87351591588371,-0.6982699888585863,-0.6664072805674124,0.01408013447198888
2025-11-24T18:00:01,-1.8416664226184318,-1.8437716141300864,9.877064113446169,-0.6628454839802167,-0.631290844935119,0.011297888556020335
2025-11-24T18:00:01.009615,-1.808800956681782,-1.8149368074435284,9.879573079943691,-0.6257112779471243,-0.5949626824754293,0.00859970401263099
2025-11-24T18:00:01.019231,-1.7710207463972387,-1.7809524366973073,9.881049074336815,-0.5869548028256812,-0.557504569164167,0.006019113586486264
2025-11-24T18:00:01.028846,-1.7284240443548902,-1.7418321837560333,9.881520036873926,-0.546669577612354,-0.5189915205892809,0.003589520256820533
2025-11-24T18:00:01.038462,-1.681137180304006,-1.697623162065838,9.88103470540836,-0.5049548073071819,-0.47949155706513424,0.001343165578816961
2025-11-24T18:00:01.048077,-1.629314857831449,-1.6484086450772615,9.87966138838147,-0.46191485203482463,-0.4390657475415493,-0.0006899235877919262
2025-11-24T18:00:01.057692,-1.573139383358817,-1.5943097474486836,9.87748634992116,-0.4176585891072058,-0.39776856886386297,-0.002482965405306355
2025-11-24T18:00:01.067308,-1.5128187475134647,-1.5354859560786982,9.874611796230612,-0.37229869426131107,-0.3556486137766156,-0.004013390763643499
2025-11-24T18:00:01.076923,-1.4485835503126978,-1.4721344633693305,9.871153501464871,-0.3259508729099057,-0.31274966051069847,-0.0052637134854113445
2025-11-24T18:00:01.086538,-1.3806828581680333,-1.4044883162410273,9.867238123172987,-0.27873308484540005,-0.26911209058801033,-0.006222268325750554
2025-11-24T18:00:01.096154,-1.3093792004284681,-1.332813426882077,9.863000226069756,-0.23076482775672624,-0.22477462028173814,-0.006883776391714782
2025-11-24T18:00:01.105769,-1.234943034758731,-1.2574044941513254,9.858579002726554,-0.18216656751571686,-0.17977629096013945,-0.0072496966062245705
2025-11-24T18:00:01.115385,-1.1576471043228973,-1.1785799018071874,9.85411467591975,-0.13305940216233605,-0.13415863544758258,-0.007328334984338008
2025-11-24T18:00:01.125000,-1.0777611455187754,-1.0966757368846576,9.849744575959399,-0.08356499939723486,-0.08796790351714706,-0.007134707090467196
2025-11-24T18:00:01.134615,-0.9955473619810721,-1.012039198616667,9.845598904928455,-0.03380576402306521,-0.04125720713259303,-0.006690169380744611
2025-11-24T18:00:01.144231,-0.911256960236468,-0.9250217783028689,9.841796251376502,0.016094883004747807,0.005911546699032746,-0.006021841088253504
2025-11-24T18:00:01.153846,-0.8251278770417587,-0.8359726257363493,9.83843900770989,0.06601225562738887,0.05346603372258236,-0.005161832615746294
2025-11-24T18:00:01.163462,-0.7373836725213965,-0.7452324772502023,9.835608938301935,0.11582029347104474,0.10132225771149742,-0.00414629274046263
2025-11-24T18:00:01.173077,-0.6482334611077547,-0.6531284358304187,9.833363218627364,0.16539164445818674,0.14938368145142955,-0.0030142936651247672
2025-11-24T18:00:01.182692,-0.5578727073620141,-0.5599697938172716,9.831731292198231,0.214597939940948,0.1975407284580887,-0.0018065856177205118
2025-11-24T18:00:01.192308,-0.4664846972671237,-0.4660449977798159,9.830712844672007,0.26331023336479276,0.2456706248853236,-0.000564264536089207
2025-11-24T18:00:01.201923,-0.37424248673146127,-0.37161978611813956,9.830277073758669,0.3113995680769757,0.29363756741677965,0.000672594887526903
2025-11-24T18:00:01.211538,-0.28131113408054037,-0.2769364691705207,9.830363300478387,0.3587376533854962,0.34129324434282066,0.001866286413252856
2025-11-24T18:00:01.221154,-0.18785005167914123,-0.18221425306409336,9.830882884571198,0.4051976471787764,0.3884777731605583,0.0029827541815507885
2025-11-24T18:00:01.230769,-0.0940153521156422,-0.08765044680502893,9.831722375680783,0.45065505069622797,0.43502111937477655,0.003992779537027978
2025-11-24T18:00:01.240385,3.790465300933891e-05,0.006577636777666421,9.83274782051278,0.49498870630760505,0.4807450249677772,0.004873052269480094
2025-11-24T18:00:01.250000,0.09415364663796573,0.10031027535846368,9.83381013226962,0.5380818598186993,0.525465424240702,0.005607097054031936
2025-11-24T18:00:01.259615,0.18817299762541115,0.19340262084985926,9.834751394786371,0.579823223614222,0.5689952819700049,0.006186000153895982
2025-11-24T18:00:01.269231,0.2819328527857979,0.2857218946990177,9.835411909943195,0.6201079724037561,0.6111477598182515,0.00660885865653904
2025-11-24T18:00:01.278846,0.37526490409025176,0.37714473182412594,9.835637719307186,0.6588386240097046,0.6517395981599406,0.00688288302504623
2025-11-24T18:00:01.288462,0.4679951635806973,0.4675548587091303,9.835288264909616,0.6959257880120489,0.6905945871441004,0.007023129593908616
2025-11-24T18:00:01.298077,0.5599439873636154,0.5568411716929734,9.834243806841537,0.7312887757938986,0.727546988210623,0.007051891832426606
2025-11-24T18:00:01.307692,0.6509265613703392,0.6448961522350967,9.83241218938836,0.7648560438478038,0.7624447570446002,0.006997802994386347
2025-11-24T18:00:01.317308,0.7407537862422185,0.7316144793992139,9.829734556171788,0.7965654099594248,0.7951524209357235,0.006894698140415941
2025-11-24T18:00:01.326923,0.8292334902567962,0.8168916935266802,9.826189665036527,0.8263639690929314,0.8255534853372509,0.006780276224310207
2025-11-24T18:00:01.336538,0.9161718860249999,0.9006228010323416,9.82179653410953,0.8542076484277427,0.8535522822409176,0.006694608714243787
2025-11-24T18:00:01.346154,1.0013751622634843,0.9827007540786121,9.816615243699957,0.8800603693473897,0.8790752103979285,0.006678551296258448
2025-11-24T18:00:01.355769,1.0846510785210965,1.0630147819868658,9.81074580757302,0.9038928256091753,0.9020713343904462,0.006772116163804945
2025-11-24T18:00:01.365385,1.165810413065984,1.1414486025911317,9.804325104076545,0.9256809424757163,0.9225123042440658,0.007012859019748441
2025-11-24T18:00:01.375000,1.2446681022503872,1.2178786006521716,9.797521935882669,0.9454041418266489,0.9403915567841057,0.007434337556490884
2025-11-24T18:00:01.384615,1.3210439248240267,1.2921721096575416,9.790530388575988,0.9630435831929334,0.9557227927105609,0.008064698387894715
2025-11-24T18:00:01.394231,1.3947626537608928,1.3641859575431918,9.783561784120709,0.9785805605547709,0.9685377838115294,0.008925434961367783
2025-11-24T18:00:01.403846,1.4656537106083372,1.4337654355197922,9.776835649715366,0.991995203768928,0.9788836223749583,0.010030341826394267
2025-11-24T18:00:01.413462,1.5335504682207293,1.50074382443833,9.770570214788377,1.0032655759688323,0.9868195634420172,0.011384691527808551
2025-11-24T18:00:01.423077,1.5982894209940834,1.5649425660262546,9.764972989346516,1.0123671991220764,0.9924136373412468,0.012984676199673221
2025-11-24T18:00:01.432692,1.6597094667919723,1.6261721184297282,9.760231958262255,1.019272999374714,0.9957392271415609,0.014817166984167407
2025-11-24T18:00:01.442308,1.7176515211347396,1.6842335228803538,9.756507856006964,1.0239536505473406,0.9968717995271317,0.016859842511376448
2025-11-24T18:00:01.451923,1.771958615227715,1.7389207317277326,9.7539278917372,1.0263783036925442,0.9958859452777228,0.019081723323598823
2025-11-24T18:00:01.461538,1.8224765299672567,1.7900237573208913,9.7525812066822,1.026515704217371,0.9928528457396785,0.021444117422337455
2025-11-24T18:00:01.471154,1.8690549188912151,1.8373326490445374,9.752516269905897,1.0243356911581503,0.9878382472530093,0.023901937181485575
2025-11-24T18:00:01.480769,1.9115488126933193,1.880642196796056,9.753740328303929,1.0198110338760114,0.9809009907081322,0.026405311858516967
2025-11-24T18:00:01.490385,1.9498203981798297,1.9197571333350956,9.75622089738249,1.012919500605922,0.9720921050398896,0.028901404877579532
2025-11-24T18:00:01.500000,1.9837410082804336,1.9544974991138526,9.759889122526578,1.0036459972139715,0.9614544387899429,0.031336334598891666
2025-11-24T18:00:01.509615,2.0131933038046914,1.984703760806581,9.764644693892777,0.991984587008323,0.9490227741938151,0.03365707529570059
2025-11-24T18:00:01.519231,2.038073636185736,2.0102412586108254,9.770361883639518,0.9779402087880563,0.9348243411343272,0.03581319774812707
2025-11-24T18:00:01.528846,2.0582945396698276,2.0310036160495772,9.776896189530449,0.9615299395129863,0.918879634034002,0.03775832838643978
2025-11-24T18:00:01.538462,2.073787218444874,2.046914877694693,9.784091025631744,0.9427836928418516,0.9012034430677545,0.039451266757430825
2025-11-24T18:00:01.548077,2.084503800338142,2.057930310953473,9.791783933923355,0.9217443091761754,0.8818060325790625,0.04085677174047902
2025-11-24T18:00:01.557692,2.0904190760254004,2.0640359602534386,9.799811913100957,0.8984670727500205,0.8606944233110917,0.041946075329621274
2025-11-24T18:00:01.567308,2.0915314724627705,2.065247126644287,9.808015636609149,0.8730187644316684,0.8378737597604339,0.04269720322657485
2025-11-24T18:00:01.576923,2.087863114196434,2.061605958995324,9.816242505435103,0.8454764038681163,0.8133487583502319,0.04309518369081905
2025-11-24T18:00:01.586538,2.0794589533139938,2.0531783246484925,9.82434861754563,0.8159258446882639,0.7871252186603633,0.04313221321568102
2025-11-24T18:00:01.596154,2.066385041885799,2.0400501198781695,9.832199831861898,0.7844603603934737,0.7592115460702351,0.04280781837962411
2025-11-24T18:00:01.605769,2.0487260627127437,2.022323194917667,9.839672173143974,0.7511793034118911,0.7296202100756052,0.042129018725432295
2025-11-24T18:00:01.615385,2.0265822541245613,2.0001110909813526,9.846651868767774,0.716186865081428,0.6983690646176821,0.041110473439208844
2025-11-24T18:00:01.625000,2.000065897175711,1.9735348034396203,9.853035311313587,0.6795909417392334,0.6654824727969485,0.03977458706147071
2025-11-24T18:00:01.634615,1.9692975753581339,1.9427187883869224,9.858729183018305,0.6415021190766153,0.6309921912658579,0.03815154422572269
2025-11-24T18:00:01.644231,1.9344024374615174,1.9077874102416141,9.863650874819749,0.6020327945048317,0.5949379810951079,0.036279234943184115
2025-11-24T18:00:01.653846,1.895506679596776,1.8688619809238576,9.86772923770946,0.5612964490571875,0.557367934759545,0.03420302546726306
2025-11-24T18:00:01.663462,1.8527344298101713,1.826058483034224,9.870905661127637,0.5194070629935931,0.5183385443428643,0.03197532826775407
2025-11-24T18:00:01.673077,1.8062051936023922,1.7794860344181895,9.873135463633353,0.476478652419732,0.4779145693608652,0.02965492770781097
2025-11-24T18:00:01.682692,1.7560320047788989,1.7292461563931034,9.874389546264043,0.43262489090644723,0.43616877970565715,0.02730603077703247
2025-11-24T18:00:01.692308,1.7023204000910594,1.675432923732051,9.87465618092159,0.38795877456298217,0.3931816500005174,0.024997038057283573
2025-11-24T18:00:01.701923,1.6451682788533077,1.6181340511693074,9.873942734167025,0.3425922968003987,0.3490410740099463,0.022799055430698087
2025-11-24T18:00:01.711538,1.5846666355812595,1.557432891491468,9.872277113912693,0.2966361163561433,0.30384215516476304,0.020784172367064785
2025-11-24T18:00:01.721154,1.5209010970575523,1.4934112138975522,9.86970876671492,0.2501992166365928,0.25768710822552005,0.019023520484451707
2025-11-24T18:00:01.730769,1.4539541620834548,1.426152542187898,9.866309092219925,0.20338855966413572,0.21068527236140294,0.017585120815674656
2025-11-24T18:00:01.740385,1.3839080160771329,1.355745783906683,9.862171138443545,0.15630874108526735,0.16295318975011883,0.016531545075432377
2025-11-24T18:00:01.750000,1.3108477706220345,1.2822888695061452,9.85740841638893,0.10906166556882997,0.11461466387311417,0.015917447476671585
2025-11-24T18:00:01.759615,1.2348649689804432,1.2058921311081927,9.852152683331022,0.0617462865223583,0.06580070238029825,0.015787056475047394
2025-11-24T18:00:01.769231,1.1560611916595227,1.1266811756768678,9.846550625483465,0.014458475649379307,0.016649278612001786,0.01617174527415853
2025-11-24T18:00:01.778846,1.074551569290493,1.0447990451705575,9.840759499604117,-0.03270891725350217,-0.0326951074375316,0.017087823686696757
2025-11-24T18:00:01.788462,0.9904679702140823,0.9604075084134699,9.834941916845036,-0.0796657963623347,-0.08208205674152182,0.01853470917568483
2025-11-24T18:00:01.798077,0.9039616167520261,0.8736874007432751,9.829260039277987,-0.12632438636761642,-0.13135607229110682,0.02049363849754463
2025-11-24T18:00:01.807692,0.815204925716863,0.7848380148122289,9.823869512738968,-0.17259871667121676,-0.1803575280004942,0.022927066830178054
2025-11-24T18:00:01.817308,0.7243924483608966,0.6940756281261204,9.818913493226837,-0.21840410455164666,-0.22892380596846718,0.025778862081456966
2025-11-24T18:00:01.826923,0.6317408582462515,0.601631304399258,9.814517142121064,-0.263656686099761,-0.27689060514937064,0.02897534244243215
2025-11-24T18:00:01.836538,0.5374879789550058,0.5077481243665073,9.810782953043988,-0.308273007456502,-0.32409342916469497,0.03242714222293699
2025-11-24T18:00:01.846154,0.44189087458424897,0.41267800958917644,9.807787208915347,-0.3521696640062215,-0.37036926681995025,0.03603184326703538
2025-11-24T18:00:01.855769,0.3452230687364719,0.31667832092290044,9.805577755219085,-0.3952629656646656,-0.41555847551978925,0.039677283263480564
2025-11-24T18:00:01.865385,0.24777100608340874,0.2200084442471538,9.804173152400473,-0.4374686152011372,-0.45950685273561603,0.04324543692675136
2025-11-24T18:00:01.875000,0.1498299108091438,0.12292660306163934,9.80356317505371,-0.47870140912813286,-0.5020678379861206,0.04661674196803474
2025-11-24T18:00:01.884615,0.05169924631386451,0.0256871380739893,9.803710565960436,-0.5188749909708718,-0.5431047514311331,0.049674698921554815
2025-11-24T18:00:01.894231,-0.04632193884721684,-0.07146153664200745,9.80455391412443,-0.5579016938951927,-0.5824929632334832,0.0523105198372219
2025-11-24T18:00:01.903846,-0.14393941520816658,-0.16827814019520074,9.806011489444607,-0.5956925098062943,-0.6201218940416096,0.05442755660519283
2025-11-24T18:00:01.913462,-0.24086755284669994,-0.26452880002617857,9.807985817351234,-0.632157223361464,-0.6558967536327274,0.055945230179844964
2025-11-24T18:00:01.923077,-0.3368321895750971,-0.3599864031447258,9.810368716373263,-0.6672047472228442,-0.6897399221303593,0.05680221962069218
2025-11-24T18:00:01.932692,-0.43157244383139803,-0.4544291689412489,9.813046480421542,-0.7007436801765861,-0.7215918684232474,0.05695874129607549
2025-11-24T18:00:01.942308,-0.5248414739098987,-0.5476387268634489,9.815904895106078,-0.732683082358029,-0.751411492885356,0.05639782761284862
2025-11-24T18:00:01.951923,-0.6164062891086273,-0.6393980651273247,9.818833824954407,-0.7629334284943851,-0.7791757893072921,0.05512558712753619
2025-11-24T18:00:01.961538,-0.7060467785505321,-0.729489711861176,9.821731163560703,-0.7914076671558132,-0.8048787577349314,0.053170493853700485
2025-11-24T18:00:01.971154,-0.7935541586604247,-0.8176944335752601,9.824505988106013,-0.818022288528916,-0.8285295700209228,0.05058181232146178
2025-11-24T18:00:01.980769,-0.8787290640855078,-0.9037906387107074,9.827080814848692,-0.8426982941670567,-0.8501500781379847,0.04742730872270978
2025-11-24T18:00:01.990385,-0.9613795213901175,-0.9875545946104107,9.829392920808598,-0.8653619760206192,-0.8697718346618237,0.04379041830977698
2025-11-24T18:00:02,-1.0413190529228937,-1.0687615008697515,9.831394767932087,-0.8859454497281201,-0.8874328438620854,0.039767035680300995
2025-11-24T18:00:02.009615,-1.1183651591047004,-1.147187383698778,9.833053622246721,-0.9043869421919536,-0.9031742690746988,0.035462078893051655
2025-11-24T18:00:02.019231,-1.1923384033848083,-1.222611671463585,9.834350498885078,-0.9206308912735724,-0.9170372860787371,0.030985958349912964
2025-11-24T18:00:02.028846,-1.263062253480665,-1.2948202038869656,9.83527859799283,-0.9346279600262816,-0.9290602094038286,0.026451056366074206
2025-11-24T18:00:02.038462,-1.3303637189059039,-1.3636083636308955,9.835841428848898,-0.9463350877475026,-0.9392759607482687,0.021968297425967655
2025-11-24T18:00:02.048077,-1.3940747030645178,-1.4287840242477852,9.8360508260746,-0.9557156861956742,-0.9477099230366163,0.01764387658497577
2025-11-24T18:00:02.057692,-1.4540338992706512,-1.4901700561595181,9.835925028900332,-0.9627400401143519,-0.9543782311586857,0.013576223918943815
2025-11-24T18:00:02.067308,-1.5100890239767641,-1.547606180803069,9.835486946880344,-0.9673859039450806,-0.959286564703603,0.009853305318645957
2025-11-24T18:00:02.076923,-1.5620991849242294,-1.60095001601657,9.834762701439447,-0.9696392281938752,-0.9624295008936934,0.006550368178512863
2025-11-24T18:00:02.086538,-1.6099371886974136,-1.6500772549824778,9.83378050921943,-0.9694949132001595,-0.9637904568939447,0.003728217853263015
2025-11-24T18:00:02.096154,-1.653491573242584,-1.6948810769449538,9.832569946050409,-0.9669574735391361,-0.963342222203006,0.0014320633159365076
2025-11-24T18:00:02.105769,-1.6926681285623433,-1.7352710460563172,9.83116159904229,-0.9620415012552901,-0.9610480660456935,-0.00030908275848192675
2025-11-24T18:00:02.115385,-1.7273906970315795,-1.7711718356975288,9.82958708068747,-0.9547718403665173,-0.9568633860021314,-0.0014825045778451439
2025-11-24T18:00:02.125000,-1.7576011491149583,-1.802522074151198,9.827879332597966,-0.9451834207726127,-0.9507378221221343,-0.0020914555872163635
2025-11-24T18:00:02.134615,-1.7832585856506862,-1.8292734691128094,9.826073084675263,-0.9333207335693129,-0.942617704664252,-0.0021544673736334694
2025-11-24T18:00:02.144231,-1.8043379684218468,-1.8513902180501431,9.824205287419193,-0.9192369531154576,-0.9324486678315762,-0.0017043426833249311
2025-11-24T18:00:02.153846,-1.8208284634459286,-1.8688486220354004,9.822315339815562,-0.9029927258526789,-0.9201782649728117,-0.0007868603022533194
2025-11-24T18:00:02.163462,-1.8327317598672477,-1.8816367947275658,9.820444998053238,-0.8846546643682605,-0.9057584495479237,0.0005407983458378641
2025-11-24T18:00:02.173077,-1.8400605244474355,-1.8897543551230733,9.818637938708285,-0.8642936206293185,-0.8891478255578852,0.0022118992651445025
2025-11-24T18:00:02.182692,-1.8428370388390436,-1.8932119951996649,9.81693902152243,-0.8419828600535032,-0.8703136187611553,0.004152272768171631
2025-11-24T18:00:02.192308,-1.841092013142492,-1.8920308415980887,9.815393325144575,-0.8177962916870579,-0.8492333653800336,0.006282664662892899
2025-11-24T18:00:02.201923,-1.8348635910750775,-1.8862416016013677,9.814045019391319,-0.7918069051112108,-0.8258963389097649,0.008521259254256173
2025-11-24T18:00:02.211538,-1.824196607648588,-1.8758835780662917,9.812936116788046,-0.7640855263156531,-0.8003047362112349,0.010786278994566167
2025-11-24T18:00:02.221154,-1.8091421545153992,-1.8610037060462863,9.812105136728462,-0.7346999583166909,-0.7724746345571021,0.012998536069946257
2025-11-24T18:00:02.230769,-1.789757431748971,-1.8416557673299625,9.811585726217015,-0.7037145341605975,-0.7424367179722284,0.015083798844585179
2025-11-24T18:00:02.240385,-1.7661057766318975,-1.8178998829484971,9.811405309946432,-0.6711900791942559,-0.7102367572070154,0.01697485467024601
2025-11-24T18:00:02.250000,-1.738256730449613,-1.78980230527432,9.811583872982014,-0.6371842578707193,-0.6759358221232908,0.01861319754068781
2025-11-24T18:00:02.259615,-1.706286044021372,-1.757435462236359,9.812132989116083,-0.6017522781538353,-0.6396102105497028,0.019950325317009052
2025-11-24T18:00:02.269231,-1.6702755833266818,-1.7208781535351154,9.81305519245166,-0.5649479391623354,-0.6013510864085733,0.020948674567215966
2025-11-24T18:00:02.278846,-1.630313123574521,-1.6802157609065924,9.814343765527756,-0.5268250057986623,-0.5612638310929013,0.021582238256139225
2025-11-24T18:00:02.288462,-1.5864920012071346,-1.6355403199202503,9.815982997685419,-0.487438854508043,-0.5194671307627259,0.021836904664709944
2025-11-24T18:00:02.298077,-1.5389105675615082,-1.5869503275154226,9.817948944924705,-0.44684826913707315,-0.47609184283134426,0.02171053918150824
2025-11-24T18:00:02.307692,-1.487671408266671,-1.5345502385605005,9.820210677855641,-0.40511720975548,-0.43127969090233276,0.021212817528597036
2025-11-24T18:00:02.317308,-1.432880372144675,-1.4784497192745003,9.822731929041243,-0.36231635707629223,-0.38518181968525805,0.020364812317869692
2025-11-24T18:00:02.326923,-1.374645548350363,-1.41876282914816,9.825472962464845,-0.31852425751823554,-0.3379572095063689,0.019198328002720307
2025-11-24T18:00:02.336538,-1.3130763806578327,-1.3556073505294595,9.828392422559958,-0.27382795051603354,-0.2897709266182468,0.017754965682665675
2025-11-24T18:00:02.346154,-1.2482830900703978,-1.289104462378805,9.831448909109724,-0.22832303872951307,-0.24079219366815047,0.0160848824625224
2025-11-24T18:00:02.355769,-1.1803765120170593,-1.2193788802405925,9.834602074901284,-0.18211325158792296,-0.19119231200209894,0.014245205716553003
2025-11-24T18:00:02.365385,-1.1094683762651874,-1.146559486002034,9.8378131407544,-0.1353096256525674,-0.14114253124773415,0.012298082885808786
2025-11-24T18:00:02.375000,-1.0356719910454908,-1.070780368889982,9.841044833466144,-0.0880294433326823,-0.09081199698290633,0.010308384586089571
2025-11-24T18:00:02.384615,-0.9591032523255929,-0.9921821137228981,9.844260833526866,-0.04039502892396399,-0.04036588560173096,0.008341115542386606
2025-11-24T18:00:02.394231,-0.8798818917136162,-0.9109131320383735,9.847424856239885,0.007467560644634272,0.010036225686706824,0.0064586229648601785
2025-11-24T18:00:02.403846,-0.7981328952591904,-0.8271308552135181,9.850499511544948,0.0554299486537995,0.06024175871245452,0.004717738469506839
2025-11-24T18:00:02.413462,-0.7139880476421006,-0.7410026819256363,9.853445121884922,0.10336295070376794,0.11010632056942735,0.0031670479912418357
2025-11-24T18:00:02.423077,-0.6275875628477238,-0.6527066493936274,9.856218706574872,0.15113815282666135,0.1594946681235431,0.0018445312119740524
2025-11-24T18:00:02.432692,-0.5390817600541435,-0.5624318337735736,9.858773331968967,0.19862948381920684,0.20828141062232447,0.0007758172494484328
2025-11-24T18:00:02.442308,-0.4486327521808008,-0.47037847554607815,9.861057976979387,0.24571467662736035,0.2563513962878397,-2.674602188497196e-05
2025-11-24T18:00:02.451923,-0.3564161308505754,-0.37675780749083276,9.863017996422172,0.2922765017155644,0.3035997427289185,-0.0005640992815302529
2025-11-24T18:00:02.461538,-0.26262262063910624,-0.28179156875313477,9.864596195861752,0.3382036805454361,0.3499315056571562,-0.0008495448007749402
2025-11-24T18:00:02.471154,-0.16745961630279213,-0.18571121658233847,9.865734461652583,0.38339144497065736,0.3952610185494852,-0.0009069706262208225
2025-11-24T18:00:02.480769,-0.07115243987876567,-0.08875687718366387,9.86637582126996,0.4277417638321806,0.4395109665620916,-0.0007683983001092388
2025-11-24T18:00:02.490385,0.02605488830196206,0.008823904297650573,9.866466757996708,0.47116327504699457,0.4826112857657382,-0.00047108583147700475
2025-11-24T18:00:02.500000,0.12389956191953413,0.10677754951869657,9.865959592854201,0.5135709401770117,0.5244980066977234,-5.4430005658020736e-05
2025-11-24T18:00:02.509615,0.2221007377086855,0.2048459063721068,9.864814782347565,0.5548854130580658,0.5651121707121823,0.0004431174443927283
2025-11-24T18:00:02.519231,0.320361213062857,0.30276772089822884,9.863003040096396,0.5950321162958463,0.604398914977965,0.0009869490453360606
2025-11-24T18:00:02.528846,0.4183700510033052,0.400280053694989,9.860507235533136,0.6339400526921144,0.642306752869689,0.001548878679215578
2025-11-24T18:00:02.538462,0.5158060877910823,0.4971195697241641,9.857324035742087,0.6715404215455034,0.6787870071176265,0.002109274342271325
2025-11-24T18:00:02.548077,0.6123421696565777,0.5930236533024564,9.853465251056313,0.7077651386594002,0.713793314839949,0.002658625841516808
2025-11-24T18:00:02.557692,0.7076498910478717,0.6877313575516866,9.848958838844407,0.7425453686473504,0.7472811164150669,0.0031984246650276363
2025-11-24T18:00:02.567308,0.8014045702374271,0.7809842640790914,9.843849511879272,0.7758101779269746,0.7792070469509222,0.0037412422793328677
2025-11-24T18:00:02.576923,0.8932901981860757,0.8725273637284428,9.838198882892591,0.8074854097297968,0.8095281670285034,0.004309927386143221
2025-11-24T18:00:02.586538,0.9830041136820392,0.962110061311203,9.832085068182572,0.8374928631369275,0.8382010107664135,0.004935909028965747
2025-11-24T18:00:02.596154,1.0702611846264296,1.0494873800501858,9.825601690032773,0.8657498284680213,0.8651804948858867,0.005656684217702367
2025-11-24T18:00:02.605769,1.1547973195036536,1.134421418018409,9.818856257991303,0.8921690035030132,0.8904188009477785,0.006512665488753905
2025-11-24T18:00:02.615385,1.2363721913848469,1.2166830876620787,9.811967948097324,0.916658798636084,0.9138643884381945,0.0075436409855009325
2025-11-24T18:00:02.625000,1.3147711116495713,1.2960541350147594,9.805064823660597,0.939124034814437,0.9354613064030546,0.008785140170596024
2025-11-24T18:00:02.634615,1.3898060303119497,1.3723293801976197,9.798280569192508,0.9594670396721602,0.9551489464353642,0.01026499805358642
2025-11-24T18:00:02.644231,1.4613156674181136,1.4453190560404685,9.791750861696725,0.9775891425203235,0.9728623286874566,0.012000377906984171
2025-11-24T18:00:02.653846,1.529164808750345,1.514851067121606,9.785609565480609,0.993392548556314,0.9885329514033832,0.013995459232203262
2025-11-24T18:00:02.663462,1.5932428432932733,1.5807729674007431,9.779984965800274,1.0067825431610884,1.0020901784751552,0.016239933269789633
2025-11-24T18:00:02.673077,1.6534616772400665,1.6429534738710485,9.774996233327892,1.0176699531128464,1.013463090337131,0.0187083800771774
2025-11-24T18:00:02.682692,1.709753207791029,1.7012833801016236,9.770750256442241,1.0259737762028025,1.022582672559972,0.021360537042040988
2025-11-24T18:00:02.692308,1.7620665628010224,1.7556757611663998,9.767338923944758,1.0316238777060074,1.0293841629407887,0.024142412859461976
2025-11-24T18:00:02.701923,1.8103653103776998,1.8060653515682008,9.764836909402666,1.0345636424549376,1.033809341469928,0.026988153310903235
2025-11-24T18:00:02.711538,1.8546248161434538,1.852406981293779,9.76330001046963,1.0347524716866208,1.0358085584862264,0.029822527215035723
2025-11-24T18:00:02.721154,1.8948298690520264,1.8946730370646743,9.762764116626538,1.032168021018649,1.0353423619256188,0.03256387977845028
2025-11-24T18:00:02.730769,1.9309726174460782,1.9328500689241856,9.763244873156811,1.0268080768247478,1.0323826718265354,0.03512740243839931
2025-11-24T18:00:02.740385,1.9630507826871781,1.9669348128386144,9.76473805153468,1.0186919580230307,1.0269135145778514,0.0374285851177802
2025-11-24T18:00:02.750000,1.991066079927214,1.9969299875521485,9.767220551703849,1.0078613204854228,1.0189313542815328,0.03938672445268371
2025-11-24T18:00:02.759615,2.0150227953349993,2.0228402381153576,9.770651890119263,0.9943802474987924,1.0084450616150424,0.04092834314786418
2025-11-24T18:00:02.769231,2.034926532729415,2.0446685511630274,9.77497598325066,0.9783345353615956,0.9954755681154466,0.041990348066840835
2025-11-24T18:00:02.778846,2.0507831997530777,2.062413372987087,9.780123024297419,0.9598301218616182,0.9800552721776072,0.04252275545458845
2025-11-24T18:00:02.788462,2.0625983175904032,2.076066545263723,9.786011284076203,0.9389906558089681,0.962227275921987,0.04249085463970373
2025-11-24T18:00:02.798077,2.0703767167562708,2.0856120658333404,9.792548742656281,0.9159542715346863,0.94204452557751,0.04187674341096166
2025-11-24T18:00:02.807692,2.07412264191245,2.0910256097049893,9.799634543666603,0.8908697049238502,0.9195689048058752,0.04068022016329838
2025-11-24T18:00:02.817308,2.073840232570147,2.092274726422196,9.807160324552418,0.8638919463972411,0.8948703013099697,0.038919049332057316
2025-11-24T18:00:02.826923,2.0695342835154182,2.0893196615953706,9.815011506334756,0.8351776589326295,0.868025647028989,0.036628629315696846
2025-11-24T18:00:02.836538,2.0612111463085925,2.0821148011355626,9.82306863206976,0.8048806002695372,0.83911793658979,0.03386109228358729
2025-11-24T18:00:02.846154,2.048879630720433,2.0706107708214416,9.831208823997398,0.7731472849616875,0.8082352561958054,0.030683865263272433
2025-11-24T18:00:02.855769,2.0325517958807713,2.0547572287167184,9.8393073911142,0.7401131034230307,0.7754698814233142,0.027177734011319427
2025-11-24T18:00:02.865385,2.0122435669904317,2.034506357479992,9.847239587335793,0.7058990815356355,0.7409175006135443,0.023434475378013866
2025-11-24T18:00:02.875000,1.9879751676766604,2.00981698212633,9.854882520845983,0.6706094221570716,0.7046765865055324,0.019554149012518618
2025-11-24T18:00:02.884615,1.9597714162831363,1.9806591127648108,9.862117243416739,0.6343299249786236,0.666847895911706,0.01564215540666352
2025-11-24T18:00:02.894231,1.9276619709021008,1.947018590824148,9.868831067912838,0.597127337572737,0.6275340566430764,0.01180616790179548
2025-11-24T18:00:02.903846,1.8916815928016284,1.9089014550885488,9.874920133996225,0.5590496541877092,0.5868392133046522,0.00815302430147519
2025-11-24T18:00:02.913462,1.8518704416952336,1.8663376549891513,9.880292165582398,0.5201273530379856,0.5448687345483609,0.004785623520658683
2025-11-24T18:00:02.923077,1.80827436626589,1.8193838059510883,9.884869279994641,0.48037554448862907,0.5017290133600867,0.0017998429456974265
2025-11-24T18:00:02.932692,1.7609451392154885,1.7681247878907467,9.888590652881273,0.4397969866919308,0.45752740485534205,-0.0007184944450221159
2025-11-24T18:00:02.942308,1.7099405974902282,1.7126741180574694,9.891414811569499,0.39838589988369766,0.4123723354627756,-0.002696516419465343
2025-11-24T18:00:02.951923,1.655324668322996,1.6531731501980602,9.893321314348752,0.3561324570002991,0.36637358642063844,-0.004076906231081607
2025-11-24T18:00:02.961538,1.5971672889647106,1.5897892253250947,9.894311595556573,0.31302774706707615,0.3196427166673156,-0.004820022882445913
2025-11-24T18:00:02.971154,1.535544256161733,1.5227129239249535,9.89440884220128,0.26906893046106406,0.2722935574685367,-0.004905358662522392
2025-11-24T18:00:02.980769,1.4705370542156104,1.452154580892619,9.893656903199748,0.22426426125743454,0.2244426877234365,-0.00433221594108078
2025-11-24T18:00:02.990385,1.402232709488475,1.3783402528116442,9.892118358385881,0.17863764195405718,0.17620978736829912,-0.003119563875901185
2025-11-24T18:00:03,1.3307237228514979,1.3015073719906092,9.889871933439549,0.13223239071605894,0.12771777085499694,-0.0013051070101393926
2025-11-24T18:00:03.009615,1.25610814453661,1.2219003544415155,9.887009437917996,0.08511394401770607,0.0790926239556922,0.0010563500016316824
2025-11-24T18:00:03.019231,1.178489870259488,1.1397664156695744,9.883632376596415,0.03737129203094435,0.030462899218897072,0.0038951299423851445
2025-11-24T18:00:03.028846,1.0979792434139257,1.0553517870261289,9.879848373717989,-0.0108829583954285,-0.018041139957362895,0.007129394053599544
2025-11-24T18:00:03.038462,1.014694021577199,0.968898452794575,9.87576754356996,-0.05951389074646734,-0.06628870605046844,0.010668251983843207
2025-11-24T18:00:03.048077,0.9287606876028625,0.8806414817615916,9.871498918062702,-0.10836684435232748,-0.11414996035193715,0.014415204035233132
2025-11-24T18:00:03.057692,0.8403159883282418,0.7908070224741982,9.867147008374149,-0.15727102429008746,-0.1614977047134922,0.018271834458287863
2025-11-24T18:00:03.067308,0.7495085329469727,0.6996110601058788,9.862808556272814,-0.20604385724672183,-0.2082091940681871,0.022141625383617535
2025-11-24T18:00:03.076923,0.6565003066713148,0.6072590557755769,9.858569536872555,-0.25449574204663167,-0.2541679369101723,0.025933701309888653
2025-11-24T18:00:03.086538,0.5614680199531283,0.513946555406743,9.854502510320788,-0.30243483146355626,-0.2992653311887675,0.02956627694017721
2025-11-24T18:00:03.096154,0.464604264843448,0.4198607523114319,9.850664473758766,-0.34967151614441155,-0.34340199268396987,0.0329695847495489
2025-11-24T18:00:03.105769,0.36611846083170035,0.32518285790970164,9.847095400510053,-0.39602236267217844,-0.38648866859279335,0.03608809627887698
2025-11-24T18:00:03.115385,0.2662375568813233,0.2300910327900958,9.843817623544444,-0.44131336904224044,-0.42844668015522797,0.038881906439831686
2025-11-24T18:00:03.125000,0.16520644349339011,0.13476357967773991,9.8408361186827,-0.48538250197472244,-0.46920789185060124,0.04132721548818937
2025-11-24T18:00:03.134615,0.06328802586499652,0.03938209496309277,9.838139625533806,-0.5280815361559668,-0.5087142413517111,0.04341591814522352
2025-11-24T18:00:03.144231,-0.03923710023037328,-0.05586569653796284,9.835702473839131,-0.5692772287884598,-0.5469168713740638,0.045154388770993925
2025-11-24T18:00:03.153846,-0.14207145495355158,-0.15078364923148507,9.833486967956425,-0.6088518666342309,-0.5837748952427151,0.046561622953667635
2025-11-24T18:00:03.163462,-0.24490207082915455,-0.24516561872599416,9.831446186461934,-0.6467032417563623,-0.6192538296942689,0.04766694226337453
2025-11-24T18:00:03.173077,-0.34740256339389314,-0.33879472839359176,9.8295270506635,-0.6827441434971828,-0.6533237534411415,0.048507474972512565
2025-11-24T18:00:03.182692,-0.4492358818871508,-0.4314435710906069,9.82767350734443,-0.7169014777106969,-0.6859572887984849,0.04912558743843373
2025-11-24T18:00:03.192308,-0.5500576537639182,-0.5228753719475729,9.825829667218235,-0.7491151236244896,-0.7171275415158647,0.04956637533934868
2025-11-24T18:00:03.201923,-0.6495199738632194,-0.6128460484601355,9.823942745150688,-0.7793366160231417,-0.7468061649698979,0.049875264449077646
2025-11-24T18:00:03.211538,-0.7472754571765096,-0.7011070249075617,9.821965667945248,-0.8075277138405423,-0.7749617328288368,0.05009574165227125
2025-11-24T18:00:03.221154,-0.8429813508852665,-0.7874086136112821,9.819859266017593,-0.8336589054433331,-0.8015585865181621,0.05026723573088903
2025-11-24T18:00:03.230769,-0.9363034738672369,-0.8715037522143402,9.817594049205772,-0.8577079102995357,-0.8265562479736757,0.0504231815214216
2025-11-24T18:00:03.240385,-1.026919736554574,-0.9531518727540296,9.815151648177116,-0.8796582453887806,-0.8499093725619199,0.0505893269707763
2025-11-24T18:00:03.250000,-1.1145230229462018,-1.0321226986906877,9.81252602434111,-0.8994979047696064,-0.871568120764001,0.05078237478047634
2025-11-24T18:00:03.259615,-1.1988232971872108,-1.108199836319223,9.809724486128582,-0.9172181570266739,-0.8914787965461812,0.05100907126329955
2025-11-24T18:00:03.269231,-1.2795489000750795,-1.181184104554956,9.806768431033879,-0.93281243596211,-0.9095846287908682,0.05126584936296072
2025-11-24T18:00:03.278846,-1.3564470922370016,-1.250896561473584,9.803693634088464,-0.9462753077995658,-0.9258266184657861,0.051539097136842814
2025-11-24T18:00:03.288462,-1.4292839678870255,-1.3171811149012818,9.80054988264618,-0.9576015286502503,-0.9401444046148452,0.051806060041931536
2025-11-24T18:00:03.298077,-1.4978439080866066,-1.379906499690249,9.797399814636186,-0.9667852346590898,-0.9524771124412584,0.052036303021443915
2025-11-24T18:00:03.307692,-1.5619287696679856,-1.4389673469007802,9.794316912617935,-0.9738193228590247,-0.9627641547323768,0.05219358071686978
2025-11-24T18:00:03.317308,-1.6213570230657521,-1.4942841085387766,9.791382708459473,-0.978695082748094,-0.9709459778528868,0.052237929005838284
2025-11-24T18:00:03.326923,-1.6759630687932041,-1.5458017220138607,9.788683349508236,-0.9814021297245439,-0.9769647654272798,0.05212781864102713
2025-11-24T18:00:03.336538,-1.7255969724667253,-1.5934870424584644,9.786305746822046,-0.9819286708531083,-0.9807651158973093,0.051822276592963526
2025-11-24T18:00:03.346154,-1.7701248308687436,-1.6373251897428118,9.784333553509848,-0.9802620971315519,-0.9822946951066217,0.05128293319576011
2025-11-24T18:00:03.355769,-1.809429886080982,-1.6773150412410605,9.782843220416021,-0.9763898490162317,-0.9815048543283992,0.0504759687546153
2025-11-24T18:00:03.365385,-1.8434143548653004,-1.713464153828881,9.781900377119834,-0.9703004598250764,-0.9783512099669458,0.049373923382233544
2025-11-24T18:00:03.375000,-1.8720017968414315,-1.7457834175286848,9.781556794847782,-0.9619846643807178,-0.9727941963913865,0.04795731639157891
2025-11-24T18:00:03.384615,-1.8951397645432415,-1.7742817443310621,9.781848176193696,-0.951436477840147,-0.9647996218608105,0.04621600475468174
2025-11-24T18:00:03.394231,-1.9128024682059985,-1.798961101555422,9.782792950682111,-0.9386541885951517,-0.9543392767808875,0.044150201438803695
2025-11-24T18:00:03.403846,-1.9249932126980511,-1.8198122020135197,9.784392128950877,-0.9236412391804502,-0.9413916493937915,0.0417710834516932
2025-11-24T18:00:03.413462,-1.931746386806029,-1.8368111350488454,9.786630114816584,-0.9064069766779821,-0.9259427799639972,0.039100949852987024
2025-11-24T18:00:03.423077,-1.9331287968912887,-1.849917150554317,9.78947625211856,-0.886967257552474,-0.9079872365059966,0.03617293655213545
2025-11-24T18:00:03.432692,-1.9292401550985778,-1.859071705869092,9.792886835596327,-0.865344913219897,-0.8875291479238621,0.03303034330645231
2025-11-24T18:00:03.442308,-1.9202125794981044,-1.864198789330495,9.79680733875731,-0.8415701166310241,-0.8645832057083952,0.029725658217296714
2025-11-24T18:00:03.451923,-1.9062090413967596,-1.8652064794395506,9.801174669329146,-0.8156807124609315,-0.839175554093714,0.026319361370441982
2025-11-24T18:00:03.461538,-1.887420779576536,-1.8619896724884515,9.805919317171599,-0.7877225713537829,-0.8113445278483249,0.022878556675692094
2025-11-24T18:00:03.471154,-1.8640637652434637,-1.8544338578421409,9.810967293690783,-0.757750009418381,-0.7811412409203998,0.019475441234371064
2025-11-24T18:00:03.480769,-1.8363743335954952,-1.8424197182078832,9.816241783748364,-0.7258262866754256,-0.7486300444828348,0.016185599401763066
2025-11-24T18:00:03.490385,-1.8046041067092153,-1.8258282416300329,9.821664458761225,-0.6920241633438627,-0.7138888528317944,0.013086118994826028
2025-11-24T18:00:03.500000,-1.7690143409659322,-1.804546025429197,9.827156439554013,-0.6564264561337516,-0.6770093045974039,0.010253566840642143
2025-11-24T18:00:03.509615,-1.7298698561270895,-1.7784705273634769,9.832638945208704,-0.6191265122071972,-0.6380967126009,0.007761904736866237
2025-11-24T18:00:03.519231,-1.6874327318023579,-1.7475151106873363,9.83803371878862,-0.5802285133002638,-0.5972697701264542,0.00568043899924892
2025-11-24T18:00:03.528846,-1.6419559697474582,-1.711613792071754,9.843263377705894,-0.5398475281440535,-0.5546600137517973,0.0040718646292944895
2025-11-24T18:00:03.538462,-1.5936773167758405,-1.6707256349354906,9.848251871134554,-0.49810923714729266,-0.510411063387174,0.0029904191159008764
2025-11-24T18:00:03.548077,-1.5428134440077286,-1.62483873957843,9.852925211479672,-0.4551492632034559,-0.464677650090386,0.002480142311611324
2025-11-24T18:00:03.557692,-1.4895547024195348,-1.573973759396105,9.857212583828446,-0.4111120687186191,-0.4176244217619678,0.0025732532801303015
2025-11-24T18:00:03.567308,-1.4340607214482384,-1.5181868312606976,9.861047856203957,-0.3661494200192563,-0.3694245196667702,0.0032886760492151315
2025-11-24T18:00:03.576923,-1.376457161952633,-1.457571778887477,9.864371436301516,-0.32041845984081535,-0.32025794718124245,0.004630757261808531
2025-11-24T18:00:03.586538,-1.31683393645928,-1.3922614545627214,9.86713234603035,-0.2740794566970461,-0.27030977706143006,0.006588229162057231
2025-11-24T18:00:03.596154,-1.2552451400435642,-1.32242813006289,9.869290309804658,-0.2272933173203218,-0.21976823821960242,0.009133496326013924
2025-11-24T18:00:03.605769,-1.1917108070689848,-1.2482829112490388,9.870817594607779,-0.18021895417344433,-0.16882268981970552,0.012222361050398853
2025-11-24T18:00:03.615385,-1.126220470058359,-1.1700742012762029,9.871700334138401,-0.13301059628370157,-0.11766146276573412,0.015794321729949917
2025-11-24T18:00:03.625000,-1.0587383890134907,-1.0880852616265055,9.8719391293258,-0.08581513142887208,-0.0664695612556687,0.019773551589378716
2025-11-24T18:00:03.634615,-0.989210244918594,-1.002630930045739,9.871548815981011,-0.03876957829992091,-0.015426268726032595,0.024070598366754722
2025-11-24T18:00:03.644231,-0.9175710272897348,-0.9140535712251806,9.870557393359764,0.00800120251370212,0.03529724140565327,0.028584772160651615
2025-11-24T18:00:03.653846,-0.8437537810334682,-0.8227183794527451,9.869004207365665,0.0543864474484535,0.08554015725989508,0.0332071288042058
2025-11-24T18:00:03.663462,-0.7676988173629052,-0.7290082171291556,9.866937576247583,0.10029096160819757,0.13515400076948758,0.03782391326870074
2025-11-24T18:00:03.673077,-0.6893629445780023,-0.6333182117448042,9.864412111099917,0.14563599442916741,0.1840041851060666,0.04232030583128549
2025-11-24T18:00:03.682692,-0.6087282480340006,-0.5360502998021868,9.861485994076231,0.19035939989315198,0.2319710450082332,0.04658431049976419
2025-11-24T18:00:03.692308,-0.5258099569158341,-0.43760781304559215,9.858218437069384,0.23441501225371822,0.2789502814671753,0.05051062564338151
2025-11-24T18:00:03.701923,-0.4406629759384928,-0.3383901179721221,9.854667481282469,0.2777712416247582,0.3248528430298809,0.05400433336628486
2025-11-24T18:00:03.711538,-0.3533867135046518,-0.2387872988880252,9.850888249616183,0.3204089577924607,0.36960433726854597,0.05698424437592028
2025-11-24T18:00:03.721154,-0.26412789476721427,-0.13917491230576307,9.84693174390046,0.3623187760755083,0.41314408570044775,0.05938574531839501
2025-11-24T18:00:03.730769,-0.17308112812304546,-0.039908896377811726,9.84284426029714,0.4034978901815592,0.45542390436435504,0.06116301511451588
2025-11-24T18:00:03.740385,-0.0804871215446175,0.058679224673003176,9.838667439118916,0.4439466094458055,0.4964066541222815,0.06229050602914346
2025-11-24T18:00:03.750000,0.01337138754265901,0.15628664151511718,9.83443887283467,0.4836647514517994,0.5360645965148906,0.06276362299490669
2025-11-24T18:00:03.759615,0.10817575582328984,0.2526428188040497,9.830193110918582,0.522648031538771,0.5743776092124221,0.06259857348362415
2025-11-24T18:00:03.769231,0.20357923492172608,0.3475120602981095,9.825962852517465,0.5608845908747125,0.6113313303289516,0.06183139440587678
2025-11-24T18:00:03.778846,0.29921596095275166,0.44069488087048486,9.821780106422928,0.5983518130568287,0.6469152926048523,0.06051619618963706
2025-11-24T18:00:03.788462,0.3947105658392414,0.532028088367991,9.81767711728529,0.6350135882793573,0.6811210835749544,0.05872270410123113
2025-11-24T18:00:03.798077,0.4896878115170515,0.6213835981079057,9.81368691153435,0.6708181829904671,0.7139405475260748,0.05653322192450131
2025-11-24T18:00:03.807692,0.5837816708713767,0.7086660917453982,9.809843400663164,0.705696848980227,0.745364037909178,0.05403918125310656
2025-11-24T18:00:03.817308,0.676643357514861,0.7938096612679278,9.806181068332615,0.7395632586085439,0.7753787270815113,0.051337456764735195
2025-11-24T18:00:03.826923,0.7679479381504974,0.8767735705629848,9.802734332506637,0.7723137975785523,0.8039669838452618,0.04852662286887318
2025-11-24T18:00:03.836538,0.8573993260440982,0.9575372600434786,9.799536695828088,0.8038286973049314,0.8311048529191379,0.045703312496943364
2025-11-24T18:00:03.846154,0.9447336053343185,1.036094720906848,9.796619772185906,0.8339739460333344,0.8567607156396777,0.04295882440594987
2025-11-24T18:00:03.855769,1.0297207278325329,1.1124483722152936,9.794012219877633,0.8626038754002948,0.880894253286323,0.040376110848425975
2025-11-24T18:00:03.865385,1.1121646481331446,1.186602608294014,9.791738552071212,0.8895642782268377,0.9034558462636058,0.03802725985230273
2025-11-24T18:00:03.875000,1.1919019592488282,1.2585572602762225,9.789817768666653,0.9146958864531491,0.9243865124790761,0.03597156570841017
2025-11-24T18:00:03.884615,1.268799124353799,1.328301303895949,9.788261786814418,0.9378380374408285,0.9436184226252816,0.03425425865237203
2025-11-24T18:00:03.894231,1.3427485024315786,1.3958071979722881,9.787073728848895,0.9588323769501504,0.9610759548909924,0.03290593957566356
2025-11-24T18:00:03.903846,1.413663495069593,1.4610262287403866,9.786246206615782,0.9775264688856857,0.9766772021028796,0.031942734091387606
2025-11-24T18:00:03.913462,1.4814732238734722,1.523885166104157,9.785759786837762,0.9937771991160624,0.9903358342447677,0.03136713714288643
2025-11-24T18:00:03.923077,1.5461171515508003,1.5842844335509159,9.78558184091255,1.007453883659556,1.001963229716507,0.031169466337479374
2025-11-24T18:00:03.932692,1.6075400058360145,1.642097888983462,9.785665985523254,1.0184410214066708,1.011470792743691,0.03132979248040876
2025-11-24T18:00:03.942308,1.6656872800356557,1.697174222492826,9.785952303263752,1.0266406558284158,1.0187723644431959,0.0318201843523954
2025-11-24T18:00:03.951923,1.7205014782956591,1.7493398831876537,9.786368489675365,1.031974323941684,1.0237866216842526,0.03260709761173449
2025-11-24T18:00:03.961538,1.771919165372255,1.7984033409254025,9.786831998245898,1.0343845784397108,1.0264393537489118,0.03365375076167563
2025-11-24T18:00:03.971154,1.819868796512872,1.8441603863461622,9.787253143360196,1.0338360684907664,1.0266655189923646,0.03492235153491464
2025-11-24T18:00:03.980769,1.8642692560712204,1.8864000974864512,9.787538993379664,1.0303161529367848,1.024411011806768,0.03637604824886878
2025-11-24T18:00:03.990385,1.9050290213639856,1.924911066504002,9.787597787552967,1.0238350088120745,1.0196341063374688,0.03798047947672913
2025-11-24T18:00:04,1.9420458883475427,1.9594874867635999,9.787343577567361,1.014425208173676,1.0123065766455184,0.03970480145011468
2025-11-24T18:00:04.009615,1.9752072416147488,1.9899347404294752,9.786700825084864,1.0021407663950217,1.0024145117408727,0.041522107921555
2025-11-24T18:00:04.019231,2.004390902887216,2.0160741874497603,9.785608738307207,0.9870556947034709,0.9899588406953197,0.04340922010764693
2025-11-24T18:00:04.028846,2.029466619577705,2.037746934897161,9.784025155485175,0.9692621107890214,0.9749555663160641,0.04534589628077202
2025-11-24T18:00:04.038462,2.0502982395373093,2.054816470317925,9.781929775972891,0.9488679849466397,0.9574356969242899,0.047313579192675675
2025-11-24T18:00:04.048077,2.066746574105403,2.067170169672461,9.779326533826252,0.9259946285270053,0.9374448764351461,0.049293859738040874
2025-11-24T18:00:04.057692,2.0786729029540565,2.0747198020727002,9.77624492674209,0.9007740506201445,0.9150427347953985,0.051266875550617826
2025-11-24T18:00:04.067308,2.085943015811367,2.0774012150415646,9.772740150514279,0.8733463031430365,0.8903019978438769,0.05320986617767126
2025-11-24T18:00:04.076923,2.0884316106550913,2.0751734041731607,9.768891947212554,0.843856908801953,0.8633073985766939,0.05509606646258886
2025-11-24T18:00:04.086538,2.086026805026464,2.0680171789318256,9.764802159189712,0.8124544385772302,0.8341544215376715,0.0568940537956345
2025-11-24T18:00:04.096154,2.078634494911513,2.055933637485517,9.760591074342095,0.7792882855179305,0.802947895978858,0.058567598856172735
2025-11-24T18:00:04.105769,2.0661822992550616,2.038942642844271,9.75639272363197,0.7445066668271503,0.7698004416214677,0.06007601552658071
2025-11-24T18:00:04.115385,2.048622836424683,2.0170814411153706,9.752349347424598,0.7082548734952676,0.7348307740711975,0.061374961613458914
2025-11-24T18:00:04.125000,2.025936107982522,1.990403487050348,9.748605305282835,0.6706737793197237,0.6981618992514715,0.06241760952268167
2025-11-24T18:00:04.134615,1.9981308457367304,1.9589774679094463,9.745300769480943,0.631898620250149,0.6599192551597971,0.06315609670998744
2025-11-24T18:00:04.144231,1.965244805908937,1.922886482916808,9.742565585270794,0.592058053782082,0.6202288733558828,0.06354318415005387
2025-11-24T18:00:04.153846,1.9273441195251875,1.8822273559224316,9.74051367977381,0.551273496402239,0.5792156235089679,0.06353407769557887
2025-11-24T18:00:04.163462,1.884521877968017,1.8371100921867358,9.739238372164117,0.5096587133563952,0.5370015868345066,0.06308837050532361
2025-11-24T18:00:04.173077,1.8368961384739384,1.7876574816569655,9.738808887793617,0.46731961521823556,0.4937046037974066,0.06217203652918735
2025-11-24T18:00:04.182692,1.7846075067013538,1.7340048003306723,9.739268279208392,0.42435421971834897,0.4494370695892216,0.06075937314095225
2025-11-24T18:00:04.192308,1.727816421054732,1.6762995203995847,9.740632798604071,0.3808527641494454,0.4043050892706823,0.05883478661078005
2025-11-24T18:00:04.201923,1.6667002401693778,1.6147009486873982,9.742892601911667,0.3368979846346621,0.3584081182507258,0.056394336473666
2025-11-24T18:00:04.211538,1.6014502360025042,1.5493797630396027,9.746013555067183,0.29256559930475434,0.31183918220633877,0.053446977739400464
2025-11-24T18:00:04.221154,1.5322686339326843,1.4805174696120402,9.749939863586224,0.24792503662576107,0.2646857008304198,0.05001544285109081
2025-11-24T18:00:04.230769,1.459365902925332,1.4083058208017065,9.754597228291717,0.2030404295085119,0.2170308558593193,0.04613669198588938
2025-11-24T18:00:04.240385,1.3829585333374244,1.3329461992772702,9.759896232296636,0.1579718442799168,0.16895536736237546,0.04186185449977368
2025-11-24T18:00:04.250000,1.3032675067182635,1.2546489205772104,9.765735702353208,0.11277664417322283,0.12053948352792743,0.037255608119014204
2025-11-24T18:00:04.259615,1.2205175745623833,1.173632387835159,9.772005868582427,0.06751083744109575,0.07186495396910564,0.03239499215123771
2025-11-24T18:00:04.269231,1.1349373672337546,1.0901220589559815,9.778591245995461,0.022230268220716283,0.023016754750589095,0.027367698965850073
2025-11-24T18:00:04.278846,1.0467602699504022,1.0043492240776524,9.785373245594766,-0.0230084246828406,-0.025915626949316106,0.022269911728014975
2025-11-24T18:00:04.288462,0.9562259130376886,0.916549612614991,9.792232577656524,-0.06814707123543706,-0.07483746478214741,0.017203760182152698
2025-11-24T18:00:04.298077,0.8635820178530111,0.8269618587270596,9.799051526032661,-0.11312539430285565,-0.12364864772926536,0.012274470681462736
2025-11-24T18:00:04.307692,0.7690862445472744,0.7358258644001289,9.80571613618445,-0.15788053292151416,-0.17224406426844574,0.0075872998265890945
2025-11-24T18:00:04.317308,0.673007648167688,0.6433811173561903,9.812118280724057,-0.20234663075011572,-0.220514408460081,0.003244353839783775
2025-11-24T18:00:04.326923,0.5756273801633337,0.549865042159657,9.818157491910465,-0.24645447465550455,-0.2683472671478683,-0.0006585962775688138
2025-11-24T18:00:04.336538,0.47723834433184364,0.455511469381534,9.82374243472682,-0.29013116992918914,-0.31562833380977945,-0.00403518681794134
2025-11-24T18:00:04.346154,0.3781436025949,0.3605492909060951,9.828791953958236,-0.3332998438751079,-0.3622426025091076,-0.006811303408771701
2025-11-24T18:00:04.355769,0.27865343297341655,0.26520134930750483,9.833235730873314,-0.375879392154291,-0.40807542350961296,-0.008927591003336097
2025-11-24T18:00:04.365385,0.17908108422879673,0.1696836118809492,9.837014675624795,-0.41778430722993887,-0.45301334309532143,-0.010341551905082087
2025-11-24T18:00:04.375000,0.07973744526930694,0.07420470479343097,9.840081225580157,-0.4589246355661192,-0.4969446952230622,-0.011029164843100663
2025-11-24T18:00:04.384615,-0.019074970563967064,-0.02103409749224228,9.842399708637698,-0.4992061004166451,-0.539759954726094,-0.010985962223641454
2025-11-24T18:00:04.394231,-0.11706818181474749,-0.11583834620101141,9.843946866961549,-0.5385304114598721,-0.5813518971285497,-0.010227509909883711
2025-11-24T18:00:04.403846,-0.21397443879743636,-0.21001933579988205,9.844712537511267,-0.5767957671670604,-0.6216156356519222,-0.008789246877259058
2025-11-24T18:00:04.413462,-0.3095509257403074,-0.3033925531679086,9.84470038783947,-0.6138975446239224,-0.6604486138737853,-0.0067256518991118865
2025-11-24T18:00:04.423077,-0.40358304653666377,-0.3957758701385306,9.843928546914038,-0.6497291698698241,-0.6977506173904917,-0.0041087074013553705
2025-11-24T18:00:04.432692,-0.49588600809512073,-0.48698777199527776,9.842429968789569,-0.6841831667233961,-0.7334238401076715,-0.0010256408651146466
2025-11-24T18:00:04.442308,-0.5863045389326969,-0.5768459129702788,9.840252415766262,-0.7171523795277593,-0.7673730193021662,0.0024240346300134787
2025-11-24T18:00:04.451923,-0.6747107174921728,-0.6651662189386964,9.837458027448106,-0.7485313431557651,-0.7995056463740143,0.006132078454630082
2025-11-24T18:00:04.461538,-0.7610000534149243,-0.751762661071946,9.834122525867246,-0.7782177355579847,-0.8297322609358607,0.009985482417768284
2025-11-24T18:00:04.471154,-0.8450861450261041,-0.8364477373056736,9.830334157010597,-0.8061138160572923,-0.8579668340686536,0.013870574788682139
2025-11-24T18:00:04.480769,-0.9268943810062371,-0.9190336218187066,9.826192449519125,-0.8321277510852435,-0.8841272368377122,0.01767701099686286
2025-11-24T18:00:04.490385,-1.006355232958079,-0.9993338575586975,9.821806784753619,-0.8561747607570884,-0.9081357777607316,0.021301443959560677
2025-11-24T18:00:04.500000,-1.0833976991561745,-1.0771653819467633,9.81729467167059,-0.8781780645965451,-0.9299197894272171,0.0246507322573866
2025-11-24T18:00:04.509615,-1.1579434167928455,-1.1523506299226483,9.81277956671712,-0.8980696434221572,-0.9494122545676621,0.02764459917346228
2025-11-24T18:00:04.519231,-1.2299018615577837,-1.2247194720173287,9.808388101499768,-0.9157908569630727,-0.9665524780133014,0.03021769393006281
2025-11-24T18:00:04.528846,-1.299166912217337,-1.2941108037622344,9.804246668435255,-0.9312929566067707,-0.9812868199186758,0.032321029270858455
2025-11-24T18:00:04.538462,-1.3656149119709726,-1.3603736804362088,9.800477432336349,-0.9445375106679004,-0.9935694961938691,0.033922777127911044
2025-11-24T18:00:04.548077,-1.4291042427431646,-1.4233679630179417,9.797193945944,-0.9554967280618993,-1.0033634224415173,0.03500840374088363
2025-11-24T18:00:04.557692,-1.4894763422637793,-1.4829644851491164,9.794496625766667,-0.9641536388923243,-1.0106410378524828,0.035580133957971195
2025-11-24T18:00:04.567308,-1.5465580190008212,-1.5390447593806647,9.792468385492226,-0.9705020724606975,-1.015385011170845,0.03565576393742571
2025-11-24T18:00:04.576923,-1.6001648612072477,-1.5915002274066619,9.791170731840948,-0.9745463622042426,-1.017588719066334,0.03526688787173849
2025-11-24T18:00:04.586538,-1.650105505938051,-1.640231044399463,9.79064060476451,-0.9763007025355782,-1.0172564132349458,0.03445665089485365
2025-11-24T18:00:04.596154,-1.6961865177771103,-1.6851443940334252,9.790888189108372,-0.9757880970886965,-1.014403052923342,0.03327717347277333
2025-11-24T18:00:04.605769,-1.7382176024848213,-1.7261523841703332,9.791895841680677,-0.973038887870711,-1.0090538415595165,0.031786813440104866
2025-11-24T18:00:04.615385,-1.7760168535365923,-1.7631696734075473,9.793618181028464,-0.9680889328990857,-1.0012435325920443,0.030047445844939243
2025-11-24T18:00:04.625000,-1.8094157277544927,-1.7961110747409337,9.795983296880083,-0.9609775723355812,-0.9910155556174384,0.028121936413385316
2025-11-24T18:00:04.634615,-1.8382634822313466,-1.824889426563166,9.798894966786358,-0.9517455606131491,-0.9784209863381964,0.026071941289440192
2025-11-24T18:00:04.644231,-1.8624308550268283,-1.849414028508729,9.802235730946974,-0.9404331403292211,-0.9635173682823724,0.023956090153818416
2025-11-24T18:00:04.653846,-1.8818128096133655,-1.8695899446139812,9.805870682999181,-0.9270784050787199,-0.9463673957159678,0.021828541935461188
2025-11-24T18:00:04.663462,-1.8963302008305536,-1.8853184561172984,9.809651876039576,-0.9117160561373642,-0.9270374802632481,0.019737877403631338
2025-11-24T18:00:04.673077,-1.9059302916061356,-1.8964988449352282,9.813423285744014,-0.8943766110935006,-0.9055962425677275,0.01772630921173626
2025-11-24T18:00:04.682692,-1.9105861500457284,-1.9030315020240123,9.81702628454941,-0.8750860800271664,-0.8821129917069418,0.01582921566066469
2025-11-24T18:00:04.692308,-1.910295042835585,-1.9048221443056217,9.820305550406658,-0.8538660953539515,-0.8566562808028602,0.014075008307015918
2025-11-24T18:00:04.701923,-1.9050759944143674,-1.9017867566631292,9.823115258503774,-0.8307344663759102,-0.8292926558326754,0.012485319166518181
2025-11-24T18:00:04.711538,-1.894966730216436,-1.8938567886384405,9.825325297072423,-0.805706120814946,-0.8000857321880974,0.011075456703105106
2025-11-24T18:00:04.721154,-1.8800202911356974,-1.8809841448795757,9.8268271538779,-0.7787943830076588,-0.7690957257287262,0.009855049640977871
2025-11-24T18:00:04.730769,-1.8603016745257357,-1.863145603073619,9.82753909568357,-0.7500125194736903,-0.7363795298174063,0.008828784477815137
2025-11-24T18:00:04.740385,-1.8358848782186832,-1.8403464209032148,9.827410325260486,-0.719375469617554,-0.7019913715293293,0.00799715071446992
2025-11-24T18:00:04.750000,-1.8068506671680427,-1.8126229890277161,9.826423909285339,-0.6869016931284687,-0.6659840074516123,0.007357134007001123
2025-11-24T18:00:04.759615,-1.773285254493406,-1.7800444240646105,9.82459837559276,-0.6526151067958214,-0.62841035097613,0.006902827101498512
2025-11-24T18:00:04.769231,-1.735279932409157,-1.7427130030984805,9.82198795475481,-0.6165471155010498,-0.5893253805252688,0.00662594412231628
2025-11-24T18:00:04.778846,-1.692931548285837,-1.7007633647331506,9.818681473137847,-0.5787387234144681,-0.5487881693128193,0.006516223886666659
2025-11-24T18:00:04.788462,-1.6463436103146372,-1.6543604565156347,9.814799886375,-0.5392426421331038,-0.5068638904980965,0.006561707962930516
2025-11-24T18:00:04.798077,-1.5956277246637511,-1.603696278215853,9.810492414647404,-0.49812523467319914,-0.46362566985935094,0.006748891176982493
2025-11-24T18:00:04.807692,-1.5409050340669543,-1.5489855357127043,9.805931276598448,-0.45546809062176563,-0.41915617397871935,0.007062764623939906
2025-11-24T18:00:04.817308,-1.4823073768291886,-1.4904603764177258,9.80130514086932,-0.4113690342938341,-0.3735488377895695,0.007486798501291611
2025-11-24T18:00:04.826923,-1.419978000915303,-1.4283644338695967,9.796811570813894,-0.36594241537289796,-0.3269086553421958,0.008002937156829757
2025-11-24T18:00:04.836538,-1.3540717925025811,-1.3629464787687966,9.792648858792878,-0.3193185990998173,-0.27935248269702173,0.008591686931923765
2025-11-24T18:00:04.846154,-1.2847550668209942,-1.2944540478345588,9.789007697396062,-0.27164264541162625,-0.23100882551220525,0.00923235473474477
2025-11-24T18:00:04.855769,-1.2122050134779494,-1.2231274648937056,9.786063121819552,-0.22307224305755002,-0.18201709747811565,0.00990344624296207
2025-11-24T18:00:04.865385,-1.1366089002819129,-1.1491946531325832,9.783967108565722,-0.17377504284421277,-0.13252634481308087,0.010583183157807562
2025-11-24T18:00:04.875000,-1.0581631360082573,-1.07286707497988,9.782842157755779,-0.1239255935678946,-0.08269345458160826,0.011250077756937347
2025-11-24T18:00:04.884615,-0.9770722874111978,-0.9943370551570658,9.782776126763647,-0.07370210313440444,-0.03268090776843255,0.011883515747254488
2025-11-24T18:00:04.894231,-0.8935481353512139,-0.9137766495190116,9.7838185146017,-0.023283224734851744,0.017345809933741938,0.012464321820213047
2025-11-24T18:00:04.903846,-0.8078088234884019,-0.8313381052823728,9.785978317727798,0.02715497640982217,0.0672209864323274,0.012975291217614983
2025-11-24T18:00:04.913462,-0.7200780970729882,-0.747155819870984,9.789223496738233,0.07744176158446009,0.11678148944970454,0.013401666184541059
2025-11-24T18:00:04.923077,-0.6305845697826081,-0.6613495702993758,9.793482021667785,0.12741407677346975,0.1658694684775868,0.013731535582993773
2025-11-24T18:00:04.932692,-0.5395609244124212,-0.574028677925346,9.798644408034598,0.17691847121442159,0.21433486411663105,0.013956142730592543
2025-11-24T18:00:04.942308,-0.4472429597685763,-0.4852967141062449,9.80456760704407,0.2258125514876815,0.26203766529035705,0.014070090462410945
2025-11-24T18:00:04.951923,-0.35386842388944584,-0.3952563536801344,9.811080058966112,0.27396598006756506,0.30884985910002877,0.014071432884670054
2025-11-24T18:00:04.961538,-0.2596756042095809,-0.30401403470991273,9.817987669662557,0.3212610442472192,0.3546570082250387,0.013961650055253372
2025-11-24T18:00:04.971154,-0.1649016768640038,-0.21168415183985995,9.825080448285647,0.3675928176502703,0.3993593811470977,0.013745512856865882
2025-11-24T18:00:04.980769,-0.06978085392481848,-0.11839257303218081,9.832139545412803,0.4128689196244564,0.4428725618960877,0.013430847240340908
2025-11-24T18:00:04.990385,0.025457584329025704,-0.02427932765118312,9.838944433261206,0.4570088590974678,0.485127485801625,0.013028198924949365
2025-11-24T18:00:05,0.12059121653947526,0.0704996198889563,9.845279970162723,0.4999429410655293,0.5260698861818066,0.01255039453110644
2025-11-24T18:00:05.009615,0.21540614105778352,0.16577152210590373,9.850943106960614,0.5416107243461628,0.5656591814542861,0.012011999220739651
2025-11-24T18:00:05.019231,0.30969812755408893,0.2613468656690391,9.855749028746924,0.5819590523925909,0.6038668649228897,0.011428682420132046
2025-11-24T18:00:05.028846,0.4032730923522974,0.3570201320966304,9.859536570819754,0.6209397340315054,0.6406744757727153,0.010816524596773017
2025-11-24T18:00:05.038462,0.4959468715857757,0.45257113146368333,9.862172798385172,0.6585070139902571,0.6760712390346556,0.010191327907339493
2025-11-24T18:00:05.048077,0.5875443956846709,0.547766715357765,9.863556694659746,0.6946150154534116,0.7100514706913833,0.009568011976883867
2025-11-24T18:00:05.057692,0.6778984277697137,0.6423626939427073,9.863621942411413,0.7292153406089014,0.7426118507766474,0.008960159569857032
2025-11-24T18:00:05.067308,0.766848018989355,0.7361058385438284,9.862338784611383,0.762254994537622,0.773748673926698,0.008379727871559448
2025-11-24T18:00:05.076923,0.8542367944734182,0.8287359252936566,9.859714921315126,0.7936747786425036,0.8034551973171248,0.007836890993386077
2025-11-24T18:00:05.086538,0.9399111472186141,0.9199878493364492,9.855795381042682,0.823408283610102,0.8317192188967809,0.007339960126794197
2025-11-24T18:00:05.096154,1.0237183958985483,1.0095938907665825,9.850661310200914,0.8513815785735819,0.8585210253243899,0.006895343369980635
2025-11-24T18:00:05.105769,1.1055049553615948,1.097286212782184,9.84442763808184,0.8775136332380052,0.8838318354625616,0.006507534321302742
2025-11-24T18:00:05.115385,1.1851145771651823,1.1827996099425866,9.837239591836806,0.9017174370478453,0.9076128231069691,0.006179136124642541
2025-11-24T18:00:05.125000,1.2623867516885072,1.2658744303237637,9.829268065579244,0.9239017132650135,0.9298147404375082,0.0059109384769628
2025-11-24T18:00:05.134615,1.3371554189832966,1.34625951742738,9.820703902095849,0.9439730767598471,0.9503781059434091,0.005702078399508989
2025-11-24T18:00:05.144231,1.4092481787915931,1.4237149827940712,9.811751237183971,0.9618384604627875,0.9692338873982154,0.005550321595899501
2025-11-24T18:00:05.153846,1.4784861841732637,1.4980146210760301,9.802620181578503,0.9774076437571655,0.9863046005400644,0.005452484172261081
2025-11-24T18:00:05.163462,1.5446848366194244,1.5689477950678374,9.79351923093085,0.9905957520589085,1.001505745487074,0.005404979588004686
2025-11-24T18:00:05.173077,1.6076552838336113,1.6363206458591342,9.784647846610058,1.0013256435834104,1.0147475147654361,0.005404440253339762
2025-11-24T18:00:05.182692,1.66720658748886,1.6999565405423935,9.776189628899928,1.0095301360316162,1.0259367331311133,0.005448335248166617
2025-11-24T18:00:05.192308,1.7231483403053252,1.7596957630906065,9.768306443706518,1.0151540339914864,1.0349790154721208,0.005535491196248487
2025-11-24T18:00:05.201923,1.7752935179064144,1.8153945569319114,9.761133791158132,1.0181558940957807,1.0417811264197894,0.005666433222657987
2025-11-24T18:00:05.211538,1.8234614212785474,1.866923703013161,9.754777615852724,1.0185094349586896,1.0462534819780445,0.005843495624334194
2025-11-24T18:00:05.221154,1.867480624338713,1.914166849038069,9.749312649555751,1.0162044998824433,1.0483126699579564,0.006070689432249305
2025-11-24T18:00:05.230769,1.907191858146405,1.957018802608539,9.744782260962685,1.0112475232725604,1.0478838183609271,0.006353343323088728
2025-11-24T18:00:05.240385,1.9424507629462178,1.9953839728841156,9.741199678009185,1.0036615117189873,1.04490263268417,0.006697557752547201
2025-11-24T18:00:05.250000,1.973130434783935,2.029175091220184,9.738550355291546,0.9934855963872202,1.0393169594992595,0.007109536059783156
2025-11-24T18:00:05.259615,1.9991236741876979,2.058312265227078,9.736795197668505,0.9807742319540184,1.0310878122696614,0.007594877338570645
2025-11-24T18:00:05.269231,2.0203448184935344,2.0827223518922167,9.735874339443075,0.9655961112733374,1.0201898990655298,0.008157922083455445
2025-11-24T18:00:05.278846,2.0367310438201964,2.10233861736189,9.735711217929236,0.948032841097973,1.0066117768970677,0.008801225079108828
2025-11-24T18:00:05.288462,2.0482430837074075,2.1171006983015905,9.736216745765416,0.9281773939620439,0.9903557820351797,0.009525194877275083
2025-11-24T18:00:05.298077,2.0548654077202197,2.126954952064765,9.737293445964344,0.9061323341893932,0.971437851358947,0.010327900562910422
2025-11-24T18:00:05.307692,2.056605977298315,2.131855319713313,9.738839450543233,0.8820078303249086,0.9498872938358234,0.011205023406159332
2025-11-24T18:00:05.317308,2.0534957084521173,2.131764804597063,9.740752274459176,0.8559195097297541,0.9257465249138416,0.01214993037967938
2025-11-24T18:00:05.326923,2.0455877316613686,2.1266576122458676,9.742932264399858,0.8279862559868194,0.8990707479746909,0.01315385421565296
2025-11-24T18:00:05.336538,2.0329564765187884,2.1165219258695096,9.745285605188686,0.7983280687032834,0.8699275583302514,0.014206162554520823
2025-11-24T18:00:05.346154,2.01569653680981,2.1013631959271404,9.747726778367559,0.767064096506299,0.8383964625685197,0.015294685083094403
2025-11-24T18:00:05.355769,1.993921207499357,2.0812076926939342,9.750180417898111,0.734310932055301,0.8045683414147417,0.016406052980052033
2025-11-24T18:00:05.365385,1.967760557132596,2.0561059420789665,9.752582560524253,0.7001812295895163,0.7685449051986295,0.017525998038656548
2025-11-24T18:00:05.375000,1.9373589245672231,2.026135597101403,9.75488130740615,0.6647826683412261,0.7304381688308358,0.01863956541047512
2025-11-24T18:00:05.384615,1.902871802104713,1.9914033160323363,9.757036912687736,0.6282172374981982,0.690369920003479,0.01973122081624333
2025-11-24T18:00:05.394231,1.8644621745950378,1.95204530076947,9.759021325738845,0.5905807657615435,0.6484711160705379,0.020784876348236392
2025-11-24T18:00:05.403846,1.8222965133991798,1.9082262667879104,9.760817240116085,0.5519625833185915,0.6048811534146372,0.021783896300936228
2025-11-24T18:00:05.413462,1.7765407469570698,1.860136760965468,9.762416733463017,0.5124452186194733,0.5597469956637359,0.022711155963462848
2025-11-24T18:00:05.423077,1.727356588043248,1.8079889159884075,9.763819624227336,0.4721041011369545,0.5132221903944674,0.023549215379877156
2025-11-24T18:00:05.432692,1.6748985433249899,1.7520109184789618,9.765031727816663,0.4310073261686246,0.46546582811550885,0.024280651410726623
2025-11-24T18:00:05.442308,1.6193117921680134,1.6924406414906086,9.766063243587402,0.3892155954041579,0.4166414966041087,0.024888570328116456
2025-11-24T18:00:05.451923,1.5607309911363896,1.6295190105485484,9.766927510152875,0.34678246197998425,0.36691625564271685,0.02535729721058658
2025-11-24T18:00:05.461538,1.4992799941809487,1.5634837091590137,9.76764031987149,0.303754985883399,0.3164596131309696,0.02567320812946794
2025-11-24T18:00:05.471154,1.4350724432303499,1.4945637764461135,9.76821990099638,0.2601748549268437,0.2654424539633117,0.025825640274356142
2025-11-24T18:00:05.480769,1.3682131200456937,1.4229755041615957,9.768687574605709,0.21607996667494447,0.21403588108862778,0.025807789275500294
2025-11-24T18:00:05.490385,1.298799854452919,1.3489198181217663,9.769068981968049,0.17150642151691162,0.1624099619914796,0.025617492520915445
2025-11-24T18:00:05.500000,1.22692571641213,1.2725810934558963,9.769395672996218,0.12649085161324758,0.11073240093311079,0.02525781074116704
2025-11-24T18:00:05.509615,1.152681239218899,1.194127194395249,9.769706773024609,0.08107298528087672,0.059167164131993764,0.02473735126562718
2025-11-24T18:00:05.519231,1.0761565270129545,1.113710488302274,9.770050417867083,0.03529830823615013,0.007873086257666348,0.024070308646634855
2025-11-24T18:00:05.528846,0.9974432331492279,1.031469618552636,9.770484658659031,-0.010779354413317005,-0.04299750687526697,0.023276221766916197
2025-11-24T18:00:05.538462,0.91663649109743,0.9475318654139869,9.771077568778272,-0.05709552409332978,-0.09330012143533825,0.02237946339996889
2025-11-24T18:00:05.548077,0.8338369026092002,0.8620159461705278,9.771906324268443,-0.10357318929473627,-0.14289932999610036,0.021408495115021395
2025-11-24T18:00:05.557692,0.7491526466110415,0.7750351012729735,9.773055089660634,-0.15012148568535905,-0.19166987876094344,0.02039493787355633
2025-11-24T18:00:05.567308,0.6627017013526356,0.6867002848859507,9.774611652301115,-0.19663502467557356,-0.23949761420240803,0.01937251989903235
2025-11-24T18:00:05.576923,0.5746141037621288,0.5971232445246952,9.776662922089654,-0.2429939371586211,-0.28628016641860016,0.01837596253938623
2025-11-24T18:00:05.586538,0.485034113598313,0.5064192714346143,9.779289612976353,-0.28906467481898196,-0.3319273329686385,0.017439852300496488
2025-11-24T18:00:05.596154,0.39412210486419524,0.4147094528261744,9.782560576971793,-0.33470156879598073,-0.37636112320254733,0.01659753035527916
2025-11-24T18:00:05.605769,0.3020559844029525,0.3221223469716307,9.786527322730423,-0.3797490878708148,-0.41951544386314116,0.015880019918085554
2025-11-24T18:00:05.615385,0.20903195826008164,0.22879510491832747,9.791219225625227,-0.4240446795415099,-0.4613354306644039,0.015315009429284494
2025-11-24T18:00:05.625000,0.11526453337713505,0.13487415644531844,9.796639857841402,-0.4674220272710129,-0.5017764496440763,0.014925910029280589
2025-11-24T18:00:05.634615,0.020985734981459645,0.040515642517665644,9.802764755746098,-0.5097145218180137,-0.5408027976817549,0.014731010520062307
2025-11-24T18:00:05.644231,-0.07355638638735686,-0.05411421238315171,9.8095408053258,-0.5507587310520864,-0.5783861297528378,0.014742768096336784
2025-11-24T18:00:05.653846,-0.16809981548221475,-0.14883864290228124,9.816887277425916,-0.590397664820822,-0.6145036483363981,0.014967291545221736
2025-11-24T18:00:05.663462,-0.2623710426507351,-0.24346973359993193,9.824698399867822,-0.6284836628412586,-0.6491361171015558,0.015404079050371333
2025-11-24T18:00:05.673077,-0.35608782860619986,-0.3378076682547185,9.832847227665734,-0.6648807752153011,-0.6822657981346442,0.016046061606864805
2025-11-24T18:00:05.682692,-0.448962206030789,-0.43163992942221263,9.841190479428507,-0.6994665548778898,-0.7138744403406969,0.016879985345336957
2025-11-24T18:00:05.692308,-0.5407036796702791,-0.5247406402583188,9.849573957745907,-0.7321332334380141,-0.7439414505356876,0.01788714516365631
2025-11-24T18:00:05.701923,-0.6310225601827588,-0.6168703312184127,9.857838163130772,-0.7627882908572777,-0.7724423558233605,0.01904444958638749
2025-11-24T18:00:05.711538,-0.7196333319752213,-0.7077764345918318,9.865823742723109,-0.7913544503653601,-0.7993476273642399,0.02032575097234178
2025-11-24T18:00:05.721154,-0.8062579462331187,-0.7971947277119071,9.873376489692719,-0.8177691490059137,-0.824621897975412,0.021703330670713405
2025-11-24T18:00:05.730769,-0.8906289482570047,-0.8848517837180561,9.88035171678849,-0.841983562933753,-0.8482235781670957,0.023149402369552662
2025-11-24T18:00:05.740385,-0.9724923648666326,-0.9704683028413773,9.886617937598272,-0.8639612947748462,-0.8701048547090785,0.02463749547170608
2025-11-24T18:00:05.750000,-1.0516102668914462,-1.0537630487677667,9.892059876043044,-0.8836768419829866,-0.890212039694548,0.026143604131083468
2025-11-24T18:00:05.759615,-1.1277628934983668,-1.134457047845642,9.896580875254767,-0.9011139551431163,-0.9084862312614846,0.02764703367033788
2025-11-24T18:00:05.769231,-1.200750216843469,-1.2122777313056015,9.900104782645464,-0.9162639680663284,-0.9248642531798847,0.029130933839628174
2025-11-24T18:00:05.778846,-1.2703928538175036,-1.2869627835364978,9.902577357946965,-0.9291241489554383,-0.9392798526263313,0.03058255941622061
2025-11-24T18:00:05.788462,-1.3365322749843391,-1.3582635588895091,9.903967217385853,-0.9396961026637685,-0.9516651418399904,0.03199332662256123
2025-11-24T18:00:05.798077,-1.3990303014788092,-1.4259480092827606,9.904266312735004,-0.9479842635861527,-0.961952260009703,0.03335873208864835
2025-11-24T18:00:05.807692,-1.4577679341684497,-1.4898031051950382,9.903489940789711,-0.9539945519320631,-0.9700752035651105,0.03467817284771308
2025-11-24T18:00:05.817308,-1.5126436424523915,-1.5496367276017968,9.901676269119898,-0.9577332941686805,-0.9759717359960407,0.035954664996215656
2025-11-24T18:00:05.826923,-1.5635713323596874,-1.605278973528666,9.898885349583455,-0.9592065020425786,-0.9795852600068817,0.03719442815276339
2025-11-24T18:00:05.836538,-1.6104782706138345,-1.65658279819925,9.895197591536881,-0.9584195625209306,-0.9808665278636194,0.0384063007341462
2025-11-24T18:00:05.846154,-1.653303229807023,-1.7034239592867042,9.890711689829141,-0.9553773380003088,-0.9797750854333186,0.03960097585322951
2025-11-24T18:00:05.855769,-1.6919950366513745,-1.745700332289589,9.885542033782624,-0.9500846354201505,-0.9762803881429313,0.04079008230677973
2025-11-24T18:00:05.865385,-1.7265115830175706,-1.7833307700016883,9.879815652037271,-0.9425469783717841,-0.9703625764579632,0.04198516254589428
2025-11-24T18:00:05.875000,-1.7568192535549247,-1.8162537136773709,9.873668785553427,-0.9327715986336734,-0.9620129353333438,0.04319661098477488
2025-11-24T18:00:05.884615,-1.7828926703187642,-1.8444257102760628,9.867243232668532,-0.9207685473166063,-0.9512340816544387,0.044432628057937684
2025-11-24T18:00:05.894231,-1.8047146442306434,-1.8678198931953505,9.860682649475104,-0.9065518179073163,-0.9380399341686665,0.0456982200440117
2025-11-24T18:00:05.903846,-1.8222762300796709,-1.8864244075381762,9.854128986187208,-0.8901403843014382,-0.9224555254059084,0.04699425105498253
2025-11-24T18:00:05.913462,-1.835576800874019,-1.9002407409181796,9.847719206256782,-0.8715590875281519,-0.9045167063120079,0.048316562650565616
2025-11-24T18:00:05.923077,-1.8446240876002018,-1.909281951826116,9.841582405450882,-0.850839347867574,-0.8842697672268299,0.049655223346615325
2025-11-24T18:00:05.932692,-1.8494341499500822,-1.9135708404152063,9.835837429490903,-0.8280197239376165,-0.8617709673123151,0.050994016390785574
2025-11-24T18:00:05.942308,-1.8500312263829115,-1.9131381463762074,9.830591050526827,-0.8031463712156572,-0.8370859469317415,0.052310275914848145
2025-11-24T18:00:05.951923,-1.8464473611938832,-1.9080208625420139,9.825936688006731,-0.7762734506070994,-0.8102889961126113,0.05357513623637487
2025-11-24T18:00:05.961538,-1.838721661601007,-1.8982607262850568,9.821953581598954,-0.7474634997895808,-0.7814621614685715,0.054754201248773365
2025-11-24T18:00:05.971154,-1.8268990501506281,-1.8839029232597633,9.818706290418646,-0.716787730431315,-0.7506941951000512,0.05580860182701644
2025-11-24T18:00:05.980769,-1.811028467989259,-1.8649950345208564,9.816244404485532,-0.6843261866370903,-0.7180793816767782,0.0566963939665099
2025-11-24T18:00:05.990385,-1.7911606209002169,-1.8415862710252568,9.814602368472766,-0.6501677052095552,-0.6837163138257201,0.0573742490015898
2025-11-24T18:00:06,-1.767345487170544,-1.8137270393107239,9.813799315449458,-0.6144096361801187,-0.6477067104895506,0.05779938752596056
2025-11-24T18:00:06.009615,-1.7396298950016373,-1.781468856977405,9.81383881948859,-0.5771572873265448,-0.6101543811019747,0.05793169459999187
2025-11-24T18:00:06.019231,-1.708055522255668,-1.7448646102043508,9.81470852758802,-0.5385230525084072,-0.5711644214015168,0.05773591415433508
2025-11-24T18:00:06.028846,-1.6726576581948573,-1.703969151369763,9.81637970772951,-0.49862519734344857,-0.530842681307141,0.057183768133427106
2025-11-24T18:00:06.038462,-1.6334649811730275,-1.6588402769129935,9.818806821021118,-0.4575863161004653,-0.48929548787700844,0.05625581567083825
2025-11-24T18:00:06.048077,-1.5905004660644522,-1.6095401674864378,9.82192728146778,-0.4155315194404181,-0.44662956421663086,0.05494288609934531
2025-11-24T18:00:06.057692,-1.5437833792376496,-1.5561373693595137,9.825661604700862,-0.3725864457257047,-0.40295207090150054,0.05324698106602775
2025-11-24T18:00:06.067308,-1.4933321763048366,-1.4987093306582968,9.829914151755757,-0.3288752112089845,-0.35837070178128605,0.051181613889539186
2025-11-24T18:00:06.076923,-1.4391680062613883,-1.4373453936782252,9.83457462889481,-0.2845184281737679,-0.3129937782053717,0.04877161099208859
2025-11-24T18:00:06.086538,-1.381318458827415,-1.3721500223265106,9.839520412754293,-0.23963142108857774,-0.26693029727011625,0.04605243723320833
2025-11-24T18:00:06.096154,-1.3198211814872916,-1.3032459528779887,9.844619654732194,-0.19432276571638105,-0.2202898977664017,0.04306913376080453
2025-11-24T18:00:06.105769,-1.254727047282467,-1.2307769200652798,9.849735008564934,-0.14869327254957557,-0.1731827152514362,0.03987497513029331
2025-11-24T18:00:06.115385,-1.1861026661134997,-1.1549096322426304,9.85472774958964,-0.1028355219447137,-0.1257191114986157,0.036529954118588615
2025-11-24T18:00:06.125000,-1.1140321655620267,-1.0758347413119291,9.859462037076028,-0.05683401488908981,-0.0780092843524678,0.03309918264821959
2025-11-24T18:00:06.134615,-1.0386182795740158,-0.9937666594657406,9.863809109962556,-0.010765930635993253,-0.030162785090249687,0.02965126073551331
2025-11-24T18:00:06.144231,-0.9599828578363402,-0.908942199062766,9.867651259781692,0.035297595255915144,0.01771201564710169,0.026256628399662196
2025-11-24T18:00:06.153846,-0.8782669457851091,-0.821618139737856,9.870885444787763,0.08128980902456256,0.06550846793197518,0.02298589550819467
2025-11-24T18:00:06.163462,-0.7936305735484451,-0.7320679340895578,9.873426396599694,0.12714643775426027,0.11312214488052695,0.019908146030701856
2025-11-24T18:00:06.173077,-0.7062523263145065,-0.6405778234906409,9.87520907014776,0.17280368051589015,0.16045126411404284,0.017089224350178168
2025-11-24T18:00:06.182692,-0.6163286884979363,-0.5474426466592215,9.876190322134223,0.21819621730986088,0.207396982294549,0.014590017018022998
2025-11-24T18:00:06.192308,-0.5240731172723588,-0.45296160874649216,9.876349741004603,0.2632553673389105,0.2538635198665887,0.012464740654538915
2025-11-24T18:00:06.201923,-0.42971482153235385,-0.3574342576388034,9.875689563080506,0.30790752539309413,0.29975809555621225,0.01075924682147709
2025-11-24T18:00:06.211538,-0.33349727709072263,-0.26115688131904946,9.874233624753748,0.3520729836807725,0.3449906869361033,0.009509367225687456
2025-11-24T18:00:06.221154,-0.23567657672824766,-0.16441947306184843,9.872025373589473,0.3956652118491041,0.38947366161229563,0.008739341779984387
2025-11-24T18:00:06.230769,-0.13651976604860347,-0.06750330668986244,9.869125092369528,0.43859062664232396,0.4331213306693645,0.00846038807592881
2025-11-24T18:00:06.240385,-0.03630331132146701,0.029320940414898577,9.865606613583203,0.48074884061709944,0.4758494708152745,0.008669488338368421
2025-11-24T18:00:06.250000,0.06468822645307166,0.12579463249815886,9.86155384604503,0.5220333452103912,0.5175748537364173,0.009348499291956348
2025-11-24T18:00:06.259615,0.16616333337637637,0.22167228756808843,9.85705738288952,0.5623325595937726,0.5582148104739436,0.01046372536296281
2025-11-24T18:00:06.269231,0.267824590756511,0.31672239097390653,9.852211354802483,0.6015311557463875,0.597686849610325,0.011966113045345249
2025-11-24T18:00:06.278846,0.3693697409318178,0.410727881779388,9.847110595240187,0.6395115498890764,0.6359083518096253,0.013792202426549407
2025-11-24T18:00:06.288462,0.4704928638755882,0.5034862635178917,9.841848128313117,0.6761554443598736,0.672796377475949,0.01586590659745366
2025-11-24T18:00:06.298077,0.5708857129101491,0.5948093243471304,9.836512971614493,0.7113453268305073,0.7082676264677021,0.018101097284955948
2025-11-24T18:00:06.307692,0.6702392115735664,0.6845225097217594,9.83118824572095,0.7449658790580692,0.7422385634605119,0.020404879255975023
2025-11-24T18:00:06.317308,0.7682451034587063,0.7724640344664245,9.825949583573362,0.7769052875172204,0.7746256850224911,0.022681354088719883
2025-11-24T18:00:06.326923,0.8645977812055134,0.8584838346652086,9.820863835330067,0.807056460493873,0.8053458815214836,0.024835621022416474
2025-11-24T18:00:06.336538,0.9589963543252698,0.9424424465794649,9.81598807354933,0.8353181448869116,0.834316847002314,0.02677775510004692
2025-11-24T18:00:06.346154,1.0511469972805831,1.024209864745405,9.811368917396958,0.8615959239569686,0.8614575073526303,0.02842653789441636
2025-11-24T18:00:06.355769,1.1407655464031925,1.1036643873864298,9.807042205241522,0.8858030803000871,0.8866884648942832,0.029712762384827392
2025-11-24T18:00:06.365385,1.2275802218067329,1.1806914248852067,9.803033054671312,0.9078613220008258,0.9099324841667839,0.030581965727826555
2025-11-24T18:00:06.375000,1.3113342813488413,1.2551822327372129,9.79935636433192,0.9277013804996318,0.9311150545615018,0.030996471919333638
2025-11-24T18:00:06.384615,1.3917884062395545,1.3270325289001477,9.796017821261648,0.9452634939208864,0.9501650590487328,0.03093666722016188
2025-11-24T18:00:06.394231,1.4687226831086224,1.3961409712116246,9.793015452866165,0.9604978002927506,0.9670155646567837,0.030401475537078892
2025-11-24T18:00:06.403846,1.5419381481060366,1.4624075122769629,9.790341693153827,0.973364683494042,0.9816047350680029,0.029408037801157295
2025-11-24T18:00:06.413462,1.6112579341791726,1.5257317086654467,9.78798583982465,0.9838351237788735,0.9938768459107855,0.027990636709758
2025-11-24T18:00:06.423077,1.6765280754400007,1.5860111100780807,9.785936695613533,0.9918910851594961,1.0037833588401497,0.026198946498083058
2025-11-24T18:00:06.432692,1.7376179755565908,1.6431398630220235,9.784185133791139,0.9975259240352361,1.0112839887000797,0.024095710484352238
2025-11-24T18:00:06.442308,1.7944204765011964,1.6970076327258476,9.782726310944664,1.0007447497039508,1.01634768756803,0.021753954833722486
2025-11-24T18:00:06.451923,1.8468514226709611,1.7474989152980072,9.781561274593773,1.001564634842663,1.0189534738477015,0.019253854198917238
2025-11-24T18:00:06.461538,1.8948486359302206,1.794492812083013,9.780697773866722,1.0000145715982571,1.0190910499127568,0.016679382901440144
2025-11-24T18:00:06.471154,1.9383702800294098,1.8378633513206286,9.780150158893992,0.9961350838061315,1.0167611688157918,0.014114900625697993
2025-11-24T18:00:06.480769,1.9773926539250035,1.8774804303569408,9.779938332761985,0.9899774227969674,1.0119757256585507,0.011641819854851273
2025-11-24T18:00:06.490385,2.011907497619517,1.913211413133555,9.780085795732697,0.9816022921101565,1.0047575691115147,0.00933548660731205
2025-11-24T18:00:06.500000,2.0419189343958752,1.9449233729879467,9.78061689154992,0.9710780755840996,0.9951400543194248,0.0072623893263565505
2025-11-24T18:00:06.509615,2.0674402109870615,1.9724859196461368,9.781553427989179,0.9584785912181246,0.9831663752073165,0.005477799131350758
2025-11-24T18:00:06.519231,2.0884904176055996,1.9957744829921749,9.782910910629516,0.9438804532364737,0.9688887075141043,0.004023932247765793
2025-11-24T18:00:06.528846,2.105091369172947,2.014673856861768,9.78469470623288,0.9273601806157641,0.9523671684524403,0.0029287032360302504
2025-11-24T18:00:06.538462,2.117264816698349,2.029081754667533,9.786896512387191,0.9089912322926819,0.9336685780285827,0.0022051040540014303
2025-11-24T18:00:06.548077,2.1250301375474367,2.0389121109076886,9.789491514717696,0.8888411784976965,0.9128650156404339,0.0018512070469670686
2025-11-24T18:00:06.557692,2.1284026232461484,2.0440978948745188,9.792436554747287,0.8669692317340774,0.8900322087670388,0.001850762722131774
2025-11-24T18:00:06.567308,2.1273924441138754,2.04459328389732,9.7956695324553,0.8434243492208536,0.8652478472816926,0.0021743542202049466
2025-11-24T18:00:06.576923,2.1220043227388357,2.0403751348001684,9.799110153884778,0.8182440790599991,0.8385899584577905,0.002781071018691701
2025-11-24T18:00:06.586538,2.112237895110474,2.031443752921672,9.802662029374382,0.7914542701520957,0.8101354888644597,0.0036206521098268037
2025-11-24T18:00:06.596154,2.0980886926851916,2.0178229842541695,9.806216046750881,0.763069717382858,0.7799592192544907,0.0046360146944408945
2025-11-24T18:00:06.605769,2.079549659767938,1.9995596652073433,9.809654876862124,0.733095768331963,0.7481330973228741,0.005766044883791214
2025-11-24T18:00:06.615385,2.0566131250953714,1.9767224645986858,9.812858394476214,0.7015308613382009,0.7147260313051778,0.006948499617008228
2025-11-24T18:00:06.625000,2.0292731510442183,1.949400147675638,9.815709711121007,0.6683698884984055,0.6798041574454178,0.0081228537331034
2025-11-24T18:00:06.634615,1.997528182063406,1.9176992975965115,9.818101436299356,0.6336081923532323,0.6434315650264885,0.009232920307837653
2025-11-24T18:00:06.644231,1.961383921456954,1.8817415675754752,9.819941736944974,0.5972459352432594,0.6056714191586317,0.01022908941985562
2025-11-24T18:00:06.653846,1.9208563838765056,1.841660610744734,9.821159769742112,0.5592925400581866,0.5665873701117565,0.011070088067508022
2025-11-24T18:00:06.663462,1.8759750709225733,1.7975989142620104,9.821710110161256,0.5197708880599146,0.5262450944546704,0.011724253623358383
2025-11-24T18:00:06.673077,1.8267861701071604,1.749704799983727,9.82157587394036,0.47872096883048126,0.48471378677896426,0.01217039186309084
2025-11-24T18:00:06.682692,1.7733555954296405,1.6981298183307771,9.820770311253176,0.43620271277594275,0.44206742107352853,0.012398313484729098
2025-11-24T18:00:06.692308,1.715771624404504,1.6430266761169563,9.81933675498256,0.39229780153615573,0.3983856389221321,0.012409105850055934
2025-11-24T18:00:06.701923,1.6541468856400243,1.5845477507620425,9.817346918938997,0.3471103366537234,0.353754191226574,0.012215135997571262
2025-11-24T18:00:06.711538,1.588619511989399,1.5228441744640933,9.814897653125913,0.30076633252184903,0.3082649353593884,0.01183973562228683
2025-11-24T18:00:06.721154,1.5193533692810142,1.4580654128042232,9.812106357316635,0.25341207403034505,0.2620154484607643,0.011316502666265582
2025-11-24T18:00:06.730769,1.4465373739111773,1.3903592129991444,9.80910532817905,0.20521144689239146,0.21510835274748022,0.01068816370475343
2025-11-24T18:00:06.740385,1.3703840050362839,1.319871775690768,9.80603537064404,0.15634241754542505,0.16765045955163893,0.010004971935832427
2025-11-24T18:00:06.750000,1.2911271819990036,1.2467480183303772,9.803039042086047,0.10699290585154181,0.1197518303076515,0.009322665081038484
2025-11-24T18:00:06.759615,1.2090196986168316,1.1711318410103349,9.800253918206801,0.05735634295884832,0.07152483909963818,0.008700067450731645
2025-11-24T18:00:06.769231,1.1243303758476564,1.093166365604962,9.79780626864389,0.007627224136039927,0.023083315194580192,0.008196471008601979
2025-11-24T18:00:06.778846,1.0373410326999164,1.0129941750361948,9.795805498715763,-0.04200305831006983,-0.02545815782161512,0.007868952140009034
2025-11-24T18:00:06.788462,0.9483433243261372,0.9307576088119804,9.794339648714153,-0.09134988704085467,-0.07398472113812456,0.007769775201277726
2025-11-24T18:00:06.798077,0.8576354892291174,0.8465991749391605,9.793472159811266,-0.14023848080640877,-0.12238146064594783,0.007944019445230793
2025-11-24T18:00:06.807692,0.7655190832155719,0.7606621370157058,9.793240030244876,-0.18850631861173348,-0.17053336503201968,0.0084275518127799
2025-11-24T18:00:06.817308,0.6722958186003807,0.673091333158587,9.793653388601712,-0.23600494589611293,-0.21832505098116795,0.009245445634209924
2025-11-24T18:00:06.826923,0.5782646207231544,0.5840342592411377,9.794696396321775,-0.2826011779558563,-0.26564031593823145,0.010410908735455726
2025-11-24T18:00:06.836538,0.4837189379399506,0.493642389307017,9.796329279261997,-0.32817768942382625,-0.3123616105823041,0.011924743499810125
2025-11-24T18:00:06.846154,0.3889442388821716,0.4020726332132666,9.798491204538815,-0.3726329648473582,-0.358369541263097,0.013775327975280926
2025-11-24T18:00:06.855769,0.29421557962055606,0.30948878214543646,9.801103677229833,-0.4158806087979727,-0.40354251156870025,0.01593908158961587
2025-11-24T18:00:06.865385,0.19979515812791657,0.2160627815547867,9.804074140544172,-0.457848074407042,-0.44775660450126775,0.018381355533824747
2025-11-24T18:00:06.875000,0.10592985846348169,0.12197569458492057,9.807299526078152,-0.49847494125460046,-0.49088579806821797,0.021057666070612244
2025-11-24T18:00:06.884615,0.01284887176787402,0.02741827346877202,9.810669605219605,-0.537710924093711,-0.5328025848528998,0.02391517711569254
2025-11-24T18:00:06.894231,-0.07923845364812142,-0.06740887143500163,9.81407011136161,-0.5755138043303475,-0.5733790207992203,0.026894347282973487
2025-11-24T18:00:06.903846,-0.17014433893078793,-0.16229545396135406,9.817385699688339,-0.611847448599455,-0.6124881693858301,0.029930690279487367
2025-11-24T18:00:06.913462,-0.2597036731996217,-0.2570219614347435,9.820502855591466,-0.6466800285612325,-0.6500058534410637,0.032956642968138335
2025-11-24T18:00:06.923077,-0.34777430515693025,-0.35136027444387413,9.823312849501603,-0.679982502861449,-0.6858125908274563,0.035903562475281425
2025-11-24T18:00:06.932692,-0.4342364131888573,-0.4450743652307705,9.825714788307618,-0.7117273802420583,-0.7197955737985933,0.03870385981361705
2025-11-24T18:00:06.942308,-0.518990935250774,-0.5379210135871717,9.82761875218531,-0.7418877528960107,-0.7518505495386868,0.04129323493101012
2025-11-24T18:00:06.951923,-0.6019571413114024,-0.6296505387342531,9.828948933244783,-0.7704365645120185,-0.781883465408466,0.04361294170389444
2025-11-24T18:00:06.961538,-0.6830695091421618,-0.7200076163066266,9.82964661393206,-0.7973460580699685,-0.8098117579454178,0.045611996096906714
2025-11-24T18:00:06.971154,-0.7622741124214675,-0.8087322977465642,9.829672757790608,-0.8225873437270477,-0.8355651985211805,0.047249229958714625
2025-11-24T18:00:06.980769,-0.8395247513130984,-0.8955613441125807,9.82900995565253,-0.8461300419749392,-0.859086262184597,0.04849507218199965
2025-11-24T18:00:06.990385,-0.9147790419831116,-0.9802299307904043,9.827663494629999,-0.8679419822016288,-0.8803300406842386,0.0493329191459306
2025-11-24T18:00:07,-0.9879946327947581,-1.062473716900645,9.825661398591851,-0.8879889567120143,-0.8992637531012038,0.04975995631625295
2025-11-24T18:00:07.009615,-1.0591256574591281,-1.14203123670886,9.823053401755827,-0.9062345386168746,-0.9158659181499985,0.049787316125302516
2025-11-24T18:00:07.019231,-1.1281194985608392,-1.2186465449709627,9.819908921250086,-0.9226399751169659,-0.9301252620571647,0.04943949602117725
2025-11-24T18:00:07.028846,-1.194913919358854,-1.2920720040063036,9.81631416358646,-0.9371641778987054,-0.9420394607535736,0.04875301068937567
2025-11-24T18:00:07.038462,-1.2594346077030802,-1.3620710442814354,9.81236852729899,-0.9497638526669185,-0.9516138466450614,0.04777431471034671
2025-11-24T18:00:07.048077,-1.321593154665967,-1.4284207001206752,9.808180461981749,-0.9603938242995461,-0.9588602205547396,0.04655710429444582
2025-11-24T18:00:07.057692,-1.3812854743240766,-1.4909137449515912,9.80386294666644,-0.9690076023205966,-0.963795877362419,0.04515918008193141
2025-11-24T18:00:07.067308,-1.4383906768436225,-1.5493603243449097,9.799528784898163,-0.97555819297003,-0.9664428888194355,0.043639112539971166
2025-11-24T18:00:07.076923,-1.4927704377952538,-1.6035890836029314,9.795285963576283,-0.979999119449543,-0.9668276206258931,0.04205298204716299
2025-11-24T18:00:07.086538,-1.5442689442198925,-1.6534478670630146,9.791233343758783,-0.9822855819445496,-0.9649804171858373,0.04045145791323374
2025-11-24T18:00:07.096154,-1.5927135159480685,-1.6988040930577883,9.78745692383577,-0.9823756825737396,-0.960935372188469,0.03887743507343088
2025-11-24T18:00:07.105769,-1.6379159878294052,-1.7395448800983686,9.784026862874422,-0.9802316529997782,-0.9547301157389959,0.03736437531985962
2025-11-24T18:00:07.115385,-1.6796748980068084,-1.7755769420783278,9.780995409130654,-0.975821039102964,-0.946405582689497,0.03593541895339899
2025-11-24T18:00:07.125000,-1.7177784646997767,-1.80682621175703,9.778395847062225,-0.9691178023075626,-0.9360057589829108,0.03460325859805386
2025-11-24T18:00:07.134615,-1.7520082678161928,-1.833237119753867,9.776242531947137,-0.9601032861688735,-0.9235774070353697,0.03337070845175899
2025-11-24T18:00:07.144231,-1.7821435124134755,-1.8547714761228438,9.774532013931678,-0.9487669777982851,-0.9091697480303623,0.03223186084584641
2025-11-24T18:00:07.153846,-1.8079657421447146,-1.8714069777013218,9.77324517148497,-0.9351069848994716,-0.8928340594589491,0.031173695871223876
2025-11-24T18:00:07.163462,-1.8292638636308378,-1.8831354696455618,9.7723501895158,-0.9191301718249439,-0.8746231595909886,0.030177995737698644
2025-11-24T18:00:07.173077,-1.845839326682018,-1.8899611808188883,9.771806140998025,-0.9008519548935213,-0.8545907921491037,0.02922340740663176
2025-11-24T18:00:07.182692,-1.857511299123401,-1.8918991918612984,9.771566873129931,-0.8802958213875082,-0.8327909626765336,0.02828749172280981
2025-11-24T18:00:07.192308,-1.8641216783729575,-1.8889743627797704,9.771584869077948,-0.8574926776225562,-0.8092772890957344,0.02734860424651656
2025-11-24T18:00:07.201923,-1.8655397705769483,-1.8812208536733244,9.771814764171074,-0.8324801428167408,-0.7841024128190256,0.02638748657050309
2025-11-24T18:00:07.211538,-1.8616664396852554,-1.8686822511862808,9.77221624635252,-0.8053019003553896,-0.7573174897774518,0.025388501948156568
2025-11-24T18:00:07.221154,-1.8524375111583915,-1.851412199383793,9.772756160574255,-0.7760072115184301,-0.7289717653095219,0.024340498092254137
2025-11-24T18:00:07.230769,-1.837826235253898,-1.8294753492054074,9.773409749161631,-0.744650688291228,-0.6991122459280262,0.023237302948262692
2025-11-24T18:00:07.240385,-1.8178446805211825,-1.8029484000983325,9.77416106602041,-0.7112923908556562,-0.6677835038613271,0.022077864118634626
2025-11-24T18:00:07.250000,-1.7925440196864646,-1.7719210208773262,9.77500267947047,-0.6759982514562335,-0.6350276640869403,0.02086605204366425
2025-11-24T18:00:07.259615,-1.76201374595568,-1.7364964969161056,9.775934825107143,-0.6388407546434604,-0.6008846172796242,0.019610172562705572
2025-11-24T18:00:07.269231,-1.7263798842747367,-1.696792025574009,9.77696418794572,-0.5998997576152298,-0.5653924818268236,0.018322266494954838
2025-11-24T18:00:07.278846,-1.68580224317038,-1.652938634706943,9.778102477460646,-0.5592633222975383,-0.5285883153835572,0.0170172937847798
2025-11-24T18:00:07.288462,-1.6404707297264067,-1.605080718029311,9.779364916846175,-0.5170284447251765,-0.4905090592497092,0.015712298867486093
2025-11-24T18:00:07.298077,-1.5906007765459176,-1.5533751808869023,9.780768715644403,-0.47330159741006045,-0.451192690587086,0.014425637199066216
2025-11-24T18:00:07.307692,-1.5364280328731958,-1.4979901877170805,9.78233154291421,-0.42819903452114666,-0.41067955407035905,0.013176316825509828
2025-11-24T18:00:07.317308,-1.4782026197138582,-1.43910350307206,9.784069981458085,-0.38184683180870216,-0.3690138321198162,0.011983476239751161
2025-11-24T18:00:07.326923,-1.4161833559875276,-1.3769004254640949,9.785997952853657,-0.33438063298825366,-0.32624508368251337,0.010865988777362695
2025-11-24T18:00:07.336538,-1.3506323596759342,-1.3115713391196793,9.78812516475174,-0.28594506196536723,-0.2824297508619504,0.009842168540951761
2025-11-24T18:00:07.346154,-1.2818103228128404,-1.2433089614992034,9.790455692709394,-0.23669276476191434,-0.23763252334043716,0.008929557412493174
2025-11-24T18:00:07.355769,-1.209972620265249,-1.1723054338224208,9.792986806861483,-0.18678308457235995,-0.1919274660925148,0.008144784415018962
2025-11-24T18:00:07.365385,-1.1353662976585859,-1.0987494644677145,9.79570809996293,-0.13638043185820417,-0.14539884174401865,0.007503493213358136
2025-11-24T18:00:07.375000,-1.0582279085276027,-1.0228237738047044,9.798600932977635,-0.08565245502912765,-0.09814158173941886,0.0070203294297892915
2025-11-24T18:00:07.384615,-0.9787821253188173,-0.9447030888543405,9.801638217571876,-0.0347681279278391,-0.050261378960405084,0.0067089729239473055
2025-11-24T18:00:07.394231,-0.8972410239257148,-0.8645528764952184,9.804784574618058,0.016104147284903534,-0.0018743950586240232,0.006582193281033351
2025-11-24T18:00:07.403846,-0.8138039376255302,-0.782528887328859,9.807996915193488,0.06679835404493088,0.04689339909314889,0.006651895686942318
2025-11-24T18:00:07.413462,-0.728657795993527,-0.6987774552615181,9.811225486588087,0.11715255481500178,0.09590720686858258,0.006929105807924633
2025-11-24T18:00:07.423077,-0.64197789651371,-0.6134364152774004,9.814415419276918,0.16701045423741778,0.14502465065892958,0.007423821926890306
2025-11-24T18:00:07.432692,-0.5539290817970015,-0.5266364854022192,9.817508792364897,0.21622284737363218,0.19409720264550098,0.008144658921058853
2025-11-24T18:00:07.442308,-0.46466730614916835,-0.43850299332183257,9.820447185051828,0.26464897949066885,0.24297172548781804,0.00909823799007975
2025-11-24T18:00:07.451923,-0.3743415736657025,-0.34915787654877045,9.82317459918898,0.31215782690247146,0.29149205983648385,0.010288330700498885
2025-11-24T18:00:07.461538,-0.28309620681520703,-0.258721912630493,9.825640551525618,0.358629270531608,0.33950061287662864,0.011714819899777207
2025-11-24T18:00:07.471154,-0.19107334931051384,-0.16731713390839503,9.82780308051937,0.4039551004109395,0.3868399103245566,0.013372576914667325
2025-11-24T18:00:07.480769,-0.09841554149018972,-0.07506935936913163,9.829631408953098,0.44803977871173795,0.4333540715881719,0.015250376672046867
2025-11-24T18:00:07.490385,-0.005268172471743544,0.017889258880813854,9.831108036445793,0.4908008956904654,0.4788901670384798,0.017329982965163145
2025-11-24T18:00:07.500000,0.08821836974373501,0.11141781444809122,9.832230076340169,0.532169258066366,0.5232994299830432,0.019585526739684764
2025-11-24T18:00:07.509615,0.1818869637238868,0.20536450693983446,9.83300969311662,0.5720885464051105,0.5664383220099857,0.021983266931058763
2025-11-24T18:00:07.519231,0.27557244038631945,0.29956491551671355,9.833473565308337,0.6105144816278865,0.6081694781177233,0.024481780698955843
2025-11-24T18:00:07.528846,0.3691005762293105,0.39384075969201415,9.833661409979515,0.6474134677398059,0.648362579376624,0.027032596992115028
2025-11-24T18:00:07.538462,0.46228722945709205,0.48799916611716593,9.83362372958721,0.6827607286470856,0.6868952108760417,0.029581267399338543
2025-11-24T18:00:07.548077,0.5549375159185069,0.5818324455183954,9.833419029119142,0.7165380131221042,0.7236537562485844,0.03206884969301649
2025-11-24T18:00:07.557692,0.6468450559070851,0.6751184077350723,9.833110767614478,0.7487309824737937,0.7585343521362289,0.03443374999883555
2025-11-24T18:00:07.567308,0.7377914361646846,0.767621261706823,9.832764263044544,0.7793264164924327,0.7914438769709905,0.03661382792771612
2025-11-24T18:00:07.576923,0.8275460601652216,0.8590931254129528,9.83244370780601,0.8083093865383362,0.8223008921005492,0.03854863096678652
2025-11-24T18:00:07.586538,0.9158665151125304,0.9492761092013985,9.832209410383927,0.8356605584602524,0.8510364146804453,0.0401816125903948
2025-11-24T18:00:07.596154,1.0024995277089512,1.037904863758222,9.832115352478802,0.8613537996164926,0.8775943998625381,0.04146220951568945
2025-11-24T18:00:07.605769,1.0871825552528784,1.1247094416066763,9.832207119353729,0.8853542648930752,0.9019318408617844,0.04234768887283859
2025-11-24T18:00:07.615385,1.1696460432344442,1.2094183315582812,9.832520223684726,0.9076171145641783,0.9240184386542643,0.042804701147647124
2025-11-24T18:00:07.625000,1.2496163300877405,1.2917615641497788,9.833078810294676,0.9280869669908692,0.943835835178741,0.042810481094970994
2025-11-24T18:00:07.634615,1.3268190994574682,1.3714738008450131,9.833894707656846,0.9466981277598997,0.9613764487390768,0.04235363723467922
2025-11-24T18:00:07.644231,1.400983228978185,1.4482972931201015,9.834966791286622,0.96337559012028,0.9766419982506404,0.04143447755146644
2025-11-24T18:00:07.653846,1.4718449012553256,1.5219845641152139,9.836280648149469,0.9780367724010068,0.9896418380651423,0.04006483909484143
2025-11-24T18:00:07.663462,1.53915190087232,1.5923006697308721,9.837808564176644,0.990593925964605,1.0003912329991758,0.038267415555088016
2025-11-24T18:00:07.673077,1.602668057522352,1.6590249564986064,9.839509874876185,1.0009571030960127,1.0089096882295077,0.03607461176052814
2025-11-24T18:00:07.682692,1.662177766223589,1.721952334634106,9.841331714110888,1.0090375285201576,1.0152194224451854,0.03352700544045778
2025-11-24T18:00:07.692308,1.7174904275421337,1.7808941756194454,9.843210183566063,1.0147511793910744,1.0193440392243283,0.03067155072803801
2025-11-24T18:00:07.701923,1.7684445545947314,1.8356789677138594,9.845071964488247,1.01802235382902,1.0213074159924207,0.027559685510494557
2025-11-24T18:00:07.711538,1.8149112499105626,1.8861528129033487,9.846836405287686,1.0187870144315085,1.0211328044021046,0.024245498703504613
2025-11-24T18:00:07.721154,1.8567967845065545,1.9321797788932082,9.848418125263114,1.0169957361470203,1.0188421258872695,0.02078409159237755
2025-11-24T18:00:07.730769,1.894044076123623,1.9736420914940827,9.849730150174063,1.012616141339418,1.014455444532104,0.017230242811385323
2025-11-24T18:00:07.740385,1.9266329137763711,2.0104401843619026,9.850687525303082,1.0056347373304566,1.0079906023808258,0.013637458309741769
2025-11-24T18:00:07.750000,1.9545788068023786,2.0424926852507026,9.8512112509081,0.9960580837124022,0.9994630127424913,0.010057447425828422
2025-11-24T18:00:07.759615,1.9779303865081064,2.0697364616533958,9.851232285504778,0.9839132355207912,0.9888856223445509,0.006540003094397733
2025-11-24T18:00:07.769231,1.996765386084849,2.092126834845708,9.850695285131325,0.9692474497776637,0.9762690649979793,0.003133179848679228
2025-11-24T18:00:07.778846,2.011185356453854,2.1096379847088595,9.84956170808645,0.952127192022359,0.9616220308733952,-0.0001164160899727342
2025-11-24T18:00:07.788462,2.0213094083348735,2.1222634232236564,9.847811944436728,0.9326365120806774,0.9449518610725333,-0.003163449968353485
2025-11-24T18:00:07.798077,2.027267377716161,2.130016266987137,9.84544624379269,0.9108748697280887,0.9262653485944741,-0.0059640004582164246
2025-11-24T18:00:07.807692,2.0291928708989766,2.132928968223009,9.842484383350609,0.886954495599788,0.9055697012516513,-0.008476147551290737
2025-11-24T18:00:07.817308,2.0272166405723877,2.131052223021969,9.83896418782678,0.8609973827856647,0.8828736182222463,-0.010661016459104918
2025-11-24T18:00:07.826923,2.021460683534817,2.1244529550316,9.834939142985682,0.8331320172098757,0.8581884492611392,-0.012484170355100948
2025-11-24T18:00:07.836538,2.0120333537238837,2.1132115046071513,9.830475408771779,0.8034899646576499,0.8315294294824499,-0.013917167733899493
2025-11-24T18:00:07.846154,1.9990256580032963,2.0974183396308406,9.825648529842848,0.7722024461175269,0.8029169984031671,-0.0149390765506013
2025-11-24T18:00:07.855769,1.9825087573470601,2.0771706651539485,9.820540092091788,0.7393970591381472,0.7723782069897613,-0.015537748805772965
2025-11-24T18:00:07.865385,1.962532576005822,2.052569237684373,9.815234532075518,0.7051948284448996,0.7399481855331761,-0.015710685541603583
2025-11-24T18:00:07.875000,1.9391253728047901,2.0237155547565613,9.809816282388224,0.6697077662183782,0.7056716014291895,-0.015465362539127999
2025-11-24T18:00:07.884615,1.9122941547234484,1.9907094776279097,9.804367397895481,0.6330370799491436,0.6696040047061362,-0.014818948076767327
2025-11-24T18:00:07.894231,1.8820258758724822,1.9536473008223059,9.798965740023613,0.5952721049505645,0.631812955745422,-0.013797422296882104
2025-11-24T18:00:07.903846,1.8482894206351745,1.9126202956130836,9.793683724522563,0.5564899915117568,0.5923788470664586,-0.012434187781065566
2025-11-24T18:00:07.913462,1.8110383914940067,1.8677137809564843,9.788587584234838,0.5167561526023985,0.551395349408087,-0.010768323387716877
2025-11-24T18:00:07.923077,1.7702147069416307,1.8190067815967805,9.783737052466309,0.47612545641491044,0.5089694196716936,-0.00884266592740344
2025-11-24T18:00:07.932692,1.7257529700357668,1.7665723187636555,9.779185323097137,0.43464410508189494,0.4652208127292182,-0.006701909299427706
2025-11-24T18:00:07.942308,1.6775855001384337,1.7104783591607895,9.774979105950898,0.3923520784818822,0.420281059079919,-0.0043908949519511345
2025-11-24T18:00:07.951923,1.6256478398243,1.6507894282873574,9.771158596103305,0.3492859645928316,0.37429191350101243,-0.0019532297606687883
2025-11-24T18:00:07.961538,1.5698844784184658,1.5875688641448324,9.76775722285663,0.30548196584679477,0.3274033347111526,0.0005696900999501755
2025-11-24T18:00:07.971154,1.5102545084622994,1.520881633189715,9.764801127493504,0.26097886779881185,0.2797711031861856,0.0031392297157908666
2025-11-24T18:00:07.980769,1.4467369757476485,1.4507975567314462,9.762308416633948,0.21582077763045607,0.23155421024807663,0.005719662976299275
2025-11-24T18:00:07.990385,1.3793357718494046,1.3773947330419782,9.760288321238782,0.17005947931096077,0.18291215277013503,0.008277968185009567
2025-11-24T18:00:08,1.308083984871533,1.300762920427,9.75874044029003,0.12375630077915481,0.13400225065656785,0.010783353894364972
2025-11-24T18:00:08.009615,1.2330476289494523,1.221006677033416,9.757654264500621,0.07698344122110301,0.08497708579905362,0.01320663399120054
2025-11-24T18:00:08.019231,1.1543286351465019,1.1382481169896492,9.75700916362012,0.029824762502937238,0.035982158212875315,0.015519598414130732
2025-11-24T18:00:08.028846,1.072066950416975,1.052629214339596,9.756774974096079,-0.017623902124969528,-0.01284613453137161,0.017694526127487044
