Timestamp,Acceleration_X,Acceleration_Y,Acceleration_Z,Gyro_X,Gyro_Y,Gyro_Z
2025-11-24T18:00:00,-0.027419706512881198,-0.04534740344732249,9.752510164611875,0.7033358608135636,0.5664175260793315,0.08407449957493063
2025-11-24T18:00:00.009615,0.05896798981946777,0.18691276966655537,9.813453061987017,0.5659069956500699,0.5230560549102438,0.058310029681723594
2025-11-24T18:00:00.019231,0.12275469686211526,0.45614966709354265,9.66923880793816,0.484967188063444,0.5939897954355526,0.11032548372177559
2025-11-24T18:00:00.028846,0.1303615325475858,0.5046896542614346,9.887470082541503,0.6340344409882906,0.6310638753575292,-0.022139713725406896
2025-11-24T18:00:00.038462,0.2980268321383194,0.37435322339402133,9.70901365991369,0.684631143813365,0.5440388440113617,0.12538059157424217
2025-11-24T18:00:00.048077,0.4912969019154882,0.5292384048633888,9.582757651961186,0.6729286773438965,0.5786513046502504,0.032821514766900275
2025-11-24T18:00:00.057692,0.70378960516497,0.5945764622709112,9.859991632046432,0.6397878077704532,0.7981170728377349,0.00956699905817895
2025-11-24T18:00:00.067308,0.6280812759545689,0.7884589136802775,9.772805212622128,0.8102047270440872,0.6874137070052666,0.14524768330006
2025-11-24T18:00:00.076923,0.7610352296280178,0.7660406428312552,9.85046158621608,0.7652543404239255,0.836193353837744,0.08677148968313064
2025-11-24T18:00:00.086538,1.134918510809986,0.9605288246451379,9.58860704374641,0.7496338800071773,0.8447020425764633,0.0645242077841446
2025-11-24T18:00:00.096154,1.0821991689511454,0.9118559398496693,9.764380092096195,0.967254352988265,0.8463699971336704,-0.07688778411910299
2025-11-24T18:00:00.105769,1.0339990058231554,1.0841679975946545,10.11397782274253,0.917463897574334,1.1043918455819435,0.10160577112028141
2025-11-24T18:00:00.115385,1.0667782312430891,1.3243721406639275,9.92300521112716,0.8094924015868503,0.8512637220939674,-0.02750366097396503
2025-11-24T18:00:00.125000,1.1847685228169447,1.4040993371867336,9.694204423659949,0.965535854941456,0.7639839561267763,0.046057215521587064
2025-11-24T18:00:00.134615,1.3460763451433393,1.068412391857951,9.816133363205301,0.824880967069507,0.8491923059047266,0.09824514571958541
2025-11-24T18:00:00.144231,1.439919860657261,1.1926965673448682,9.962102742974272,0.9576400659999702,0.8678863967717951,-0.0034912290841459317
2025-11-24T18:00:00.153846,1.274142913758799,1.6612968806766313,10.069730363001316,0.9637591539060906,0.9861817318084405,0.03603104953472943
2025-11-24T18:00:00.163462,1.4399185378365484,1.3816267953503414,9.928504624756258,0.9984901643296292,0.936483221500006,0.14003832848456144
2025-11-24T18:00:00.173077,1.4188922584104025,1.723285182677923,9.935090520284827,0.9079647152604747,1.017670015929648,0.29006485405724797
2025-11-24T18:00:00.182692,1.7963623490673035,1.6927825070610738,9.559586095248768,0.9320586894342343,0.8277802302148529,0.024240480864172378
2025-11-24T18:00:00.192308,1.8955048743810587,1.68703650399144,9.655167165704649,0.9464322904379553,0.9630978147846521,0.0945053226692478
2025-11-24T18:00:00.201923,1.5837104912359838,2.0125398377134096,9.71455794785797,1.0333738786700486,0.9610789593152328,0.019357387508238774
2025-11-24T18:00:00.211538,1.941685153932739,1.9002052772599338,9.624567000005163,1.1844479390377507,1.0202779089368743,0.08352595663757706
2025-11-24T18:00:00.221154,1.8224155937487456,1.8415451766692361,10.052078595069577,1.0599537541157766,0.9807479690375697,-0.04560606353730459
2025-11-24T18:00:00.230769,1.873888139010811,1.9125470606279755,9.894504960719042,0.9645812217196226,1.054302993172234,0.01981512463616486
2025-11-24T18:00:00.240385,1.690497843567109,1.9515882922100982,9.772347023879544,1.0282469778141141,0.9632976913833661,0.15517198451687395
2025-11-24T18:00:00.250000,2.0348817991666475,2.0055739986045644,9.625618481291125,0.9025709617951788,0.9997593983892679,0.09594242992740812
2025-11-24T18:00:00.259615,1.8647527994724726,2.0732457038012315,9.788138087615081,0.8386838362707344,0.9870330592163209,-0.0034802783757095952
2025-11-24T18:00:00.269231,1.962050829805182,2.0105619361086484,9.971365862794052,1.196237493859067,1.0016078789589133,-0.0013248611658706055
2025-11-24T18:00:00.278846,2.014588203586515,2.1616150135483787,9.852260516694962,0.9124074759147203,0.8451338477168022,0.0535863587521264
2025-11-24T18:00:00.288462,2.2289567104777688,1.8871253303671627,9.88154053309857,0.9534991698886967,0.9971831734314384,0.01471007095023142
2025-11-24T18:00:00.298077,2.1949190246375574,2.0399517607560274,9.897295687121197,0.9012232799659672,0.9817578257572588,0.05383426531520258
2025-11-24T18:00:00.307692,2.197953889849836,2.307167342564286,9.897014680660895,0.8388495675792091,0.9228361371143966,-0.012922657548177643
2025-11-24T18:00:00.317308,2.1124249533952466,2.115005263649409,9.838543044498564,0.8854975946045026,0.8548885837930131,0.11051121073816611
2025-11-24T18:00:00.326923,2.09480299926882,2.0263091507290576,9.944854817912303,0.8846523201164391,0.9600673366953156,-0.09008953466221202
2025-11-24T18:00:00.336538,1.9755018002950349,1.9930694516368104,9.979467375080947,0.8714159876017448,0.9390230947903755,0.12259981507791334
2025-11-24T18:00:00.346154,2.1145143604435166,1.8746951573755013,9.722476168047502,0.8734665122448112,0.9427014430846337,0.07822927311287584
2025-11-24T18:00:00.355769,2.348497542083981,1.9351383603442556,9.638904452935819,0.8994147979944322,0.8395470993708043,0.024133042262859172
2025-11-24T18:00:00.365385,2.1489180532107035,2.007268916994253,9.93513487640541,0.7964861190216735,0.754014331673718,0.08681032439749475
2025-11-24T18:00:00.375000,1.9293704631598003,2.153952213541127,10.05033098565851,0.664686832438629,0.7418743565958597,0.03653254513350845
2025-11-24T18:00:00.384615,2.3565032081941903,1.8532181304043138,10.018546601558922,0.7758963325346535,0.5238554069066765,-0.03358314355540065
2025-11-24T18:00:00.394231,2.0252224889986805,2.192531267430508,9.753634694108715,0.7582123769438764,0.5856742791501316,0.03748140775099495
2025-11-24T18:00:00.403846,1.7362695844114058,1.907287567126433,9.640900831353719,0.5038391347796208,0.6287149754326451,0.05161933703670005
2025-11-24T18:00:00.413462,1.790553467270468,1.8199818603287923,9.756920212782344,0.5772511696471289,0.48792743059382976,-0.06385425666410519
2025-11-24T18:00:00.423077,1.9193319418002932,2.226556148808373,9.996258370869652,0.3568813410947228,0.4249538209703558,-0.11938023771600488
2025-11-24T18:00:00.432692,2.054029574005754,1.6577276337747269,9.830059163009965,0.4103168669453005,0.34992500483947797,0.1329335978848075
2025-11-24T18:00:00.442308,1.7601422406509166,1.5466693461657244,9.696385358193135,0.4672180684220474,0.474875656028134,-0.07665322071696176
2025-11-24T18:00:00.451923,1.7285231761195676,1.8203496372316765,10.180996014507114,0.3393764259222117,0.28825981739730755,-0.023145570275445487
2025-11-24T18:00:00.461538,1.2584519322448213,1.6065819474608367,9.599123640680995,0.3100927664675032,0.23041293908156768,0.03517200650576909
2025-11-24T18:00:00.471154,1.4582922172830746,1.636743034886514,9.841129717481476,0.19918860066745891,0.3929372869083083,-0.07217941149656233
2025-11-24T18:00:00.480769,1.3034735709133347,1.3505961827109083,9.964410710121241,0.31189125977424637,0.24810400692034193,-0.04825823136447628
2025-11-24T18:00:00.490385,1.7029351821033636,1.3065539209831025,9.624903389915364,0.03877089660083821,0.25104811526937554,0.07332258553352947
2025-11-24T18:00:00.500000,1.1803367247887684,1.461435343339888,10.106101602583191,0.107353328950203,0.08417667409589946,-0.00648167179760769
2025-11-24T18:00:00.509615,1.110757455318361,1.2652840332376025,9.909867389543766,0.03882857490070673,-0.0014819718513793129,0.10561683465487168
2025-11-24T18:00:00.519231,0.9079482584572183,1.1575394428791168,9.986513560683491,0.03141304211708071,0.1971098797946169,0.004604777246734486
2025-11-24T18:00:00.528846,1.118764430946058,0.9954496845492656,9.642388134695954,-0.06457324497897572,-0.18045079397810476,0.05338953646182354
2025-11-24T18:00:00.538462,0.7148091211851992,0.961608712271222,9.605144948411724,-0.06981240652410581,-0.16298083674834718,0.029488155828781934
2025-11-24T18:00:00.548077,0.9604153032488668,1.0917482227352877,9.728166364045167,-0.1874225359289979,-0.0995068596380975,-0.04887027888975694
2025-11-24T18:00:00.557692,0.8871230605782399,0.6566006506471967,10.162777155136823,-0.12188342287001613,-0.14546858907207308,-0.09436602805692203
2025-11-24T18:00:00.567308,0.5649606716272764,0.6007591833538568,9.847983991615791,-0.11055332057746788,-0.04035079275424594,0.10975405589342194
2025-11-24T18:00:00.576923,0.531343911840794,0.27902210302014996,9.711215672468766,-0.2041355904906364,-0.3625567623240366,-0.0725858907911815
2025-11-24T18:00:00.586538,0.5849229878470248,0.5116987418833597,9.740767574698442,-0.3482435743739743,-0.33548019378690064,-0.015593346521138151
2025-11-24T18:00:00.596154,0.5168094608173256,0.5412943306851606,9.932242940758393,-0.41716906118911035,-0.3977751518959064,0.07079319564763484
2025-11-24T18:00:00.605769,0.14352330762523777,0.37795406610380494,9.664218374096752,-0.41629611851943826,-0.46406644924038865,-0.03675764056470783
2025-11-24T18:00:00.615385,0.3219653690352398,0.224403628173168,9.564902658916473,-0.5546794147910551,-0.36745664696670455,-0.016216605681622146
2025-11-24T18:00:00.625000,0.13997604202183261,-0.060488288946398905,9.85829740669864,-0.33740859906041254,-0.46723842050827935,0.06074818623740387
2025-11-24T18:00:00.634615,-0.1411459576972996,-0.0007652694385884623,9.64488431061937,-0.546299128159507,-0.5043986795829329,0.005410426135432796
2025-11-24T18:00:00.644231,0.015000845242717692,0.052088550525738825,9.820816242331436,-0.5689723935687724,-0.6449396346366791,0.10918224889085693
2025-11-24T18:00:00.653846,-0.20187053205681293,0.03693617433013774,9.90043851062371,-0.7305537253285365,-0.5744420138323272,-0.027668120631289723
2025-11-24T18:00:00.663462,-0.23243475384627357,-0.07359131975536568,9.586863651474449,-0.6947740820546439,-0.6755607076305266,-0.0986046920612915
2025-11-24T18:00:00.673077,-0.3722314567610911,-0.3971251211458671,9.995021456939968,-0.7849050800878363,-0.7818312029973234,-0.04979624545589259
2025-11-24T18:00:00.682692,-0.3343694153110801,-0.32420883334735023,9.95765166923775,-0.7055137015987615,-0.7231922262221019,0.05539582019777271
2025-11-24T18:00:00.692308,-0.513139228353172,-0.28590189904709457,9.803477386626211,-0.692590382020898,-0.7940698131777469,0.06065366203811945
2025-11-24T18:00:00.701923,-0.5577071152944474,-0.6485288315820774,9.736037843705477,-0.908451510901432,-0.7267281819206148,0.18301371963321994
2025-11-24T18:00:00.711538,-0.659832829224966,-0.6989922522699096,9.972093879210396,-0.8044028125123011,-0.6929510979853377,0.029276138994433272
2025-11-24T18:00:00.721154,-0.8928783816736199,-0.9968915551232612,9.77165722327071,-0.8339993886642162,-0.8657365793719486,0.11094082997350514
2025-11-24T18:00:00.730769,-0.9130453274206062,-0.7109061511786475,9.715130965255346,-0.7622918516930333,-0.7382551781934747,0.14400738805183375
2025-11-24T18:00:00.740385,-1.1038093536371634,-1.2937445984462845,9.766819871789652,-0.8846991879596835,-0.89067008273952,0.054498017923857084
2025-11-24T18:00:00.750000,-1.0033995890029324,-1.0087837105855373,9.590302809354771,-0.7891288270426986,-0.7539700644116984,-0.12489875171681307
2025-11-24T18:00:00.759615,-0.9777285776890297,-1.0390182438436875,9.595575890124726,-0.9453403097512365,-0.9689792502530856,0.09462886740001449
2025-11-24T18:00:00.769231,-1.383849163671418,-1.3910155479949065,9.626740306327768,-0.9037972710212868,-0.8937653704097399,0.0695638359849315
2025-11-24T18:00:00.778846,-1.1939943385943992,-1.2300194357517324,9.756952346915243,-1.0086041377607822,-0.8459121398388342,-0.08458654971499223
2025-11-24T18:00:00.788462,-1.2097599728355337,-1.0169501947002277,9.776572617699959,-0.9839503723102242,-1.0285542753384376,-0.021166106515426015
2025-11-24T18:00:00.798077,-1.50417909817474,-1.3512496134719132,9.767081414644972,-0.8815674488970684,-1.0027388499999659,0.13998079818194875
2025-11-24T18:00:00.807692,-1.6038131922465366,-1.4185659107957378,9.701525811948333,-0.9847932513272443,-0.9931175999840136,0.10232431162806628
2025-11-24T18:00:00.817308,-1.8387636063481576,-1.6047017484805521,9.670646870933382,-1.0518838491915852,-1.1045323055286242,0.1439125138930351
2025-11-24T18:00:00.826923,-1.7114959110049206,-1.2400948933510438,9.743956028883607,-0.9364870665639655,-1.0688099516334832,0.05413219184326375
2025-11-24T18:00:00.836538,-1.4658175909483162,-1.9097352051948966,9.586642368883343,-0.9481609348781729,-1.0932158611527096,0.08746075253083377
2025-11-24T18:00:00.846154,-1.513849944888229,-1.5953034694249995,9.93510531918803,-0.9721369773983012,-0.998395359310997,-0.037918216435397264
2025-11-24T18:00:00.855769,-1.754772341052697,-1.772963800326347,9.815440634040225,-1.1833081202896343,-0.8425979931448841,-0.0031312954501553497
2025-11-24T18:00:00.865385,-1.6600085923185985,-1.8721459248030037,9.673528163563606,-0.9968744247018656,-1.0529363387846373,0.03220595696207858
2025-11-24T18:00:00.875000,-1.8453918845472652,-2.0103429530615893,9.843560192892111,-0.8940747801869738,-0.9669906784471178,0.05430305495449425
2025-11-24T18:00:00.884615,-1.848267275845388,-1.8695723741421921,9.542573502401115,-0.9981901731241254,-0.7365010014695383,0.0007676547267409309
2025-11-24T18:00:00.894231,-1.6842200887194163,-1.7552224705801762,9.61764893751253,-0.972739606361819,-0.9602899502781921,0.017502289377331552
2025-11-24T18:00:00.903846,-2.1747780264939465,-1.753266487396869,9.983092628413575,-0.8015136354281696,-1.0208975093546695,0.11509121304760125
2025-11-24T18:00:00.913462,-1.9180664891229318,-1.8424134362827584,9.875266053652508,-0.7781933951950109,-0.8514265169328035,0.02247522149963068
2025-11-24T18:00:00.923077,-1.9717072885564861,-1.662286532135051,10.003390656311726,-0.8959400528650168,-0.856964426945153,0.03623189804285328
2025-11-24T18:00:00.932692,-2.0008988591815022,-1.9115735356420396,9.817363774543935,-0.9818793123674704,-0.8816594622873744,0.06620997029063212
2025-11-24T18:00:00.942308,-1.9222241434364797,-1.92788792271529,9.732761732450246,-0.8955488966899635,-0.6396387081992784,-0.09360184826459461
2025-11-24T18:00:00.951923,-1.6926445874389182,-1.7848750373693132,10.04550935545326,-0.8819031186660163,-0.8632186795815264,0.10966828514192925
2025-11-24T18:00:00.961538,-1.7409818806995794,-1.5860495988389423,9.871281195788269,-0.7553324571780708,-0.8250871304022186,0.02349561150339298
2025-11-24T18:00:00.971154,-1.706570630028344,-2.0865157561991308,9.833483674579732,-0.7814621029003088,-0.7510768526903381,-0.09396650370861248
2025-11-24T18:00:00.980769,-2.2336182356061247,-1.9380089172237143,9.816188698101783,-0.5453712344829382,-0.7871261323226734,0.25279360281697766
2025-11-24T18:00:00.990385,-1.8101116504277681,-1.8809480304140618,10.044240086832026,-0.7236617540497011,-0.5415071189416922,0.023672052995985602
2025-11-24T18:00:01,-1.7846830928325388,-1.8297871929622949,9.584950318294606,-0.7682881962594188,-0.6482620857060656,-0.03192392490195321
2025-11-24T18:00:01.009615,-1.8487570325497344,-2.034840281494415,10.00462207824819,-0.6760554498225027,-0.5829981672086121,-0.06568884339404928
2025-11-24T18:00:01.019231,-1.83216135200118,-1.7288111304255054,9.74739434427563,-0.5544338855008367,-0.5975399571265994,0.04168514918198917
2025-11-24T18:00:01.028846,-1.8383314535989315,-1.5699457480318615,9.838085706823012,-0.5252163748714923,-0.5659994512787421,0.0490636677962526
2025-11-24T18:00:01.038462,-1.5966551983969202,-1.935679017392765,10.212799702393214,-0.5328584926364917,-0.40602958946393086,-0.0643551895537524
2025-11-24T18:00:01.048077,-1.7732704305089773,-1.742897619007359,9.867998718900154,-0.47093581419308045,-0.3560639387145816,-0.031016651845019273
2025-11-24T18:00:01.057692,-1.7336512544758278,-1.562051259952679,9.66389024320826,-0.40462820275989586,-0.4713560021900751,0.09022926692603869
2025-11-24T18:00:01.067308,-1.5646559451175364,-1.5789560788087273,9.774056927552051,-0.42388912819120583,-0.31608433099182914,-0.03149980396801742
2025-11-24T18:00:01.076923,-1.6145475695049463,-1.3172341642428598,10.095319387742531,-0.41361503127232074,-0.2643918505973124,-0.023396540669167427
2025-11-24T18:00:01.086538,-1.4287205187303609,-1.442217382656734,9.803683723922006,-0.1893688786584133,-0.3064068582527465,-0.003353345935533693
2025-11-24T18:00:01.096154,-1.2487470995883578,-1.6436018296643882,9.787976037249202,-0.14594606717018,-0.0753628724133574,-0.11481766725047422
2025-11-24T18:00:01.105769,-1.1457664868912474,-1.4058891129850668,9.911610890354764,0.02254243780478757,-0.20569500201800267,0.0677623327104391
2025-11-24T18:00:01.115385,-0.9428119535316233,-1.2045131041280794,9.943071977954771,-0.16837537025900157,-0.2574623144083741,-0.0515561946520707
2025-11-24T18:00:01.125000,-0.8466022517306487,-0.899220622287446,10.132182730292666,-0.14571145338055222,-0.12600772180393335,0.0878028650250501
2025-11-24T18:00:01.134615,-0.932367502859661,-1.0333251534593886,9.6794534473567,-0.16963526216374977,0.03794461077354286,-0.07233008722993096
2025-11-24T18:00:01.144231,-0.9533255288332042,-0.8309861063389729,9.957240467209187,0.0744192547102571,-0.15031303525975498,-0.05710694558786554
2025-11-24T18:00:01.153846,-0.8209836959876765,-0.6421264896025892,10.01431228561918,-0.08479632529633227,0.078573611605781,0.06192017666189148
2025-11-24T18:00:01.163462,-0.7448273604873429,-0.7044315623703168,9.52615540681873,0.22656198412391731,0.06598788305232381,-0.056050489920883656
2025-11-24T18:00:01.173077,-0.5449318352385256,-0.8181269376330567,9.438232522743283,0.11253459358679549,0.2709010574724272,-0.0280712409376847
2025-11-24T18:00:01.182692,-0.6196600596031887,-0.31092251120069453,10.052068376216218,0.272622239868422,0.24688909991520747,0.0431761346035088
2025-11-24T18:00:01.192308,-0.6695335725255234,-0.3588184353740168,9.793235818567952,0.3182515772834878,0.2793098685365204,-0.009469576863790286
2025-11-24T18:00:01.201923,-0.1704629126020071,-0.48856835464093923,9.747395274476068,0.256253142797694,0.19747084622702943,0.07337524251777577
2025-11-24T18:00:01.211538,-0.506672840955065,-0.11291803905222927,9.890850260985042,0.30400162188825114,0.2507673325887765,-0.047342000097671366
2025-11-24T18:00:01.221154,-0.06279114448262138,-0.46491651346865503,9.815771419343973,0.3863493768391416,0.3785217098986528,-0.013015490128422302
2025-11-24T18:00:01.230769,-0.02435501557171374,0.056398654144268257,9.84274157321901,0.43752180673894503,0.45973026573841247,-0.029918183357611938
2025-11-24T18:00:01.240385,-0.08121921389956342,0.28385941337449744,9.525532404251773,0.49560805831654303,0.3731789169584138,-0.10771431450361808
2025-11-24T18:00:01.250000,0.04555208017013466,-0.13827049661211582,9.929287708008937,0.6163270172757066,0.5977828297860825,0.15992826392922121
2025-11-24T18:00:01.259615,0.20557366403955352,0.12165463589197124,9.840723577377062,0.6820592221899555,0.5632665541990692,0.1581058167888141
2025-11-24T18:00:01.269231,0.2065660407789571,0.021107663912055985,9.668521547449707,0.4928815986470877,0.5162785947476674,-0.05196765489017123
2025-11-24T18:00:01.278846,0.23095257715657166,0.31708391834210037,9.87299264069571,0.5912406026872851,0.7278011230246679,-0.04078890300871198
2025-11-24T18:00:01.288462,0.6820145822969776,0.5237364698390552,9.943144715888886,0.6680102508953555,0.6303180989194046,0.010290201649164088
2025-11-24T18:00:01.298077,0.48969087648354936,0.6603552370911125,9.879509752149914,0.8478192079317466,0.8572398571184748,-0.015570213090683276
2025-11-24T18:00:01.307692,0.5488812134060594,0.6679457019526316,9.8960642255901,0.7342244286516156,0.7250914157050863,0.09013569940012574
2025-11-24T18:00:01.317308,0.7506641724350367,0.704644282339018,10.001636327881263,0.7749864234422745,0.9422902093675384,0.037595580431962435
2025-11-24T18:00:01.326923,0.8455791637448333,0.8943342565861518,9.832760168935678,0.9856075733827865,0.7156044611322667,-0.1573820018610261
2025-11-24T18:00:01.336538,0.9454962553311836,0.957731321922585,9.819695746893567,0.8295393186119758,0.7711516866994824,0.09973199833614078
2025-11-24T18:00:01.346154,0.8156567971031106,1.0542662618277772,9.933190283288853,0.9924892332885489,0.9495542818217815,0.1024200775715086
2025-11-24T18:00:01.355769,1.216098388529489,1.1340113564554748,9.915412199506331,0.9411641862256077,1.0200525384099028,-0.11526289218916484
2025-11-24T18:00:01.365385,1.3775633739435365,0.9739073340306449,10.03011963187167,0.8229991193556067,1.0021907481032328,-0.01195700165318814
2025-11-24T18:00:01.375000,1.354406554258522,1.3656146323669431,9.779704973959435,0.9239903311319871,0.922245714217413,-0.03938016798590811
2025-11-24T18:00:01.384615,1.3352663621099763,1.2250715787188213,9.906369666392937,0.8396817942130417,0.930759848761533,0.14823552282412358
2025-11-24T18:00:01.394231,1.4469298301964544,1.1843517821790768,9.746110929454822,0.9774050413385988,1.0480458992563757,0.012478782555320662
2025-11-24T18:00:01.403846,1.452866152021655,1.401126450085119,9.680229333873903,0.9836656138466465,1.065565322479211,-0.10941550076540442
2025-11-24T18:00:01.413462,1.4553560348148833,1.655543295010319,9.685137342845643,0.9708418512068357,0.786299721546244,0.10706973405351297
2025-11-24T18:00:01.423077,1.479021404636832,1.65635739711702,9.564748569963244,1.1468734463657937,0.9981080341817207,0.013992820954428276
2025-11-24T18:00:01.432692,1.5655981833421777,1.5663371013699583,9.880692538777101,0.9698720779582122,0.9944720135514278,-0.12101456868125464
2025-11-24T18:00:01.442308,1.5953575060218022,1.4409326399276237,9.644810714406697,0.9930405705158772,1.0015251804534528,-0.058304628111457646
2025-11-24T18:00:01.451923,1.731306544788675,1.6951700067793134,9.672103909481711,0.954600738312025,0.8983261820636254,0.09753604015740379
2025-11-24T18:00:01.461538,2.1109736276742037,1.6426302321252535,9.56074443431353,0.9226359305209504,0.9471076266726757,0.033234491994133225
2025-11-24T18:00:01.471154,1.7257671302050848,1.8207027911878297,9.498102853748446,1.010222459367792,1.03383245583162,0.0028243952881817323
2025-11-24T18:00:01.480769,2.086603648734941,1.7608688520090097,9.800407152171019,1.0366856428754287,0.9779287338445223,-0.07955100224776682
2025-11-24T18:00:01.490385,1.8228330254630583,2.007561038890892,9.735644239851686,1.1019791645194246,0.7776619219505247,-0.015010747825231815
2025-11-24T18:00:01.500000,1.9058760792496041,2.10016405061471,9.509200884211182,0.9660133197271957,1.1064195742860568,0.2517704877017448
2025-11-24T18:00:01.509615,1.953606643058194,2.1491436308658924,9.826460116655358,1.049800510493268,1.0556492258974215,0.058931416029291736
2025-11-24T18:00:01.519231,1.7850358323606976,2.262336815013298,9.957455098086783,1.0679212125466553,0.7685841878264035,0.11204699391123518
2025-11-24T18:00:01.528846,2.171245070921426,2.117128657995539,9.943904668027674,1.1287316409977861,1.0286662426160862,-0.0005601657052714086
2025-11-24T18:00:01.538462,2.267286056164893,1.9330804962790267,10.053237122810676,0.887964792004315,0.995013492709848,0.033142582005494636
2025-11-24T18:00:01.548077,2.1874547077327104,2.0040600635828096,9.772279969186078,0.933445741463764,0.8309649763047945,0.07482482935493694
2025-11-24T18:00:01.557692,2.262870876556388,2.0740284108668487,9.982397316353307,0.9487573837194448,0.7609177211667455,0.032954335089102824
2025-11-24T18:00:01.567308,2.077526913335272,2.0773401463523897,9.749215923131299,0.7897681883909773,0.7910968177929604,-0.10376094918898855
2025-11-24T18:00:01.576923,1.9451488248539668,2.1574480422169415,9.902543714695684,0.6480741219633663,0.864989678041445,0.06797862720531407
2025-11-24T18:00:01.586538,2.171313388642591,2.001611211335769,9.938677589853347,0.8702697047736593,0.8314569200937797,0.09230725153793119
2025-11-24T18:00:01.596154,2.2255510747650904,2.040422994641066,9.694506382102391,0.8603139910239807,0.7840192511520538,0.004370562915177713
2025-11-24T18:00:01.605769,2.000786946370677,2.121699168278708,9.751434384986513,0.7709507969655817,0.6413541504890576,0.053576123464715394
2025-11-24T18:00:01.615385,2.0237969713883714,1.8365672223760832,9.625854230341881,0.6576399048711945,0.7852702767462453,-0.03066395478436768
2025-11-24T18:00:01.625000,1.9348516794378345,1.9540033722109131,9.801773036351657,0.6563359893219312,0.6645727254126838,0.12749913363292892
2025-11-24T18:00:01.634615,1.887413811403039,1.8475300558172558,10.054840368970533,0.6510154489529991,0.7358646853543732,-0.0005422364125141008
2025-11-24T18:00:01.644231,2.0089391562440326,1.8469063687893705,9.928183021852302,0.5963027244868545,0.5700764655516373,0.007550455051658769
2025-11-24T18:00:01.653846,1.931599759778892,2.1763094092762914,9.548984124822962,0.505049797618053,0.5441912052702103,0.08130721932011122
2025-11-24T18:00:01.663462,1.7519533533858798,1.6931170016326555,9.798596211483355,0.5554157360992987,0.49758411590840385,0.11947824307672589
2025-11-24T18:00:01.673077,1.713057896032561,1.6493421837720628,9.888284006533222,0.5011363300026144,0.524872972871586,0.03081863577399664
2025-11-24T18:00:01.682692,1.579186787520647,1.6757611148144331,9.929720405381904,0.47897268566029017,0.34366271787644487,-0.041310468982446696
2025-11-24T18:00:01.692308,1.9010957978107283,1.467017725921766,10.103820496125573,0.3569072011162054,0.44852912845129767,-0.040228653091130565
2025-11-24T18:00:01.701923,1.5719389503241503,1.6282565051011817,9.754869002454964,0.32301150063882866,0.2713181463401707,0.11207796932632749
2025-11-24T18:00:01.711538,1.4172896934528876,1.6949874188081102,9.738329814243748,0.32402420305363727,0.1878430243111348,0.08919043025076023
2025-11-24T18:00:01.721154,1.6520676385604647,1.2577540591377854,9.879377787446458,0.2559221298782684,0.2954020072615351,-0.047197377657948875
2025-11-24T18:00:01.730769,1.4302470969477619,1.7100840891416118,9.895842010920084,0.26788592677741074,0.20716961376257256,0.12946207207638413
2025-11-24T18:00:01.740385,1.4536972517316924,1.1973574982974968,10.142331236762617,0.206628605598536,0.2775376717140358,-0.0010240200707559224
2025-11-24T18:00:01.750000,1.086667834159661,1.401106383486828,10.003240681863998,0.001904000797478017,0.2123586014225478,0.03977266026079538
2025-11-24T18:00:01.759615,1.2757209119148778,1.2801977358485386,9.78479754591379,0.00451966603590466,-0.045896534179911186,0.007343579626009945
2025-11-24T18:00:01.769231,1.0959303628258934,1.100334771834002,9.981713278167174,-0.11540341086579843,-0.01206761742844803,0.045952675027928144
2025-11-24T18:00:01.778846,1.3781763921352002,1.3159347407420827,9.84266288634055,0.013358810163844746,0.01933003497635061,-0.02874029204658868
2025-11-24T18:00:01.788462,0.9493654861549033,0.9380834008655229,9.753636965674168,0.05610017850912996,-0.0775470766651629,-0.058596552636431154
2025-11-24T18:00:01.798077,1.0124251560873985,0.8176094718289665,10.052661581474501,-0.16772932129397966,-0.20462707488876988,-0.055380136279075204
2025-11-24T18:00:01.807692,0.6997904537661748,0.7938605526474184,9.607085013396599,-0.1184772676891477,-0.07995862537951558,-0.02196706433041438
2025-11-24T18:00:01.817308,0.7353182879538748,0.7452186140007929,9.81215103047434,-0.23684540027737358,-0.34385211626604256,0.004220727042380763
2025-11-24T18:00:01.826923,0.9173002855646402,0.558240152300208,9.498916842005807,-0.20317187382219404,-0.24513653000067867,0.05827758302155739
2025-11-24T18:00:01.836538,0.4000481715511457,0.6300783997164178,9.837256291210998,-0.40443497400745676,-0.22880146426450942,0.04482599038339277
2025-11-24T18:00:01.846154,0.3935121074868406,0.47420454486591135,9.778273925803378,-0.40330298569858364,-0.279638108887316,-0.05554567986428016
2025-11-24T18:00:01.855769,0.47320266948866224,0.12089831067007564,9.779937366508694,-0.3473587016036208,-0.4767451384243105,0.00682681211733498
2025-11-24T18:00:01.865385,0.481331727392737,0.25695773358955143,9.713087167164357,-0.4177102852860191,-0.47823642049482606,-0.025860499483777933
2025-11-24T18:00:01.875000,0.19705441959059944,0.0903109110448465,9.93707546709872,-0.5047594741466395,-0.49863011044704747,0.0037985666519791683
2025-11-24T18:00:01.884615,-0.14769913779346186,-0.033195197039707115,9.59521015603774,-0.5433614601776833,-0.5575944498324189,0.06344049257533861
2025-11-24T18:00:01.894231,-0.2165601010499451,-0.19565783464938308,9.703655308270308,-0.5427485847287992,-0.5500383062929773,0.25369351020162095
2025-11-24T18:00:01.903846,-0.28541600802630407,-0.4876340806056053,9.866059107724645,-0.5260407457325909,-0.5965805743672195,0.052855555618497085
2025-11-24T18:00:01.913462,-0.385299554660438,-0.18020571556333795,9.904938214123584,-0.6470892857108913,-0.6793835757694656,0.12345222553917641
2025-11-24T18:00:01.923077,-0.2764599938221256,-0.5686477338851755,9.926483252799768,-0.6032885163493618,-0.6687473686488139,0.104051945583798
2025-11-24T18:00:01.932692,-0.4619003727977592,-0.13602575713147802,9.704676496059879,-0.6989149192636309,-0.7910619686786006,0.1553903181204264
2025-11-24T18:00:01.942308,-0.5904441593051736,-0.42893573459041634,9.930487896323573,-0.6607372425758354,-0.9177389727137214,0.018183882897069348
2025-11-24T18:00:01.951923,-0.6291823905090708,-0.6808536894302604,9.87049687831001,-0.858908393886876,-0.8292481451030389,0.20577718200701017
2025-11-24T18:00:01.961538,-0.6261789101614766,-0.647554640309421,9.909322283662801,-0.7453850353546762,-0.8265660130812178,-0.07742305938423533
2025-11-24T18:00:01.971154,-0.8884656008638548,-0.7912767650442741,9.876401346885487,-0.910300698746569,-0.892632391848057,0.035007072340631926
2025-11-24T18:00:01.980769,-0.862987544232163,-0.8491681382709402,9.88992339378548,-0.948572373011692,-0.7941941688560972,0.10848528305068521
2025-11-24T18:00:01.990385,-0.9513158103728672,-0.7499448376267557,9.702603740980958,-0.8485292655047509,-0.7552123227704559,-0.03692543605303167
2025-11-24T18:00:02,-0.8387627340881929,-0.9927003089946517,9.98119117825496,-0.9317065949499196,-0.811547957121095,0.028141855845477796
2025-11-24T18:00:02.009615,-1.0008722390802691,-1.1672990654103814,9.964280490789655,-0.9262979175802512,-0.9036305589394026,-0.012151758087114748
2025-11-24T18:00:02.019231,-1.0610627390130256,-1.41533173159089,9.657003829879507,-0.853754614676987,-0.8748888472883062,0.04188948483090883
2025-11-24T18:00:02.028846,-1.3103908854313384,-1.3348442680990107,9.683066415347291,-0.8195518433757206,-1.1318588640705303,0.10503996456504487
2025-11-24T18:00:02.038462,-1.2773034759438768,-1.262170365114036,9.971948003583682,-0.8671074298692313,-0.8119426502210083,0.058313097865974245
2025-11-24T18:00:02.048077,-1.5461789175626508,-1.4275496301977366,9.770008453530982,-0.9951059059889737,-0.9404551510278586,-0.009440011800714347
2025-11-24T18:00:02.057692,-1.4860202843881913,-1.8200825041117616,9.822485903046582,-0.9303321608463905,-0.8588795719649353,-0.12937954453944803
2025-11-24T18:00:02.067308,-1.1665911972914216,-1.7386303784530743,9.778210488476049,-0.9326669754900432,-0.9996884969876776,0.08801282214584527
2025-11-24T18:00:02.076923,-1.7316764748320923,-1.6670999280930117,9.816542197433895,-1.027289820163121,-0.999570864998593,-0.1823990370548136
2025-11-24T18:00:02.086538,-1.7019321296146446,-1.725074078502126,9.85039025155845,-1.02868944130858,-0.937092165791517,0.07611282413106477
2025-11-24T18:00:02.096154,-1.8177422696931287,-1.376587765473325,9.803131561487152,-0.9697263815769256,-0.8278915695464094,-0.0003444292641078296
2025-11-24T18:00:02.105769,-1.8714979112422556,-1.446351281141272,9.558458702130759,-1.0133152336537652,-0.8560773707568365,0.04823424580677744
2025-11-24T18:00:02.115385,-1.9244925787764555,-1.7589159495583826,9.929747075212669,-0.9459466763856432,-1.0628394062608333,-0.03201443844644909
2025-11-24T18:00:02.125000,-1.688013965700353,-1.955876233136625,9.995211406037598,-0.9215730052479316,-1.0264954982905203,0.03636653624776068
2025-11-24T18:00:02.134615,-1.5429077554918,-1.732164667916998,9.770339146838637,-0.9688876898340183,-0.8894785257126829,0.0650180413919744
2025-11-24T18:00:02.144231,-1.7121255463832683,-1.8873884534994945,10.10866366700182,-0.9828204661973798,-0.9526192707610595,-0.09486568129343839
2025-11-24T18:00:02.153846,-1.6568995218511178,-1.7719589913384404,9.724374672217362,-1.0094184440912453,-1.0993070517331138,0.04912830655336431
2025-11-24T18:00:02.163462,-1.9721653853709855,-2.0192686717862274,9.801009737076916,-0.8678934146596646,-0.8960129256298431,-0.10263879702790918
2025-11-24T18:00:02.173077,-1.9583264283289512,-2.010324778979425,9.733017523144806,-0.7457732280777787,-0.7807318715594478,0.0308104770257574
2025-11-24T18:00:02.182692,-2.0184693345018965,-2.051170907300875,9.900788559537586,-0.8039800759606329,-0.9211349861010216,-0.022398307325084698
2025-11-24T18:00:02.192308,-1.4989566947421842,-1.8418943553125162,9.751973507194927,-0.7977500148001051,-0.8910784834364266,-0.11209154587830465
2025-11-24T18:00:02.201923,-1.7198879500799529,-1.814011121294988,9.816846435325571,-0.8255617921742083,-0.7171147030751851,0.1087983281280196
2025-11-24T18:00:02.211538,-1.7695603278217609,-1.6875484709280006,10.002772844539217,-0.6397534050157911,-0.786080200410753,0.03972837094498284
2025-11-24T18:00:02.221154,-1.973728184285367,-1.9166867263714367,9.708320745679686,-0.7663349633629551,-0.8768272364121943,0.08797229788842206
2025-11-24T18:00:02.230769,-1.8629827888818262,-1.7477307421880455,9.849546379756541,-0.717369945301266,-0.6904122097899115,0.07781077713617039
2025-11-24T18:00:02.240385,-1.8690156779378648,-1.8152622730385997,9.686079769130297,-0.8124740114271503,-0.7152114831933559,0.019641163746319752
2025-11-24T18:00:02.250000,-1.606953699727075,-1.7028589120530266,9.871984868127274,-0.5013152046930105,-0.6712148781625961,0.001256979343558045
2025-11-24T18:00:02.259615,-1.6392497668692125,-1.840830785085523,9.797212692020718,-0.4955455885185358,-0.7386147653948574,-0.03511637180478423
2025-11-24T18:00:02.269231,-1.6078726195557134,-1.6722903848394326,9.805263997060289,-0.515606362003485,-0.5683177461657521,0.030507561739732444
2025-11-24T18:00:02.278846,-1.8032684734271103,-1.9301026583936802,9.728835393429536,-0.5169804123760461,-0.5873403984020626,0.026057613243968363
2025-11-24T18:00:02.288462,-1.7649067102490879,-1.8011156048084696,9.70334122507469,-0.46667275653907825,-0.399168063409449,0.007934215991877755
2025-11-24T18:00:02.298077,-1.6351254640219053,-1.53351788023975,9.692824757412735,-0.5809753341250922,-0.49541481511779467,0.048157108714450905
2025-11-24T18:00:02.307692,-1.316704496688274,-1.6199405113327183,9.815982018839403,-0.46042838095222083,-0.38560552446622504,-0.0484109097606964
2025-11-24T18:00:02.317308,-1.4660079061736653,-1.247928945408224,9.954337259295007,-0.3484606097993471,-0.4177050405884414,0.011305923904775219
2025-11-24T18:00:02.326923,-1.173082317279945,-1.3836659402495102,9.801152396262609,-0.5608408278468429,-0.5097792435761399,0.0037394021979614313
2025-11-24T18:00:02.336538,-1.3597796701142864,-1.3071610323743736,10.070505025910721,-0.34086419913794164,-0.34640347193541265,0.1481608246317022
2025-11-24T18:00:02.346154,-1.1127558751680957,-1.1235507853042226,9.96050532136159,-0.009548889878092187,-0.21732665312574026,0.04592879966401883
2025-11-24T18:00:02.355769,-1.2447315518963438,-1.1285764455911749,9.77707215356492,-0.08811593387362009,-0.023837039074650374,-0.04666289173305073
2025-11-24T18:00:02.365385,-1.0635426322555386,-1.2797408987252001,9.709860815717878,-0.18147065967029302,-0.07513758192357105,0.06345647837734018
2025-11-24T18:00:02.375000,-1.2224049321118797,-1.0379603432084672,9.991863047125099,-0.03340144135243989,-0.07349132360161859,0.1461563795395681
2025-11-24T18:00:02.384615,-0.8455599867851705,-1.2801244909087215,9.969796237729339,-0.12526680970294896,-0.17873948998486316,-0.015752904335780905
2025-11-24T18:00:02.394231,-0.8846180066943354,-0.8752454225594719,9.778751960000447,-0.04311991035885743,0.05653869060674441,0.15285304323708
2025-11-24T18:00:02.403846,-0.7562300971551312,-0.7617635565929803,9.751195434624666,0.07198864136331228,-0.050329688540537,-0.13501211151496356
2025-11-24T18:00:02.413462,-0.7904637636790565,-0.6416320095736556,9.805723256734034,0.022531425849225767,0.19596882374295574,-0.11889738358049341
2025-11-24T18:00:02.423077,-0.7427745842514538,-0.7001549710776998,9.807340817978828,0.1462874055934109,0.17853498035854365,-0.07909113160323393
2025-11-24T18:00:02.432692,-0.41362685696416907,-0.6699833675092455,9.811622219029772,0.32934960234827493,0.2547606771505602,-0.03618693362353373
2025-11-24T18:00:02.442308,-0.22007221678009942,-0.43543346953012024,9.785062597732566,0.34144547368631023,0.3516633735429169,-0.10152274347222288
2025-11-24T18:00:02.451923,-0.33540950085462096,-0.40904017976840473,9.771347763365027,0.3506189059737111,0.14367378818203314,-0.1411218391490517
2025-11-24T18:00:02.461538,-0.4195575429759343,-0.3210324960950474,9.86739005209218,0.18063590322595457,0.5306698366534619,0.04663739967173381
2025-11-24T18:00:02.471154,-0.0920771797077423,-0.11805743427062418,9.854203754143732,0.35739105545308913,0.41040487024055006,0.03201099492008537
2025-11-24T18:00:02.480769,-0.16943539509050928,-0.10060220598897537,10.068938478499073,0.45609677549540045,0.42370794369512554,0.12986943015876834
2025-11-24T18:00:02.490385,-0.07869664086401902,0.005905765183738224,9.87026245051477,0.4687685112390619,0.35272434256396595,-0.057469930011380024
2025-11-24T18:00:02.500000,0.13637982909342244,0.05566267834621198,9.897449127374609,0.6537001035841996,0.40829070253946603,0.059250097330395324
2025-11-24T18:00:02.509615,0.10639843641393983,0.22032191952770303,9.709468713193914,0.5626466017798439,0.5443122292454564,-0.014552960478388773
2025-11-24T18:00:02.519231,0.17104941373960353,0.31336998958589546,10.005623977439006,0.5429446056971162,0.6617699468457884,-0.027321533110895437
2025-11-24T18:00:02.528846,0.41029461961440133,0.6082275171861227,9.790502690584523,0.64834846015542,0.6786652753082555,-0.00488574811971695
2025-11-24T18:00:02.538462,0.575175205341136,0.5701536253315048,9.89659737865532,0.6989562822825078,0.5739531416357981,0.040792215683935235
2025-11-24T18:00:02.548077,0.6707560745624688,0.4031767783858598,9.73485065496122,0.6904213806244581,0.8088479039521669,0.027898133593191037
2025-11-24T18:00:02.557692,0.6176750420971902,0.7372565722151857,9.889528992110975,0.684051745375946,0.8025385879230491,0.12623302754920648
2025-11-24T18:00:02.567308,0.8691361076539769,0.7401091895507543,9.919634045714169,0.7235608884395885,0.8926322889147029,0.12399541924558737
2025-11-24T18:00:02.576923,1.0025904950029954,0.8594956782377134,9.946911184172317,0.8456770291968886,0.8644127314616703,0.061886222743174304
2025-11-24T18:00:02.586538,1.05501496902895,1.0082219764798517,9.767896235204326,0.8003645792892694,0.7865847543710934,0.047200328330676944
2025-11-24T18:00:02.596154,0.9947142164249817,0.9352592696717894,9.803981415758532,0.8706998127292216,0.9007807338545312,0.03007596342414945
2025-11-24T18:00:02.605769,1.3157115627956169,1.0550108617419265,9.866663251584026,0.9493205337411217,0.8141489983356855,-0.10663357999492683
2025-11-24T18:00:02.615385,1.1207300128421633,1.17032608431577,9.94493658838257,0.8789676352632294,0.8077133672274684,0.00796776579838653
2025-11-24T18:00:02.625000,1.3617713900393842,1.311443571611556,9.963994668329393,0.858384101023454,0.9089176578651138,-0.03758985446425997
2025-11-24T18:00:02.634615,1.5222369764693284,1.2191110919511758,9.563962616102149,0.9350647963506721,0.9555474203181458,-0.11679862325188305
2025-11-24T18:00:02.644231,1.501642424054524,1.7180576008259218,9.800538418380858,1.0313645510781502,0.8988170358124208,0.01389413269490377
2025-11-24T18:00:02.653846,1.5672309836206244,1.5668541096136392,9.725180952665726,0.9606135716008058,0.9620928557527475,-0.06324173542051857
2025-11-24T18:00:02.663462,1.4662794994834463,1.5300719702611212,9.735898084456174,0.9464360494558208,0.927677245767157,-0.014900397663167777
2025-11-24T18:00:02.673077,1.7970918235136895,1.3704748631948984,9.72959458637771,1.0594307656308037,0.92207670915123,0.0020526689210003286
2025-11-24T18:00:02.682692,1.6183177172783534,1.8851716577672548,9.871606401619866,1.0248606323796259,1.1892929887897774,-0.05441545231570277
2025-11-24T18:00:02.692308,1.5948261157931025,1.9940957113282423,9.895774882759174,1.0977335550914455,1.2064512047020832,0.060319553007049706
2025-11-24T18:00:02.701923,1.764995851488925,2.0928173324126584,9.642345142088347,0.9411237251186787,1.0213794746401734,0.05051717650981658
2025-11-24T18:00:02.711538,1.8802910463757208,1.7714192702669833,9.46422839274976,1.052676308501614,1.088995722859821,0.09084825386573658
2025-11-24T18:00:02.721154,1.6722452769104859,1.8995026556269716,9.905437336921622,0.9855742133583949,0.9659014401613336,0.037704966445639324
2025-11-24T18:00:02.730769,2.282807156699817,2.0206902328022536,9.690879519421761,1.1080849231738887,1.0110306327372365,-0.12766747251666583
2025-11-24T18:00:02.740385,2.0318054705406476,1.6971247057341947,9.66673003434623,1.05941834019018,1.0889866658689347,0.01067555918514945
2025-11-24T18:00:02.750000,1.9476771079429485,1.993360978065059,9.808536361468562,1.0009628125506935,1.1338638745226064,0.18735951606053317
2025-11-24T18:00:02.759615,1.8239862144602925,1.8137040322641367,9.899509068408497,1.0422530349722297,0.841795423213603,0.11472152135581878
2025-11-24T18:00:02.769231,2.2618755217418394,2.0609485295756897,9.876837942152047,1.12435186614783,1.0718450006710574,0.05645565830467679
2025-11-24T18:00:02.778846,1.8687941165655464,1.9589374859762512,9.906943094523221,1.0046651064589371,0.9317676279383379,0.07782394548207706
2025-11-24T18:00:02.788462,1.9355112765937372,2.1140794302898964,9.62628396082445,0.9376285143475543,0.887791443148293,0.05559296797769761
2025-11-24T18:00:02.798077,2.139666574540254,2.342779763293653,9.92365452223594,0.9232770158256357,0.944272692044293,0.034177315297836186
2025-11-24T18:00:02.807692,1.8843767705364933,1.973117303061284,9.83005634064951,0.8699032283695955,0.9896417625123781,0.009005774465381656
2025-11-24T18:00:02.817308,2.361189034526143,2.098248399011538,9.610350741265696,0.9169727403916458,0.9735327094854129,0.027939674560149445
2025-11-24T18:00:02.826923,1.954286603039948,2.106851012001954,9.861613068876995,0.7351941065857375,0.8365477009350312,0.1324629875260314
2025-11-24T18:00:02.836538,2.163780778301142,2.13335067717288,9.743680758137458,0.7619705460532588,0.8236659274337306,0.017915372681130498
2025-11-24T18:00:02.846154,2.0179370910406633,1.7677497936930613,9.936446208317138,0.7861170740836362,0.6892037253949306,0.07389323840205111
2025-11-24T18:00:02.855769,2.2802152984880455,1.8953303403232038,9.936413404612342,0.6737762897526263,0.7277914440031151,-0.01657513942719969
2025-11-24T18:00:02.865385,1.9239953568326378,2.011045743218331,9.798427013977355,0.6112256144020345,0.8303747348244792,0.10424864906716914
2025-11-24T18:00:02.875000,1.8318777036576073,2.0482189140863745,9.809453633220235,0.7537397996604908,0.7472737177691722,-0.09767524576765557
2025-11-24T18:00:02.884615,1.8693948633074438,2.062900471899123,9.534832981266288,0.5725040395613752,0.6567992670685221,-0.08108514650508829
2025-11-24T18:00:02.894231,1.9757096969010912,2.0415039941576647,10.027337823607008,0.5517491463030445,0.6854057036715482,0.010901502578152037
2025-11-24T18:00:02.903846,1.9894072541380265,1.9477526878924902,9.87108882704173,0.6173952106859202,0.585499476720235,0.17617135433287823
2025-11-24T18:00:02.913462,1.7770614656386932,2.1578807432778704,9.788330405010596,0.5146368261543379,0.4690279803526475,0.03031517331519231
2025-11-24T18:00:02.923077,1.8073877706026715,1.9213889126960129,9.809253400458266,0.3265104424160865,0.4533451328183891,0.12396593762043204
2025-11-24T18:00:02.932692,1.87561356052596,1.5257294897961304,10.0629313298332,0.2851494320844017,0.46805381313872346,-0.06559299901652318
2025-11-24T18:00:02.942308,1.7901412968626562,1.8517990694234407,9.980585390058025,0.4170307235956056,0.3554137254805565,-0.0634685029033936
2025-11-24T18:00:02.951923,1.4496736480325958,1.6656997569547032,10.145479745918246,0.43667097474700656,0.380947005497479,-0.13828217312250085
2025-11-24T18:00:02.961538,1.6527640584885355,1.5402686421461962,10.039835402595935,0.21065315667430312,0.2880607914908761,-0.04512722028742784
2025-11-24T18:00:02.971154,1.7070336719567147,1.744903987320629,9.619630293724828,0.3282796563914499,0.3147303829508889,-0.02501495524539214
2025-11-24T18:00:02.980769,1.2968007257285563,1.430492634933293,9.8557773036806,0.3159011712979344,0.28096786378560995,-0.05952767761544113
2025-11-24T18:00:02.990385,1.4432741870219277,1.2081282334756196,10.0250472254076,0.2729915492710475,0.1638216921664226,-0.04961926114681561
2025-11-24T18:00:03,1.5077652048769894,1.167006316718342,9.838795460766727,0.2139848416149503,0.20159383842837453,0.13898596399877922
2025-11-24T18:00:03.009615,1.0919629405576048,1.323888601647987,9.903240922053453,0.1870243537537808,0.08003555935737847,0.0058303555563026
2025-11-24T18:00:03.019231,0.9012032109164736,0.9788440308163047,9.796550696303179,0.1386247728875596,0.03743537884307309,0.010683973644057302
2025-11-24T18:00:03.028846,1.089306428741911,1.1650767237178699,9.794930149025538,0.05919615049149844,-0.03570773136509618,-0.07075575642173182
2025-11-24T18:00:03.038462,1.073893904822119,1.101286095855367,9.999202213185916,0.02979373529847168,0.04387064134355442,-0.07625013419474533
2025-11-24T18:00:03.048077,1.1040399420714586,0.8880576264457358,9.827722475625066,-0.14428717904079014,-0.08062855002640296,-0.06364842751545005
2025-11-24T18:00:03.057692,0.8417728876917265,0.6037128796416467,9.878648889628176,-0.1551778630517725,-0.18338869836177873,0.05036139769252014
2025-11-24T18:00:03.067308,0.8253701017102973,0.4736938437255848,10.113292909591117,-0.26173745773598817,-0.3129053276666718,0.10791198885978373
2025-11-24T18:00:03.076923,0.5050146285176157,0.5800149134546221,9.779117242482666,-0.3942722080797253,-0.19849829670464128,0.05743674182337939
2025-11-24T18:00:03.086538,0.5108324036655645,0.45526318162686097,9.730829493667136,-0.5042283232983114,-0.4219432778322775,0.04777665777854235
2025-11-24T18:00:03.096154,0.6696669258570732,0.43049371711543266,9.572590325756135,-0.3570840247229694,-0.4197592458833625,0.14959907399573044
2025-11-24T18:00:03.105769,0.17630244981902984,0.41400660951679313,9.789095688175832,-0.3195904116802096,-0.3754116824593831,0.0761004865017194
2025-11-24T18:00:03.115385,0.371900713907064,0.1328848014694694,10.02649873767386,-0.4274627533296624,-0.29802499851950087,0.12883222859420537
2025-11-24T18:00:03.125000,0.09673625375778085,0.3877339598889382,9.773545275269829,-0.5429181543467642,-0.5530592102241141,0.1102374594753438
2025-11-24T18:00:03.134615,-0.1979838399813516,0.005775145289581097,9.845138697138992,-0.5320516818904525,-0.47786306968056563,0.04032279848390087
2025-11-24T18:00:03.144231,0.3782902777654743,-0.12713900725282493,9.791084921762083,-0.6705479029890703,-0.6492545222602293,0.004670971427623485
2025-11-24T18:00:03.153846,-0.035133118695746035,-0.08999195227173816,9.864575474480535,-0.5720557439221866,-0.6160152929826919,-0.013400710076725202
2025-11-24T18:00:03.163462,-0.37978130169137503,-0.07990978106713872,9.805591504974576,-0.600746050809619,-0.5987300670745713,-0.12278927448748418
2025-11-24T18:00:03.173077,-0.17048687791256648,-0.22150050152038997,9.884742772412201,-0.640300470749883,-0.6905109817924482,0.06225394214039416
2025-11-24T18:00:03.182692,-0.5329761102742328,-0.3932372217086688,9.758645091591019,-0.7182889419869267,-0.767056194103323,0.19253300640559026
2025-11-24T18:00:03.192308,-0.5948070960004443,-0.7087458349933338,9.93615990103878,-0.7088747627292744,-0.6505325213355034,-0.11504472419158206
2025-11-24T18:00:03.201923,-0.39555391063487927,-0.4382597401212963,10.09568015888208,-0.9136186607180565,-0.5250461964173838,0.16330249318112783
2025-11-24T18:00:03.211538,-0.882536743994381,-0.562122833421872,9.731924909094525,-0.8214083643989386,-0.589238522643844,0.07674923999304487
2025-11-24T18:00:03.221154,-0.9021718437475812,-1.0906723999711005,9.879931650756266,-0.6519966736469471,-0.8566850639451425,0.1121280898428988
2025-11-24T18:00:03.230769,-1.1494285873625842,-0.891699255287725,9.461397204414025,-0.7587029222913264,-0.9041397250469059,0.013661099922735856
2025-11-24T18:00:03.240385,-1.0033535367726851,-1.185288486154291,9.808173133858636,-1.0442649366604095,-0.9281070875470253,0.01965961083329195
2025-11-24T18:00:03.250000,-1.248168506251073,-0.7363926418978388,9.583846250472407,-0.9059164672622314,-0.8772316684501711,0.010626569638370121
2025-11-24T18:00:03.259615,-1.142288958711247,-0.9487713049094307,10.20685079470431,-0.9041138616975188,-0.9179405049359047,-0.02611358408083966
2025-11-24T18:00:03.269231,-1.4159208284223432,-1.1247884902876588,9.752916493867275,-1.0067202294870996,-0.8018743826050228,-0.07546530324419304
2025-11-24T18:00:03.278846,-1.2469976520841326,-1.2359007865925475,9.89019331941827,-0.9254656857868334,-1.0332836689227207,-0.028626585705193417
2025-11-24T18:00:03.288462,-1.485294894001385,-1.5054880954338332,9.88789785292399,-0.8880919022257785,-0.9505616934624749,0.07082313969296174
2025-11-24T18:00:03.298077,-1.5275307297441894,-1.6989294091577105,10.00242914793056,-1.0549243447071697,-1.0481728838732778,0.2780927989820249
2025-11-24T18:00:03.307692,-1.5959664845960904,-1.3850433610277322,9.679443298470837,-0.9001673884231889,-0.8000185146070565,0.09451117263428044
2025-11-24T18:00:03.317308,-1.6177867503847034,-1.5178636538350996,9.796963199179833,-0.8886113644640313,-0.9517841742706811,-0.014673603340848305
2025-11-24T18:00:03.326923,-1.344306003816137,-1.7290065396881542,9.736506493832094,-0.978900158426942,-1.088574336561624,0.03741263416032242
2025-11-24T18:00:03.336538,-1.5746389501463238,-1.6049780858953948,9.83822076367076,-0.9324332272112914,-0.9416561639299683,0.062092062119365826
2025-11-24T18:00:03.346154,-1.6944518839632805,-1.4353322179080186,9.903441463448187,-0.941943730508938,-0.999584271602388,0.03243733527875824
2025-11-24T18:00:03.355769,-1.8585788913461148,-1.7699045417962753,9.639011588526321,-1.1520094365286915,-0.9639029650400992,-0.003438679690326251
2025-11-24T18:00:03.365385,-1.9637438731297419,-1.8843930991455102,9.677712408672626,-0.9935918487323001,-1.1170644342105267,0.0706607062804806
2025-11-24T18:00:03.375000,-1.819458301510588,-1.5581941581204812,9.673034363770665,-0.9212679794950014,-0.8928504536535751,0.10605142993070317
2025-11-24T18:00:03.384615,-1.9198664005679658,-1.7747636329832503,9.391390822828068,-0.8903348726505681,-0.8558282254028617,0.03685124674387865
2025-11-24T18:00:03.394231,-1.9287399532929779,-1.749734811354393,9.971975928962692,-0.9857959143770543,-0.9284374649342579,0.15611248063751357
2025-11-24T18:00:03.403846,-1.8125092880089937,-1.5595959155163717,9.77664486425924,-1.0070255047747003,-0.9302525627221552,0.08436687539243624
2025-11-24T18:00:03.413462,-2.2229840509931793,-1.7782513397901276,9.85565804082951,-0.9496686326818325,-0.8944834912384901,0.022676301310536405
2025-11-24T18:00:03.423077,-1.9247150992147077,-2.0293596253047714,9.901053224159886,-0.8458787956283806,-0.9398194165558702,-0.024494841446360178
2025-11-24T18:00:03.432692,-2.0063781290798675,-1.8667301100080878,9.79425800346869,-0.8082656234196849,-1.0534654848676877,-0.012380599986145973
2025-11-24T18:00:03.442308,-1.9695135118096188,-1.6729743384542788,9.74677535780538,-0.870492398447469,-0.8724951927315825,-0.036858807765226015
2025-11-24T18:00:03.451923,-1.8877884115025543,-1.5758669865144133,9.847476642716753,-0.792995627955019,-0.733092404047631,0.08873386500333835
2025-11-24T18:00:03.461538,-1.7893364999444177,-1.8845149235248517,9.851394889943075,-0.69800520426467,-0.7538490234361315,0.00928912326620899
2025-11-24T18:00:03.471154,-1.9740046135821654,-2.130547342021319,9.896489168565008,-0.7211691751056823,-0.8385304431000788,0.148899195613585
2025-11-24T18:00:03.480769,-1.891102416488882,-1.9608749607292275,9.743295110796543,-0.780707160986493,-0.6613291507952189,0.09135384502815616
2025-11-24T18:00:03.490385,-1.8166813626833718,-1.7724033685430425,9.982522198562814,-0.6662348408516654,-0.8174364519648566,-0.10656944385647939
2025-11-24T18:00:03.500000,-1.7241558449145553,-1.7908685135424465,9.869656237032157,-0.7159284490246798,-0.7978123301551717,-0.09281272334671532
2025-11-24T18:00:03.509615,-1.66464921086953,-1.9269831810441063,9.897557530206047,-0.5672577813914986,-0.5671466296496964,-0.0588289882791848
2025-11-24T18:00:03.519231,-1.8037057272170698,-1.711607339240421,9.593664894617458,-0.533245694907751,-0.43583250431421094,0.16633937117317737
2025-11-24T18:00:03.528846,-1.5945579520378566,-1.4866199158448568,9.856099767892184,-0.7466300361234046,-0.6303619061893346,0.03135997983008202
2025-11-24T18:00:03.538462,-1.7338982117559711,-1.7836122126624974,9.730659959915988,-0.4413482057432192,-0.5961548250722086,-0.09292511132144123
2025-11-24T18:00:03.548077,-1.6305237905965548,-1.5760170346436801,9.878403216399155,-0.4979833792083347,-0.47455280596563043,0.06706126306828103
2025-11-24T18:00:03.557692,-1.346965255712208,-1.536660734915211,9.726383025076656,-0.39856972994402035,-0.44772647547319705,0.0032966052023974263
2025-11-24T18:00:03.567308,-1.3092597788882334,-1.7676249148328256,9.80412747930122,-0.4353013835854914,-0.3196999177614405,-0.013430292585050501
2025-11-24T18:00:03.576923,-1.1859328888251115,-1.4752961842733714,9.759048682396775,-0.2880886158431286,-0.16708917080183777,0.20322530103521178
2025-11-24T18:00:03.586538,-1.1402310069663315,-1.3003732166815865,9.970655970112912,-0.16000688382660835,-0.30629989664944546,-0.04061676621112573
2025-11-24T18:00:03.596154,-1.4341832221300643,-1.389151311627133,10.131963487973334,-0.37391047455342524,-0.3586266833781726,-0.22728384123777468
2025-11-24T18:00:03.605769,-1.0096608829863793,-1.3023305770701465,9.837655868521678,-0.17104671248461387,-0.24919015128028627,0.016208890096007216
2025-11-24T18:00:03.615385,-1.0551985930041459,-0.979619692756214,9.892886230322247,-0.1385931327603932,-0.10498261244583335,0.016660969822289835
2025-11-24T18:00:03.625000,-1.0650496685906412,-1.3839647270724318,10.086791223963644,0.04332698846201524,-0.05077748203605262,-0.07769757079316937
2025-11-24T18:00:03.634615,-0.9221333856510256,-1.0851909580148384,9.94687051014489,-0.1972832783656376,-0.024866295241811172,-0.03826951493682705
2025-11-24T18:00:03.644231,-0.8347261864456247,-0.9011164513148114,9.831724923774537,-0.040470032655042024,0.03458217082163379,0.1355958266416463
2025-11-24T18:00:03.653846,-0.8976813597805205,-0.5295557853753119,9.831530933241593,0.16524122739549812,0.11591010512006922,0.024420256292210663
2025-11-24T18:00:03.663462,-0.7755656342333033,-0.7203948888779652,9.776594223651733,0.24790164550008456,0.1873840106877077,-0.013549416318385087
2025-11-24T18:00:03.673077,-0.8382306033511688,-0.44341269458973165,9.778131589405612,0.19528615548618689,0.43427391172965424,0.02764872846189928
2025-11-24T18:00:03.682692,-0.6110046374986702,-0.844760346667126,9.807987465021098,0.12400642835637954,0.2071414397898415,0.11585134053361565
2025-11-24T18:00:03.692308,-0.4455468262558832,-0.49774663772259475,10.073607739663526,0.32207325487405697,0.13579050435077467,0.029039321794384215
2025-11-24T18:00:03.701923,-0.6723495547328793,-0.12526318270014464,9.748948446664535,0.39190993729095147,0.25138154508970745,0.062134746495788026
2025-11-24T18:00:03.711538,-0.4652393121097397,-0.5233721352909144,9.614761320998058,0.13593167395135,0.4089619275961247,0.11674741939289629
2025-11-24T18:00:03.721154,-0.5527094673110475,-0.15836621847637605,9.799824222185553,0.40384496858038205,0.43514810556416794,0.12858445742990762
2025-11-24T18:00:03.730769,-0.18594794049959068,-0.05727594456558178,9.824325632454775,0.4361327629653575,0.5638401062026676,0.04053518401832075
2025-11-24T18:00:03.740385,-0.15017229054982195,0.13630015362160774,9.869821932135352,0.4402752818312518,0.4077534290795537,0.0851929612991473
2025-11-24T18:00:03.750000,-0.16495532740384977,0.2168448573810369,9.786150040157976,0.448863401831696,0.5213770729992167,0.1319395291989986
2025-11-24T18:00:03.759615,0.10661069340181169,0.42275357123543794,9.887676560811974,0.6271570341697025,0.5029456378962424,0.045824186251005254
2025-11-24T18:00:03.769231,0.2895955466033171,0.5136489185944673,9.894865868380581,0.49718014579088265,0.6407334775472975,0.18086823717518266
2025-11-24T18:00:03.778846,0.27890187066837535,0.49367429645419525,10.064540858874812,0.540230041778284,0.7341475030204635,0.0735552203474399
2025-11-24T18:00:03.788462,0.5400550295961639,0.22113030565219044,9.677384760695576,0.5638285197997392,0.5494706621661651,-0.016152652796371177
2025-11-24T18:00:03.798077,0.6509518618979803,0.7807652185778172,10.010480130423856,0.6280896194063861,0.7250394840645079,0.06849672137574497
2025-11-24T18:00:03.807692,0.8788560803066836,0.8449427219826342,9.754664310862115,0.7163254293829174,0.8766632975196051,0.03427869963134745
2025-11-24T18:00:03.817308,0.6387721518517683,0.5557759749257973,9.585631579285204,0.6709481652336897,0.8551640703751184,0.06261730082338915
2025-11-24T18:00:03.826923,0.8334229716306284,0.9754619825714834,9.902583888763255,0.7428688405434346,0.7335130944368544,0.014299293425998522
2025-11-24T18:00:03.836538,0.7629561691216021,0.9751232988009801,9.672446921273284,0.7605948624209911,0.8877409824972887,0.02038666044904778
2025-11-24T18:00:03.846154,0.827035430951204,1.3472479958964183,9.695235312266258,0.7925907676550394,0.7672545280713906,0.062197136459478164
2025-11-24T18:00:03.855769,1.187736307867918,1.028507780501142,10.093689254776661,0.9518946776091792,0.7276331820808437,-0.04232603595445729
2025-11-24T18:00:03.865385,1.470135807397878,1.1815585194670577,9.982985663005717,0.9787668700225888,0.840578290364372,0.08830021866810801
2025-11-24T18:00:03.875000,1.2022079644592782,1.2987054511284781,9.549738760266182,0.7904072727219114,0.9871838406600327,-0.048914369388886075
2025-11-24T18:00:03.884615,1.1929642071947475,1.0724015869625683,9.940509555690898,0.9684349667655865,0.9666270635503857,0.03314787683704051
2025-11-24T18:00:03.894231,1.2854110289639054,1.2657364120816867,9.78993346267513,1.099303667214206,1.0092746697498152,-0.12280870849431318
2025-11-24T18:00:03.903846,1.3365586677955241,1.522980862930678,9.78384662318866,0.9321561932121654,0.8869392663274327,0.0960440007484586
2025-11-24T18:00:03.913462,1.4791570022018923,1.459524903561987,9.662930363615878,0.9909110713153042,0.9839699945717846,-0.02299933510788037
2025-11-24T18:00:03.923077,1.2654292252925068,1.3759974664652392,9.843788201383035,1.0255678234555523,1.055213360738486,0.05741870937839001
2025-11-24T18:00:03.932692,1.5985469521658524,1.6055767632211262,9.702266980541582,1.0512768398376386,0.8954343650032679,0.08298652341956299
2025-11-24T18:00:03.942308,1.6529172426696113,1.6009332661710014,9.48188265708002,0.9964189133406628,1.180851619152737,0.06100158936223865
2025-11-24T18:00:03.951923,1.7473564776892017,1.694617387689152,9.762853472766635,1.0004180177936774,0.9942744509739931,0.012147105511101399
2025-11-24T18:00:03.961538,1.593791138346568,1.8670559641631954,9.758792789901696,0.9451171672008357,1.0659271600975468,-0.044759164908267465
2025-11-24T18:00:03.971154,2.1920661328690016,1.841606280552328,9.738823924644315,1.226763712032057,1.0722094871670171,0.06987968866230128
2025-11-24T18:00:03.980769,1.618606269933418,1.9596536347970446,10.099653531157307,1.059738900477418,1.0532282011457657,0.20753196942586466
2025-11-24T18:00:03.990385,2.1529941989058545,2.066469778123097,9.704688796433757,0.9001871795337301,0.8948994200459539,0.017132286783595
2025-11-24T18:00:04,1.9856651386785171,1.8179547830811607,9.751902634300844,1.1231039244146217,1.0280116744110073,0.14021405378485605
2025-11-24T18:00:04.009615,1.597032215422154,2.3093605000026396,9.61482299858897,1.0200912757524563,1.0301920863015352,0.06278528052097303
2025-11-24T18:00:04.019231,2.174798901842678,2.186333764939358,10.055959077283863,1.0154692471203541,1.0223255430758047,0.14403690441577408
2025-11-24T18:00:04.028846,2.081231613697696,2.0152175098799425,9.69655540261301,1.0311264959672282,1.0171880749222633,0.03327909417199595
2025-11-24T18:00:04.038462,1.857383722654214,1.9752662813897028,9.763875046706795,0.7749985745963331,0.9108819838071995,0.030502361795972696
2025-11-24T18:00:04.048077,1.8353304559223385,2.117154484183077,9.917746398997386,0.9889153012950752,0.9982958968763621,-0.09867895572563061
2025-11-24T18:00:04.057692,2.2648371589883105,2.1209328327474384,9.94444940812717,0.8423385179707674,0.7760845706959933,-0.008057235760602719
2025-11-24T18:00:04.067308,2.1437599654375115,2.0830687638263328,9.763708518729976,0.908326691515634,1.0156617873952651,0.0785289653572051
2025-11-24T18:00:04.076923,1.9522680666369916,1.9200096492114398,9.86279701958933,0.8080200479951896,0.720457223389334,-0.041563994922146394
2025-11-24T18:00:04.086538,2.162624942375248,2.1582381291491854,9.670766903813927,0.7631182900524771,0.919861689881219,0.06673771296104045
2025-11-24T18:00:04.096154,2.0105786762022055,1.8136221000640271,9.86805128304614,0.8592225398607415,0.8923610813896685,-0.027912280479774617
2025-11-24T18:00:04.105769,2.3679356743499214,1.9794802699901428,10.095299218261497,0.6999910408628328,0.7462526200148822,0.12762613827890282
2025-11-24T18:00:04.115385,2.1507332965849573,2.0879074144785754,9.377133126399709,0.7090592117082352,0.7432618892258006,0.12874612721511328
2025-11-24T18:00:04.125000,2.20320627877853,2.186797492894763,9.828900346892105,0.7243682398447179,0.6217528688541129,0.12521631792071722
2025-11-24T18:00:04.134615,1.7981390648308453,1.9501406745118144,9.76096465170581,0.42863630880139514,0.6554658941915573,-0.04827401688822283
2025-11-24T18:00:04.144231,1.9576922674463044,1.7106401023408284,9.72927360189057,0.6811466856390298,0.6151658796863899,-0.02770882945274816
2025-11-24T18:00:04.153846,1.9847471438493622,1.794758439546939,9.598172497716613,0.6313413441933551,0.7523996356795101,0.0642814074931926
2025-11-24T18:00:04.163462,1.7459609065658632,1.9356049796014452,9.227811894722784,0.5060840685712656,0.5144516594244083,0.1854607767912266
2025-11-24T18:00:04.173077,1.8856676683679903,1.8519484362692245,9.898086324537196,0.483490126935599,0.4646057872812137,0.05259290658689676
2025-11-24T18:00:04.182692,1.757066257399867,1.7863324132078968,9.781726782091386,0.44853406931403017,0.3644732135144912,0.07195915806875887
2025-11-24T18:00:04.192308,1.8496803853577741,1.7593506143771511,9.517008775273139,0.37805329126349396,0.3047867133080683,0.046706725088208945
2025-11-24T18:00:04.201923,1.843547266363696,1.6025531834809505,10.013900510755455,0.2817692150247588,0.2606043677803196,-0.03823898992026231
2025-11-24T18:00:04.211538,1.5392919648790129,1.3149551132270227,9.44916513969215,0.2393119831187846,0.34537608681958726,0.08379816096557538
2025-11-24T18:00:04.221154,1.2562790820784002,1.396575954981479,10.008709298913848,0.0490162187090106,0.142253772702013,0.18431637693966077
2025-11-24T18:00:04.230769,1.4615078133206687,1.6918405371151555,9.939850712469443,0.2777464769194796,0.229165572756309,0.06838895317992881
2025-11-24T18:00:04.240385,1.3133305707046166,1.29059352054972,9.741299898955633,0.23805897978136925,0.22969844214847981,0.10231277976989198
2025-11-24T18:00:04.250000,1.319080341111908,1.2407147170108852,9.776298942281489,0.2725862383706942,0.14119738553758682,-0.03711670366457301
2025-11-24T18:00:04.259615,1.0279222955242482,1.1536203057129328,9.901182589226519,0.1535440745248739,0.26536708074062476,0.0057507245607781934
2025-11-24T18:00:04.269231,1.0517794696099705,1.1994124736838263,9.776183162141107,-0.05521987458444179,0.052768037744609766,0.09665589379083983
2025-11-24T18:00:04.278846,0.8849229604607538,0.8627206276501396,9.52826755537617,-0.08342475088396778,0.028100212991224647,0.09698919415779116
2025-11-24T18:00:04.288462,1.079899144407952,1.0397499272001685,9.812642244264563,-0.13837601859853765,-0.10613288922299025,-0.11577757316520006
2025-11-24T18:00:04.298077,1.1120796838590827,0.9223441563330456,9.607516151742884,-0.022349440175714358,-0.011105153395964532,0.07524857299797896
2025-11-24T18:00:04.307692,0.6174909710192421,0.5960898758302327,9.997382150640878,-0.117267584482637,-0.26056127068098645,0.09313165202037053
2025-11-24T18:00:04.317308,0.7937561186492545,0.5742951146971451,9.972000133639096,-0.27041325444660125,-0.20609064627883658,-0.08243545226194601
2025-11-24T18:00:04.326923,0.7692687006476188,0.6461645169784395,9.905404292255577,-0.3704094173122108,-0.3395873492999567,-0.061507601183129215
2025-11-24T18:00:04.336538,0.5849150421400282,0.3750947416848488,9.867177654675638,-0.1951074132428959,-0.3356849508858307,0.0024467187197398862
2025-11-24T18:00:04.346154,0.5143322643888872,0.5830127786872255,9.741288802470377,-0.3380107037045052,-0.4226542747186325,0.04437106591220074
2025-11-24T18:00:04.355769,0.5900015817535968,0.15576780576033458,9.939213268548388,-0.3566697020469187,-0.4388897889973289,-0.03782589018265092
2025-11-24T18:00:04.365385,0.221004047934199,0.045166244308300685,9.557430546518862,-0.4329994599845815,-0.42148661458721326,-0.037164253377234197
2025-11-24T18:00:04.375000,-0.05574737163105237,0.22076901555318465,9.748115992536922,-0.4033180603995266,-0.6164856604337313,-0.029629857407946634
2025-11-24T18:00:04.384615,-0.1989614764381642,-0.41758585540377924,9.851866089812615,-0.49948054111445045,-0.47305338915130296,-0.01824392459592576
2025-11-24T18:00:04.394231,-0.28205212731773893,-0.29675750590642935,9.724807873362863,-0.5722194214546693,-0.4768828660369414,0.06403736989548563
2025-11-24T18:00:04.403846,-0.21371509431078195,0.07304303713724022,10.03053567871862,-0.6234528063135362,-0.6776664838135172,-0.08104408120914978
2025-11-24T18:00:04.413462,-0.3814474822546735,-0.41843894590377484,9.892106509899639,-0.5157561387151186,-0.598706019826258,-0.013567635127160773
2025-11-24T18:00:04.423077,-0.5983106646161355,-0.1851558604947982,9.860952888533493,-0.7036139858559105,-0.7742305572261562,-0.2460593711274803
2025-11-24T18:00:04.432692,-0.6963637440352437,-0.31156059560794225,10.072630926988754,-0.5238808484409263,-0.6708962399965467,-0.05770088302870602
2025-11-24T18:00:04.442308,-0.7974239613723595,-0.7330783071506963,9.779663107510709,-0.7107836195922222,-0.8338080828799146,0.027868767295794093
2025-11-24T18:00:04.451923,-0.6841932034325614,-0.5899822981234008,9.707272510188332,-0.8862457306366163,-0.704455253435029,0.11089877584995737
2025-11-24T18:00:04.461538,-0.6894563536896902,-0.44658358967026246,9.58770748897606,-0.7947098088741708,-0.8252536869242387,0.09035776980163891
2025-11-24T18:00:04.471154,-0.9321366411316431,-0.8803500671657857,9.867212727989623,-0.8204259774168106,-0.9226569776932652,0.05089934126775243
2025-11-24T18:00:04.480769,-0.7937994404848352,-0.9840536285792877,9.821537939917762,-0.8718347071838829,-0.8687663014347671,0.016811498796948127
2025-11-24T18:00:04.490385,-0.8436370602664293,-1.0206883221719008,9.882918936417765,-0.9042845321561727,-0.9370010367266587,0.08007823778377662
2025-11-24T18:00:04.500000,-0.9243880074385098,-1.1799078603248303,10.103048361461543,-0.7798930401846458,-0.955316082282895,0.03249188573099469
2025-11-24T18:00:04.509615,-0.9553064279289677,-1.2522736431457986,9.744818054082902,-0.8666682466913253,-0.885071769335895,-0.021151225356349865
2025-11-24T18:00:04.519231,-1.3947545526758942,-1.2418479161797296,10.039895017568664,-0.9377371055670888,-0.8973906645897989,0.02344138941552641
2025-11-24T18:00:04.528846,-1.166901762795892,-1.3646344980851137,9.712563212188464,-0.8417058334103076,-0.993948546559438,0.06976478571471988
2025-11-24T18:00:04.538462,-1.124791599151275,-1.175240594592662,9.837157738845717,-1.0139492451728267,-0.9276796091807888,0.09649009585071368
2025-11-24T18:00:04.548077,-1.5847424108437766,-1.5163446343400278,9.820300262572383,-0.92696178246862,-1.0035927163952671,0.08632722444776968
2025-11-24T18:00:04.557692,-1.5282009960139145,-1.515616025089047,9.68214125987814,-0.9280910252919196,-1.093979457906861,0.09267902848159919
2025-11-24T18:00:04.567308,-1.4159496022720215,-1.3259301708425142,9.796566493311081,-0.9592571587208084,-1.2023254276087276,-0.01653454470447256
2025-11-24T18:00:04.576923,-1.6274678956576492,-1.88578381416462,9.587929997737875,-1.1988292472661164,-0.9729921490374548,0.05553626874849324
2025-11-24T18:00:04.586538,-1.5596700515932274,-1.9341672259933136,9.766592479329228,-1.0165388490884886,-0.9975681073550844,0.10331628986141597
2025-11-24T18:00:04.596154,-1.712988042148761,-1.5305101941786923,9.707486858766485,-1.002180160157586,-0.9026855946736427,0.04930836803814423
2025-11-24T18:00:04.605769,-2.006815589850376,-1.6312360362128768,9.782436177193953,-0.9674898085182984,-1.0378951602190574,-0.19203111407529974
2025-11-24T18:00:04.615385,-1.6769125558732465,-1.80892056935395,9.688674991528886,-0.9109724814247592,-1.0667887073660398,-0.041642672390887564
2025-11-24T18:00:04.625000,-1.753541546161067,-1.9620348624956991,9.967400297239605,-0.9281465613055321,-0.8737920138655839,0.0329977258222269
2025-11-24T18:00:04.634615,-1.8902988966200487,-1.7841436671851478,9.919672689175995,-0.9314087916492637,-1.1362285614064416,0.06151094361228909
2025-11-24T18:00:04.644231,-2.0755882327627733,-1.4677355750230068,9.681228533985408,-0.8512003644452452,-0.9136434584967473,0.10148975343844012
2025-11-24T18:00:04.653846,-2.034604288954419,-1.6349827939331865,9.859849670259193,-0.921775960280239,-0.9408778838456231,0.06761945407122727
2025-11-24T18:00:04.663462,-1.8132433819325,-1.8229019040546703,9.760029530253716,-0.9029935046157394,-0.9850486217359092,-0.11963564940552839
2025-11-24T18:00:04.673077,-1.8284209589240477,-1.7485665674173967,9.679612689836215,-0.9213683239993047,-0.9988644827545028,0.03868826374610353
2025-11-24T18:00:04.682692,-2.134924467129666,-1.874719599827811,9.612375448036367,-0.8270903487810954,-0.8002305261544759,-0.03839123663459784
2025-11-24T18:00:04.692308,-1.9647077540905653,-2.0554440991659,9.783100350831328,-0.8875873876734108,-0.8157494355196204,-0.011405291897052066
2025-11-24T18:00:04.701923,-1.968217544012461,-2.174718382885394,9.892160288141385,-0.7527035658712818,-0.8669577510723633,0.05094585843483847
2025-11-24T18:00:04.711538,-1.8515386090612744,-1.9091889634571761,10.183238324727249,-0.7697974123307152,-0.6200211312443012,-0.009802978091235186
2025-11-24T18:00:04.721154,-1.7465856025475748,-1.978305607180714,9.684920908013009,-0.8775416679062941,-0.7459521563896764,0.12217929634108038
2025-11-24T18:00:04.730769,-1.5783899054559616,-1.6532822702831376,10.001181714551528,-0.9026792696192911,-0.6502105704708195,0.013202653623308495
2025-11-24T18:00:04.740385,-1.766202850532879,-1.919815923972879,9.863350046551501,-0.6689213986893519,-0.7283405990852037,-0.02835425573744516
2025-11-24T18:00:04.750000,-1.7612009049547865,-1.9333628222572479,9.909040402304944,-0.5509974605932579,-0.7151060558810525,-0.047863425936175555
2025-11-24T18:00:04.759615,-1.7303540087462415,-1.8033708758138176,9.500904299157586,-0.5154586455286817,-0.6463928504962645,0.0868817286110981
2025-11-24T18:00:04.769231,-1.508063327127924,-1.826238889804847,9.79457122834057,-0.6153359596936432,-0.571453672748935,0.03340684731930983
2025-11-24T18:00:04.778846,-1.7951767995247145,-1.7383892123573599,10.196398073931409,-0.5936273929803747,-0.5686835352401558,-0.049630185570305865
2025-11-24T18:00:04.788462,-1.872268262853743,-1.676851596592125,9.890416793042371,-0.5424578521714822,-0.5557988488767921,0.13753332229406579
2025-11-24T18:00:04.798077,-1.7905072399941095,-1.6353307749913335,10.019382773314389,-0.690742266248809,-0.4097865634945519,-0.02633941831056984
2025-11-24T18:00:04.807692,-1.4861654004373943,-1.6359308585554178,9.756993575008472,-0.43377113090725217,-0.5217592585254117,0.035251174212716604
2025-11-24T18:00:04.817308,-1.5634370282255372,-1.7222920680667908,9.844182367788685,-0.42230740355700813,-0.4157848773937567,-0.09439249437018819
2025-11-24T18:00:04.826923,-1.4800392565493308,-1.2347890908020698,9.628056535644875,-0.5513330047863957,-0.2013466308684983,-0.0783144408378507
2025-11-24T18:00:04.836538,-1.1934566820662962,-1.308579754338476,9.781507151767226,-0.34738571892225595,-0.33981669171236034,-0.006398769829533576
2025-11-24T18:00:04.846154,-1.3675866654786994,-1.2339583407101502,9.775634300197861,-0.3248610608237415,-0.3070535214743117,0.015892963953840256
2025-11-24T18:00:04.855769,-1.2464328835632377,-1.1227725681315048,9.740768863170846,-0.12451846591913232,-0.2277312574176219,0.15227245762335623
2025-11-24T18:00:04.865385,-1.0796933605185306,-1.2192674555713874,9.629073776226006,-0.1756348024899632,-0.1334792435699794,-0.024356239898032452
2025-11-24T18:00:04.875000,-0.9995727798249429,-0.703731853884302,9.80393739430744,0.007480135020651271,-0.23496768888954722,-0.07912699109700519
2025-11-24T18:00:04.884615,-0.9375693928491884,-0.9576196743027111,9.664846090531418,-0.11199265123949938,0.12127666230812224,0.06036807578297494
2025-11-24T18:00:04.894231,-0.694373905182829,-0.8883427524060911,9.665060347924756,-0.0633665372226668,0.10334120420324855,0.01787651057787703
2025-11-24T18:00:04.903846,-1.0041497342635184,-0.6037361600264468,9.929414975693899,0.11171975044216123,0.05730286553038792,0.08131840187250093
2025-11-24T18:00:04.913462,-0.7403402364833465,-0.8418609685071892,9.690493878615984,0.1630217689937458,0.10779814647948302,-0.09467377999565219
2025-11-24T18:00:04.923077,-0.5940595032754113,-0.7439927316979287,9.57462007825705,0.09369890140417746,0.16002363855925686,0.03183587647971708
2025-11-24T18:00:04.932692,-0.5723884704203852,-0.687675805316174,9.938414359149416,0.16311338261015512,0.16637482709284915,0.10218611869759354
2025-11-24T18:00:04.942308,-0.5217330531275214,-0.4736410622639092,9.762780765053057,0.24992763051730432,0.3025005298533485,0.012830897570093699
2025-11-24T18:00:04.951923,-0.3954074108233591,-0.46792251689035197,9.914802724494542,0.18492475474831963,0.2723429951959795,-0.07005662069847438
2025-11-24T18:00:04.961538,-0.11815068098341483,-0.28879213699195116,9.685868228277789,0.34341627008379827,0.4265873450917823,0.015516079150301437
2025-11-24T18:00:04.971154,-0.5634509919358643,-0.3830879552470759,9.803991430992019,0.35923281578222876,0.4393801217891072,0.08264821363801747
2025-11-24T18:00:04.980769,0.0003420010426726655,-0.1355903859054423,10.031838482263614,0.4671410928998556,0.5571669323336994,-0.023805609038367547
2025-11-24T18:00:04.990385,0.03535604104691326,-0.08468819944772936,9.757562549089968,0.444416777316297,0.3655875259114871,0.005746170491275309
2025-11-24T18:00:05,0.4028486817476365,0.05550736085935021,9.911864313387758,0.6449703314784045,0.575482066975769,0.06869777993145325
2025-11-24T18:00:05.009615,0.4276814486948809,0.09927098739998198,9.90842744725093,0.6030426451993381,0.615800152158093,0.10073877926753183
2025-11-24T18:00:05.019231,0.3300654683846944,0.14670407573039726,9.89245704437492,0.6046973327515724,0.5564525197735529,-0.010835546547586904
2025-11-24T18:00:05.028846,0.22891088014540031,0.7192424730950329,10.061791276154803,0.42784806708908607,0.657945351258643,-0.10060167012896869
2025-11-24T18:00:05.038462,0.5694617562473181,0.2838481541619254,9.494991451438748,0.7547085605875652,0.6852714864116282,-0.05772132269452522
2025-11-24T18:00:05.048077,0.4683323596388409,0.660206144233868,9.888539662399339,0.6763290170158469,0.7327882093810598,-0.036445595686113094
2025-11-24T18:00:05.057692,0.6743795127572514,0.8569745195849701,10.101559962439527,0.7489258068530055,0.7421246042359612,0.08276174676772229
2025-11-24T18:00:05.067308,0.817934325254353,0.5888792963875739,9.683691193338147,0.6729457766284327,0.8132654918507694,0.08208781928034899
2025-11-24T18:00:05.076923,0.8217263721594167,0.925678018188355,9.908653704115588,0.665979486880917,0.7462651994930128,0.0033841752693726107
2025-11-24T18:00:05.086538,0.882300162976035,0.5736849477931336,9.887456834490683,0.8131203548463554,0.7400461876566535,-0.04734449264838855
2025-11-24T18:00:05.096154,1.1866214623143962,1.0458289214327912,9.936874380864518,0.8162628319581462,0.789385330074698,0.0220095975117757
2025-11-24T18:00:05.105769,1.2264144635336025,1.052791960183295,9.753190968231104,0.7967449686141241,0.8257000238788978,0.13855691280908528
2025-11-24T18:00:05.115385,1.122739059260643,1.17447535549044,10.09091107122134,0.9144058072153467,0.9843009701167947,-0.07423955244133677
2025-11-24T18:00:05.125000,1.1774478367477303,1.4182476096565813,10.042175416492796,1.0431594204724985,0.9349912984824679,-0.0974003425365857
2025-11-24T18:00:05.134615,1.2817324169471767,1.1955674672879348,9.82071649110918,0.9100386263125003,0.8592330654862915,0.013155762913372903
2025-11-24T18:00:05.144231,1.2655124038287222,1.475743518360619,9.790439852714671,1.0726395499737653,1.0496024634767374,0.04037872120218318
2025-11-24T18:00:05.153846,1.1768279147441998,1.6745523609367363,9.557318304378958,0.9829799636804479,1.0855729387372586,-0.10960889367497341
2025-11-24T18:00:05.163462,1.5778329578580161,1.6268425679598368,9.915876552391275,0.9729610904826744,0.9722936306474858,-0.00223757262498412
2025-11-24T18:00:05.173077,1.9938357462567173,1.8345326599081324,9.734329003314922,0.8597001203951055,0.9935163572591347,0.15719350684185066
2025-11-24T18:00:05.182692,1.6726053876760332,1.565150182466886,9.522645325425984,1.0082558643804629,0.8896033496870307,-0.012024727001958838
2025-11-24T18:00:05.192308,1.5518065697039212,1.8236083516844703,9.7581960094455,1.1011981917219098,0.9550224250281931,0.01963331385036698
2025-11-24T18:00:05.201923,1.8089351208647306,1.7691618872004728,9.672587713429087,1.159773708444674,1.075429682637605,0.056710731202182216
2025-11-24T18:00:05.211538,1.9458417124036758,1.8576554814878288,9.593422942575195,0.9846288108033467,1.124813122944459,-0.04737300108352309
2025-11-24T18:00:05.221154,1.7862161950388578,1.814097488163119,9.777636055817045,1.0704087399101163,0.9696820384789068,0.11104271922297101
2025-11-24T18:00:05.230769,1.8248041503950299,1.855801153191703,9.588216293386647,0.9814432616962443,1.306970454475822,0.012865605597393304
2025-11-24T18:00:05.240385,1.9147931879583207,1.868011614060556,9.91014555393706,0.9841478105355493,1.1560801015587978,-0.048937906180081106
2025-11-24T18:00:05.250000,2.014075867827461,2.1679633905893,9.816037190476518,0.9579160506349668,1.0893975319410776,-0.013467854449721973
2025-11-24T18:00:05.259615,2.178012071981068,2.2756540965581697,9.796411774900431,0.9295496514889766,0.8545624043077098,-0.0009046893034373865
2025-11-24T18:00:05.269231,2.2122834570211856,2.0489142144645003,9.727943940389885,0.9437198570389402,0.9830803080841597,-0.16263035254367642
2025-11-24T18:00:05.278846,1.9636713130025323,2.1407177613208184,9.793291129582592,1.064467048417055,0.9839629130130229,0.17350752779649067
2025-11-24T18:00:05.288462,1.8788126033214994,1.8244744882645747,9.69167003914507,0.9958953757085395,0.961303259680759,-0.016853321455297023
2025-11-24T18:00:05.298077,2.1153084900600603,2.32827973288596,9.73059752248411,0.9513158039147024,0.9784122127787998,0.011061981999899542
2025-11-24T18:00:05.307692,2.0218077913918546,1.9123695783913004,9.593280683223453,0.7681824124481162,0.8789029369272352,-0.002779574677761937
2025-11-24T18:00:05.317308,1.834661599689065,2.187202322896268,9.882809679661737,0.8654648021471203,1.0565257656466445,-0.05910974307679161
2025-11-24T18:00:05.326923,2.0504830612021494,1.70959465331103,10.000180413573576,0.8633194055423404,0.9956556973751254,0.08216310112739435
2025-11-24T18:00:05.336538,2.1493687180763796,2.0966504669574424,9.604729116635914,0.7070903838821231,0.7930521423905288,-0.027050754393069736
2025-11-24T18:00:05.346154,1.9369724965870163,2.2333610276587006,9.611370101506797,0.7142982654657848,0.7611308206375366,-0.0033871101772906427
2025-11-24T18:00:05.355769,2.2817771752212237,2.1551139427052064,9.898680822192802,0.7896722455694615,0.6514603217937002,0.1180554561610978
2025-11-24T18:00:05.365385,1.9083087405309214,2.126133744529289,9.777726884084014,0.5067342945727177,0.8383403977697155,0.11547446273484165
2025-11-24T18:00:05.375000,2.1487717918914577,2.162048182221031,9.758999055489218,0.6254425464065456,0.8857945976545201,-0.021250305866361747
2025-11-24T18:00:05.384615,2.12821322842073,2.131524754591972,9.722427295311967,0.8630747178632979,0.662361839085061,-0.04041917775706698
2025-11-24T18:00:05.394231,1.7711674120279497,2.131797208579026,9.871691934593407,0.6679347852615172,0.6793565354994596,0.046493449752835245
2025-11-24T18:00:05.403846,1.5396726895989419,2.104533827182493,9.863848743033774,0.5972348727119857,0.6082239654888162,-0.0058918387263650895
2025-11-24T18:00:05.413462,1.4379953637169005,2.043578029692377,9.803529802455698,0.5157111995448997,0.5876830226694719,0.016929904440942348
2025-11-24T18:00:05.423077,1.9469046751722228,1.7528182063369275,9.635843002157259,0.4303988644040182,0.3815431120159021,-0.037755615279607704
2025-11-24T18:00:05.432692,1.6904022951993856,1.7204102401477948,9.657740725046791,0.41945677350520927,0.3959579591210414,0.011097660303326796
2025-11-24T18:00:05.442308,1.5503521298167933,1.6436171381886704,9.783938332448662,0.29912963607912757,0.4484008735594339,0.03554944661488283
2025-11-24T18:00:05.451923,1.4412578806195535,1.3623204298747495,9.575177111816702,0.18296394480800457,0.4668545494131231,-0.08631440730290556
2025-11-24T18:00:05.461538,1.2508608409716468,1.2550524647781023,9.686368554409217,0.48226170276792724,0.3823261580214672,0.09229257108069483
2025-11-24T18:00:05.471154,1.4955171423926146,1.1373460640301696,9.658516470572781,0.18576892405994916,0.19878436881754225,0.10266998333464748
2025-11-24T18:00:05.480769,1.6009290548749857,1.6749183846925524,9.768986513214742,0.16712097112510454,0.16208562846657612,0.013792509506032957
2025-11-24T18:00:05.490385,1.437321143898925,1.40299551812142,9.825884791988104,0.09731627872294847,0.22759184828478862,0.07519715936289342
2025-11-24T18:00:05.500000,1.3347368366638444,1.3339185750314397,9.780739548362122,0.11615501535130232,0.19594896260265557,0.018311214384407436
2025-11-24T18:00:05.509615,1.2072616723825256,1.140572273039085,9.845485605473693,0.10192564784552528,-0.0723573463984376,0.004986027795404236
2025-11-24T18:00:05.519231,0.9401619735209809,1.163137600037922,9.712178856711317,0.1052802377953939,-0.02555761962444468,0.1002743615426499
2025-11-24T18:00:05.528846,0.8906999555535009,1.0519035472060634,9.879420320013923,0.107401790199624,0.12178620339147427,0.021619496979434626
2025-11-24T18:00:05.538462,0.9217999861228908,0.7661666111203654,9.87321671498521,-0.16445353494040627,-0.1387659383320815,-0.0023830110673680495
2025-11-24T18:00:05.548077,0.700362931223214,0.8683975444294328,10.137335936544854,-0.08422162752916307,-0.1710214847776769,0.04041728478875302
2025-11-24T18:00:05.557692,0.8754744420454649,0.8338727671667852,9.929663702311847,-0.0798061575891239,-0.2194508104663225,-0.009847235864331689
2025-11-24T18:00:05.567308,0.40448959089710956,0.8407806880826012,9.833604892029609,-0.14378950637833982,-0.206751414723781,-0.06049234418007725
2025-11-24T18:00:05.576923,0.7087320826886273,0.6506640616412163,9.585780816514719,-0.17317886551269718,-0.33575928335614685,0.11158023281163389
2025-11-24T18:00:05.586538,0.5228356352557545,0.6112327934942214,9.814737224961142,-0.2652252563282679,-0.3867633545604753,0.01696631169504466
2025-11-24T18:00:05.596154,0.5687944732848109,0.4747219692661925,9.647305838659634,-0.29169152488595174,-0.3738793551167788,-0.06293252372976506
2025-11-24T18:00:05.605769,0.29085846468026116,0.4132280433346447,9.69227462379458,-0.3471952872972113,-0.3484632812770714,0.050125795169789815
2025-11-24T18:00:05.615385,0.33197316454608694,0.15401502918434512,9.587714675648574,-0.4398764722579052,-0.49619938091647847,0.1365285579877014
2025-11-24T18:00:05.625000,0.2650858598611214,-0.11658981184517068,9.716996313196633,-0.5305189156572235,-0.5147450959474767,-0.07220393603711672
2025-11-24T18:00:05.634615,-0.19499657363780293,0.08218635103406229,9.68475117760746,-0.5702405272573725,-0.5944454688933852,0.06794519335883241
2025-11-24T18:00:05.644231,-0.1714822793603631,-0.02169795358717927,9.678561554685423,-0.4743668624545773,-0.6562512202917625,-0.11130277232182505
2025-11-24T18:00:05.653846,-0.23878336991634544,-0.3048010861322479,9.79018895697507,-0.769467147019682,-0.570881101315739,0.10814067195177149
2025-11-24T18:00:05.663462,-0.08450675942305566,-0.4270445163335639,9.86037975826092,-0.675524680404735,-0.6518092830516649,-0.02245467962244674
2025-11-24T18:00:05.673077,-0.29898629563443746,-0.4500007203466359,9.871714180973509,-0.5950210227823041,-0.6223444966837802,-0.05909392336411551
2025-11-24T18:00:05.682692,-0.5312702497620239,-0.21462777216728668,9.725395037701626,-0.7011130401179962,-0.6373703710252917,-0.06911578858073555
2025-11-24T18:00:05.692308,-0.43358056482678403,-0.38182579110635806,10.223634635511448,-0.7843758173141266,-0.7716726813511975,0.057223461271289994
2025-11-24T18:00:05.701923,-0.8763574911715677,-0.4442559519986114,9.850070134309085,-0.8659955450394335,-0.751876565574779,-0.04170392485860332
2025-11-24T18:00:05.711538,-0.59270629104756,-0.4196073871594092,9.936867498125965,-0.7098456550458395,-0.7842686628556569,0.0969125881569667
2025-11-24T18:00:05.721154,-0.7623519574079421,-0.8306913392995249,9.921615227006805,-0.8630048028980468,-0.7740351530411402,0.0007544008516765059
2025-11-24T18:00:05.730769,-0.7491141961223288,-0.9101641616356249,10.015396814275425,-0.8124507080165708,-0.8840934315154466,0.15566000826285434
2025-11-24T18:00:05.740385,-1.177406373722567,-1.0674399935507746,9.651123854566405,-0.7765653249880661,-0.9378627937289874,0.05572847975229939
2025-11-24T18:00:05.750000,-1.067568316589572,-1.2378984303244904,9.87105923407928,-0.8960297490918442,-0.811312290531112,0.06082120705719811
2025-11-24T18:00:05.759615,-1.194520723405505,-1.1514252011355104,9.969343970601718,-0.844641638432099,-0.9857185293114108,0.02083984769073672
2025-11-24T18:00:05.769231,-1.0304861196940496,-1.252705357316208,9.854870906316947,-1.0254780362321014,-0.9034605556758544,-0.011353181146964948
2025-11-24T18:00:05.778846,-1.5326747138665717,-1.335321064575537,9.955943091220485,-0.9948823776196098,-0.7773770459099144,0.01767356868291607
2025-11-24T18:00:05.788462,-1.4341193324858341,-1.2639893134042044,9.858989512673798,-0.9527679901582218,-1.035647555488659,-0.12075396763582698
2025-11-24T18:00:05.798077,-1.427074478022556,-1.2739482124623949,9.748892800583002,-0.8322353188547842,-0.8908607440063374,0.13202286425326692
2025-11-24T18:00:05.807692,-1.5627318053803991,-1.5709211161281509,10.159146429922048,-0.8742753537298239,-0.9985570371519966,0.03533900054276898
2025-11-24T18:00:05.817308,-1.261212968066024,-1.6589332895391466,9.80390000002074,-0.9851217850602579,-1.0005471639132864,0.08765182783915469
2025-11-24T18:00:05.826923,-1.6121249941611602,-1.9098566691846512,9.99931609086722,-0.8661870746320828,-1.124664590246714,0.08978366197289986
2025-11-24T18:00:05.836538,-1.1672566773954376,-1.6055462487221084,9.799510253623307,-1.0646287744768506,-0.9433119178079077,0.017492309078046324
2025-11-24T18:00:05.846154,-1.8630820938642607,-1.65631110521265,9.980953042561236,-0.84061411983378,-1.0185964341945595,0.019305502339183645
2025-11-24T18:00:05.855769,-1.7106711054217099,-1.5252626439767583,10.095586528838847,-0.9656553319551676,-0.9472154398123457,0.1150792578565818
2025-11-24T18:00:05.865385,-1.6510469830777457,-1.6777249917127226,9.772461967831585,-0.9272902937308211,-0.9929349017654083,-0.14617552960055313
2025-11-24T18:00:05.875000,-1.7899730434642704,-1.878717112209455,9.76718594705162,-1.0085668188650474,-1.0062719321161313,0.03773948351591477
2025-11-24T18:00:05.884615,-1.790084648124269,-1.8731769290136264,9.815822284107982,-0.9263637431423494,-0.8988930816416204,0.192700371377814
2025-11-24T18:00:05.894231,-1.9834000366784723,-1.8991630527310734,9.949918937702096,-0.9756150635834798,-0.83475199650532,0.13793873194944026
2025-11-24T18:00:05.903846,-1.6751144987338986,-2.0693004231629537,9.874402092664115,-0.9123753616891267,-0.9265706418556028,0.07755540302425014
2025-11-24T18:00:05.913462,-1.8621400355818727,-1.7810433769942329,9.732688281925114,-0.95463458280969,-0.9864248137287208,-0.11106133505538883
2025-11-24T18:00:05.923077,-1.645411551881008,-1.9152112346050183,9.639537864530514,-0.7247902640751116,-0.8182449670320864,-0.008170284019614785
2025-11-24T18:00:05.932692,-1.880693034475759,-1.8377316528126488,9.798755344709281,-0.7527522548603406,-0.8564568420816665,0.0041133637750123235
2025-11-24T18:00:05.942308,-1.8966404159997785,-1.835551497282137,9.96589467146116,-0.7537126312848792,-0.940368973600765,0.12059615797183154
2025-11-24T18:00:05.951923,-2.139114433033956,-2.106445291949542,9.964340576252376,-0.8246392690834823,-0.8383470333247274,-0.010522785394693823
2025-11-24T18:00:05.961538,-1.9783179881741293,-1.8745953764849832,9.603438212974233,-0.8028371259846362,-0.7488060189987482,0.07392394324878558
2025-11-24T18:00:05.971154,-1.7707736623952857,-1.7654386060284093,9.809821869414991,-0.7685573575845737,-0.836163945530151,0.1288945686494664
2025-11-24T18:00:05.980769,-1.870429716152806,-1.8889677166898733,9.92860890271985,-0.5621474060789272,-0.6635887189685922,-0.03748542710509148
2025-11-24T18:00:05.990385,-1.9893445875361875,-1.7333524087163719,9.945224081679994,-0.6182825233096448,-0.6974694737662441,-0.006441589163052201
2025-11-24T18:00:06,-1.493725309799298,-1.9142265875478552,9.86884868915522,-0.7615810750578565,-0.48642067254322824,-0.059610313312435534
2025-11-24T18:00:06.009615,-1.6305562343711812,-2.01144137484395,9.76380316650122,-0.6581104627236535,-0.5656082575174929,0.14510445540161496
2025-11-24T18:00:06.019231,-1.5268076507782293,-1.584496790355387,9.958873384554845,-0.48540698201910737,-0.626619458689735,0.0963949625400775
2025-11-24T18:00:06.028846,-1.6372868834348289,-1.716774913298276,9.829849050229672,-0.492969512027527,-0.5317643427322314,0.2256055958423998
2025-11-24T18:00:06.038462,-1.3702713599167127,-1.542098319098243,9.747027169009648,-0.5701473103477422,-0.4731109542705592,0.06431034085946935
2025-11-24T18:00:06.048077,-1.6794514749577367,-1.410067554402878,9.775526980734218,-0.398527053968762,-0.49438428469113077,0.030890422759271133
2025-11-24T18:00:06.057692,-1.4491576928573064,-1.4150869166547455,9.59057143157221,-0.23093763476002485,-0.4199999241369952,0.11233814554306311
2025-11-24T18:00:06.067308,-1.506016587646795,-1.6384899335879644,9.866732748531517,-0.45161433883842667,-0.28529033497365286,0.07975023273016689
2025-11-24T18:00:06.076923,-1.6267238929006083,-1.2821625815915807,9.602248799807992,-0.3103857176352648,-0.4101622882644942,0.04789711748831977
2025-11-24T18:00:06.086538,-1.5196777726148243,-1.5168960099129505,9.89411626257851,-0.1303891694362743,-0.2060271799466868,0.02059096257352707
2025-11-24T18:00:06.096154,-1.5085699247034334,-1.489857931695157,9.853540499219124,-0.18375302709950975,-0.33935369921161085,0.031633189972493925
2025-11-24T18:00:06.105769,-1.16276821881982,-1.2184354746993158,10.05731579002609,0.0027301228321698068,-0.10264853362075423,-0.07478436331649062
2025-11-24T18:00:06.115385,-1.273369908491355,-1.2906239133891866,9.886483609112567,-0.0232189349661273,-0.18859835676182202,0.05147788714326594
2025-11-24T18:00:06.125000,-1.203766989211944,-1.3311370743547957,9.698019346277317,-0.09457965561445847,-0.03383159627925043,0.04330952640321066
2025-11-24T18:00:06.134615,-0.9663164751533292,-0.9173868811525171,9.782384436699942,-0.07650408388556412,-0.028248815078957202,0.06341727848230638
2025-11-24T18:00:06.144231,-0.6391428513587376,-0.9579544858084502,10.019227885438905,-0.050309613247821405,0.013283380268249871,0.038611170244170406
2025-11-24T18:00:06.153846,-0.8861412391804431,-0.7167878009903716,10.027753614329095,0.2942956438349154,0.03107963883765675,0.01329853452633339
2025-11-24T18:00:06.163462,-1.018719051729311,-0.7760717472736445,9.786977509660323,0.028104161310202658,0.10958636639145969,-0.04200685399529368
2025-11-24T18:00:06.173077,-0.6377293047453332,-0.5882844901637411,9.75548095833205,0.12055999834347575,0.244150752575502,0.07045159894746322
2025-11-24T18:00:06.182692,-0.5795819882644405,-0.6142819848905395,9.880814860533897,0.255528821748759,0.33213136078192174,0.05103179639845613
2025-11-24T18:00:06.192308,-0.8513173093583633,-0.2716791863111463,10.230112915142005,0.17093122686764445,0.11004667282577438,0.06092755505925204
2025-11-24T18:00:06.201923,-0.36092200599460184,-0.10936238976455925,9.96275515410921,0.3018240076969296,0.33214500604298886,-0.10850769386428592
2025-11-24T18:00:06.211538,-0.16214910294253845,-0.32902317683559035,9.991462467335156,0.2722365757715822,0.369511564772353,0.13175908263130534
2025-11-24T18:00:06.221154,-0.1557236112490084,-0.10205018072236662,9.769220272454715,0.40281317092551694,0.37532067501160904,0.03799452987353362
2025-11-24T18:00:06.230769,0.057436927476650856,-0.23764508511903812,9.611100457552313,0.49059382979460525,0.3702404059441725,0.05527765302918573
2025-11-24T18:00:06.240385,-0.2381907619443448,-0.09363266608600428,9.80825195451786,0.3641593389788057,0.5126378022381627,-0.014701627663043618
2025-11-24T18:00:06.250000,0.1990720062407773,0.18344345713017518,9.897766906796225,0.527433194461832,0.48607074042934606,-0.018873340333448795
2025-11-24T18:00:06.259615,0.06676337538514387,0.13635894609404045,9.705872826521666,0.5817888801105174,0.7369475319013287,-0.1838881595250897
2025-11-24T18:00:06.269231,0.210981982832943,0.6035826029226257,10.08000166088854,0.6428665794741908,0.44181594181554484,-0.02370866111365479
2025-11-24T18:00:06.278846,0.20504657200669044,0.379205282828387,9.663341059993684,0.7917973101967329,0.5639366666340248,-0.03780398566075313
2025-11-24T18:00:06.288462,0.6467882644518421,0.4333786292342056,9.947426091607435,0.6247190703254027,0.6568600874346875,-0.1091051774910858
2025-11-24T18:00:06.298077,0.777723337935026,0.6491415126244356,9.752646715969684,0.6286950162691078,0.787173972413435,0.027089333340462395
2025-11-24T18:00:06.307692,0.530863350990048,0.7102867384186419,9.942072842677474,0.806105847510226,0.6894788105169559,0.047425760709943504
2025-11-24T18:00:06.317308,0.6163782794858681,0.5762192373115868,9.801592491858935,0.6713491339751964,0.7860922367757752,0.22859462078902898
2025-11-24T18:00:06.326923,0.9028281789340743,0.8405430635708434,9.816022421595779,0.9535398272652726,0.9496666025420699,-0.03670808964425494
2025-11-24T18:00:06.336538,0.7186908158728966,1.0941660412324932,9.752324950606484,0.809383953013485,0.7696183417423094,-0.07822435516307964
2025-11-24T18:00:06.346154,1.090238820877805,0.8444186261242305,10.017317390441777,0.8254999031333812,0.8431524430529727,0.15690068751904518
2025-11-24T18:00:06.355769,1.148274275961613,1.197484611134567,9.689962850741761,0.8897089880379164,0.8874354039531561,0.2135468542321654
2025-11-24T18:00:06.365385,1.5526829202043277,1.1614483447243207,9.78178967558186,0.9390203034453777,0.8840712907559469,-0.16390208112941226
2025-11-24T18:00:06.375000,1.2905127578764104,1.3884813004607501,9.62512363383988,1.0273081977944976,0.9537252196608805,0.12722502707160344
2025-11-24T18:00:06.384615,1.435711337388481,1.3567458297910342,9.70485418283723,0.83886216882709,0.8961178126366527,0.1384661236648305
2025-11-24T18:00:06.394231,1.3799808175974535,1.4850614277791327,9.821800559869128,0.9835277861932502,0.9116455211687782,0.062110950086849345
2025-11-24T18:00:06.403846,1.4702426191335625,1.360221441431154,9.709462460386614,0.8202652958470205,1.0367419086484073,-0.07539894844671713
2025-11-24T18:00:06.413462,1.431210661884174,1.378500942507161,9.807329272473845,0.9491338247633625,0.9302848859430715,0.06908236916967093
2025-11-24T18:00:06.423077,1.7296707228362378,1.569321677767704,9.856115404905262,1.0602432260515486,1.0568239010512785,0.02375179966946222
2025-11-24T18:00:06.432692,1.9921134650469736,1.968993908190741,9.960781357318323,1.0001367672477353,1.067186131612254,0.16190128754534522
2025-11-24T18:00:06.442308,1.7690094794318616,1.4725556114071865,9.72996120273187,1.0277507444377172,0.98794102873813,-0.11262263739043075
2025-11-24T18:00:06.451923,1.8350971626896044,1.6972352999623364,9.85641299385839,0.9938207872519323,0.9734706377483159,0.0724174113226565
2025-11-24T18:00:06.461538,1.9006926755663394,1.7564502922230283,9.947572137722586,1.0011576906370645,1.1476442965844695,-0.04721487263418124
2025-11-24T18:00:06.471154,2.0855536986111103,1.923022539342621,9.741971605302965,1.053919072882983,1.0226554507491077,0.0009077731179725768
2025-11-24T18:00:06.480769,1.9794869376880375,1.7374108292368147,9.8013321933015,1.0532541012944296,0.9823054068627378,0.08805514237798549
2025-11-24T18:00:06.490385,1.904772956359767,1.7394530616120936,9.838240522319433,1.0786373285730957,1.00477032602302,-0.10055994006582247
2025-11-24T18:00:06.500000,2.127114240899088,2.048359891970929,10.055071150262656,0.9648619040844467,0.876734281945927,0.05147583330310668
2025-11-24T18:00:06.509615,2.0169163790975126,1.8995654563466697,9.643137779556374,0.9438654299241355,1.033236489589797,-0.1033014034180231
2025-11-24T18:00:06.519231,2.0574789131467988,1.8830421822627683,9.741542205235065,1.0500820989068134,0.9843433033986587,0.014267660689138801
2025-11-24T18:00:06.528846,2.0972201459850814,2.2310407780813684,9.659729066901859,0.8869665022393131,1.1014309545177843,-0.04164311977671992
2025-11-24T18:00:06.538462,2.007040363027511,2.243948088090584,9.729283532177446,0.8659412121902001,0.959938225366457,0.029779319154010817
2025-11-24T18:00:06.548077,2.2191351243291093,1.9687256691759365,9.624167995315394,0.7931407765480705,0.8665950120179231,0.1285202251924375
2025-11-24T18:00:06.557692,1.8999891690782413,2.0204526223545707,9.680104284539606,0.8454437167111245,0.9259829327244455,-0.20590713785902787
2025-11-24T18:00:06.567308,2.157059573315652,2.1459865164163863,9.937736308618275,0.8317784269115598,0.8456527207643535,-0.00187452080196698
2025-11-24T18:00:06.576923,2.1857460086980756,1.9461632823293868,9.635464934742036,0.7907791556172171,0.6116438104698448,-0.002282184994468365
2025-11-24T18:00:06.586538,2.2259738136347003,2.1145774529758046,9.658829799855017,0.7144350971650009,0.9746496497743066,0.0122928579714695
2025-11-24T18:00:06.596154,1.8476978851735693,1.900709392923873,9.886949976106768,0.6577466417608376,0.7251052585990008,-0.02794751241386383
2025-11-24T18:00:06.605769,2.234341954950966,2.065413323234358,9.516231374726589,0.6191383460469246,0.7184530277963992,-0.003370128507762641
2025-11-24T18:00:06.615385,2.058159746149753,2.020049028196941,9.988301255680877,0.7280172497324084,0.5829653371179915,-0.0037040355883209038
2025-11-24T18:00:06.625000,2.052024538939343,2.1622919411525676,9.832761646114356,0.6686825205340732,0.698138966082175,0.2153301583203384
2025-11-24T18:00:06.634615,2.075789214590438,1.9156675783803148,9.927128154498927,0.5978032039587289,0.6411693130139662,0.08506085718653941
2025-11-24T18:00:06.644231,1.6929596525612447,1.9086360122286898,9.842750866257466,0.6497581751273166,0.5124097163901434,0.1320155541231685
2025-11-24T18:00:06.653846,1.7845748374889159,1.6311485576668652,9.858843001068431,0.5858192782823602,0.6249645877171532,-0.2062243672676137
2025-11-24T18:00:06.663462,1.9841315496357286,1.615820366773507,10.058882382634645,0.6427158815165608,0.6375726406233769,-0.02260000236009468
2025-11-24T18:00:06.673077,1.8860625369422945,1.8872469649298445,9.817470513545299,0.591127161628927,0.5993419457586165,-0.041904559396809565
2025-11-24T18:00:06.682692,1.869964771550644,1.6575937967958203,9.988356330672813,0.44053025904535303,0.42613122346664317,0.01619975233688192
2025-11-24T18:00:06.692308,1.785064295925115,1.3711779079980386,9.791609531771236,0.46311291044620223,0.4619593000000016,0.041680023412089776
2025-11-24T18:00:06.701923,1.8440732443519454,1.754954430762504,9.944597131758714,0.369986814013101,0.37467880979708335,-0.0035115359369976736
2025-11-24T18:00:06.711538,1.5000651050980163,1.4676104276272957,9.7758723549745,0.4359987982155986,0.2818662825987243,0.09268090452029723
2025-11-24T18:00:06.721154,1.7055414112742702,1.5236587872880047,9.898973422620982,0.2611824101238972,0.1806990516119369,0.0534261325822325
2025-11-24T18:00:06.730769,1.3625052884812447,1.3887401617783048,9.725411291251781,0.24906249833602803,0.27689431344521354,0.08701010399998593
2025-11-24T18:00:06.740385,1.2092366151605165,1.5143530157683407,9.904662629642544,0.12483264955923623,0.1550030830267558,0.1013658614961261
2025-11-24T18:00:06.750000,1.2544270359642626,1.2321803366344715,9.683425030865097,0.08454522054894792,0.12566457011122,-0.1452489314168046
2025-11-24T18:00:06.759615,1.19254719481079,1.082132976981001,9.649083523258831,-0.09736705121818989,0.08403957763637397,0.033057905167320364
2025-11-24T18:00:06.769231,1.178123344389224,1.1230724668218177,9.742744979729345,-0.15349821329536337,-0.12801259470250984,0.035524787047437646
2025-11-24T18:00:06.778846,1.15670535445807,1.0270357257368083,9.904870861653496,-0.048592766313725444,0.005335948193893093,-0.012606374207843902
2025-11-24T18:00:06.788462,1.0019350399426772,0.9779415716826914,9.487144905600204,-0.031509559036114444,-0.011712153593880024,-0.01888061151656602
2025-11-24T18:00:06.798077,0.7732746893859581,0.7991366659717135,9.67288373123141,-0.1308773927394215,-0.2596800419250091,-0.11028645444040734
2025-11-24T18:00:06.807692,0.49219166375097273,0.49814386773546,9.848050555480897,-0.08994220246307763,-0.26013418383903425,0.057294240740691255
2025-11-24T18:00:06.817308,0.5572723547654505,0.7541812375627746,9.647028158824506,-0.295696826883353,-0.020991698525075403,-0.040107719844813663
2025-11-24T18:00:06.826923,0.716957532229132,0.5429334738768068,9.785241729511952,-0.3333622672918925,-0.3827313088067121,0.004293850191521752
2025-11-24T18:00:06.836538,0.7260738537929737,0.5703288464672106,9.941664030293264,-0.46710032359292164,-0.24313159664965261,-0.0006839162905081693
2025-11-24T18:00:06.846154,0.33955972895607245,0.3093335102820849,9.828351538176326,-0.4207653657392131,-0.45468018859125026,-0.06347683485238916
2025-11-24T18:00:06.855769,0.3071057652013251,0.541765806936071,9.986486539545826,-0.4045094901226361,-0.2622829975902534,0.10166795781472988
2025-11-24T18:00:06.865385,0.38955864348597824,0.2934478499846368,9.898143606520982,-0.42289790713398684,-0.41293684132224795,-0.05637336550438246
2025-11-24T18:00:06.875000,0.039166622482163044,0.060954237208836984,9.886044584938531,-0.45208297867661107,-0.4271704254856011,0.18980317403459562
2025-11-24T18:00:06.884615,-0.08444483390385772,0.0056306542621937326,9.78203023387019,-0.4476426289461535,-0.48985119711508807,0.03615767460188838
2025-11-24T18:00:06.894231,0.04541807649239435,0.04151421656903875,9.58043400187802,-0.5419370658561978,-0.5959947787850524,0.06859387436752906
2025-11-24T18:00:06.903846,-0.39177895757505476,-0.21544258518804085,10.006183058191422,-0.6424463203456612,-0.5887663796957275,-0.14757504276762712
2025-11-24T18:00:06.913462,-0.40248249473376724,-0.3845554602605095,9.627209606504099,-0.5851151814397421,-0.678596514225991,-0.02502395002746805
2025-11-24T18:00:06.923077,-0.39682806478396665,-0.32632319452865177,9.760348134813844,-0.6830309447469508,-0.6910634394886795,0.1319790594315741
2025-11-24T18:00:06.932692,-0.377314734404538,-0.6418951470644617,9.744967939990293,-0.6581915708284666,-0.6990332839833479,0.025966786763160818
2025-11-24T18:00:06.942308,-0.6266079806686498,-0.49591231411937564,9.81221625900068,-0.7700414167340759,-0.8180666438152454,0.019106904985348547
2025-11-24T18:00:06.951923,-0.652065000383178,-0.5819364660900358,9.815891572516373,-0.8756514366717051,-0.9338341327595874,-0.06440571092498874
2025-11-24T18:00:06.961538,-0.4989804251186249,-0.4214042341087822,9.853639580322406,-0.732448140607449,-0.7991980021601605,0.10036234703300825
2025-11-24T18:00:06.971154,-0.7591877600220478,-0.98634353456043,10.129522871286412,-0.8933058733783066,-0.7646405226065828,0.07707057205799865
2025-11-24T18:00:06.980769,-0.6868008388318416,-0.9135920200309222,9.858051461163567,-0.8009208873032044,-0.9229421660141015,0.08264981700608967
2025-11-24T18:00:06.990385,-1.11124271652507,-0.8993797075585088,9.816641894561897,-0.8448517929341818,-0.8293857805070616,0.06448899359600165
2025-11-24T18:00:07,-0.8596141275251752,-0.9759433306201808,9.988796689870469,-0.950309127463379,-1.0071974934906514,0.1364485247730137
2025-11-24T18:00:07.009615,-1.097756845599267,-1.0052107446781127,9.72726283150902,-0.9491266364790334,-0.9839056302250819,0.0801191604563912
2025-11-24T18:00:07.019231,-0.9943534281709513,-1.3831386668910735,9.673897872974845,-0.9496632319609951,-0.8525577263990667,0.1606456975730703
2025-11-24T18:00:07.028846,-1.3441488134765602,-1.2729631133164652,9.959981765914923,-0.8033844184696373,-0.8614371510091337,0.0944288634259566
2025-11-24T18:00:07.038462,-1.093695897266878,-1.483097685736165,9.951053250015985,-0.924782431980891,-0.8263728730715616,0.09335077701737163
2025-11-24T18:00:07.048077,-1.6005705915651114,-1.660960950878075,9.764468301302195,-0.9475859625396946,-0.9622078832470429,0.03619240344985644
2025-11-24T18:00:07.057692,-1.3325910368218792,-1.4128127739292733,9.883466081949258,-0.9186859112644911,-1.0018888215357658,0.0025252990355252615
2025-11-24T18:00:07.067308,-1.3212668446259481,-1.4984743768649382,9.530324311714583,-1.0482893694086028,-0.8604428904434621,-0.05431112820840067
2025-11-24T18:00:07.076923,-1.597611761745027,-1.5314716178089267,9.796629014107632,-0.9893385880779078,-1.0825994260865883,-0.019439421491665766
2025-11-24T18:00:07.086538,-1.4034330138245152,-1.623323748030548,9.939753567205342,-1.024035323571937,-1.0699423590432577,-0.04987894893593425
2025-11-24T18:00:07.096154,-1.5762174343186728,-1.6115170657924769,9.649078925814022,-0.909447430348182,-0.9073132609828696,-0.006616570438329715
2025-11-24T18:00:07.105769,-1.3703682160396997,-1.692798921747593,9.701494341521729,-0.9967168436676385,-0.9416810963768222,0.039845684542880885
2025-11-24T18:00:07.115385,-1.9713071430583677,-1.9598984817804852,9.756007040020004,-0.942435250510427,-0.8346182121724235,-0.046420541015058714
2025-11-24T18:00:07.125000,-1.6991740815195104,-1.9038747016541893,9.702314624664053,-0.9077489065936083,-0.9449238817349144,0.08713310953047018
2025-11-24T18:00:07.134615,-1.5840397259980776,-1.927257736322351,9.599659942955793,-1.0748822629977437,-1.062875336065966,-0.0030950008381269677
2025-11-24T18:00:07.144231,-1.737632226958107,-1.9612617850468654,9.873728878624433,-1.1392005046874032,-0.9832177592667819,0.05411788283466515
2025-11-24T18:00:07.153846,-2.050272244492817,-1.7962394523334189,9.638148691085076,-0.8535261650847199,-0.8003097850512405,0.0031604216585247487
2025-11-24T18:00:07.163462,-1.731114138967526,-1.788315119250527,9.738194479003806,-0.9257410934038622,-0.9372661711369186,-0.0273980305930064
2025-11-24T18:00:07.173077,-1.685039809366834,-1.6991561960636443,9.959421077785732,-0.9683256101152173,-0.779060126712796,0.2434582186370431
2025-11-24T18:00:07.182692,-1.9738310846854155,-1.8405917215820342,9.71475254086496,-0.7373328042251396,-0.7576191762427826,0.04795384776537155
2025-11-24T18:00:07.192308,-1.7534876731692435,-1.7770833978584641,9.918730516996261,-0.910715418076598,-0.8545508377159919,0.014263687799304751
2025-11-24T18:00:07.201923,-1.9690906082213175,-1.8644843850090331,10.027478481549545,-0.985340187552063,-0.8859585836429229,0.03137107130861201
2025-11-24T18:00:07.211538,-1.9961038247964535,-1.806560648469648,9.689229639572794,-0.5474839154588165,-0.7168754979397218,-0.038363739860587706
2025-11-24T18:00:07.221154,-1.9850793119842378,-2.013631724012578,9.776207004814903,-0.6796691719011181,-0.7518393300675642,0.11339555042430224
2025-11-24T18:00:07.230769,-1.8456674551313426,-1.9090442008312363,9.9494455104783,-0.7774752816925175,-0.643352285692533,0.056013229262728115
2025-11-24T18:00:07.240385,-1.712902623105986,-1.8766425405019873,9.667430401340036,-0.6876496798729644,-0.6397675320960299,0.06129714175923966
2025-11-24T18:00:07.250000,-1.7928165677328531,-1.7817023344957936,9.686338926637587,-0.6710535060977039,-0.6485853432475809,0.008557280615940407
2025-11-24T18:00:07.259615,-1.6268186339136772,-1.5937854391293413,9.768034750128793,-0.7022417086640421,-0.5705015443598966,-0.045704635663096696
2025-11-24T18:00:07.269231,-1.9199081450259434,-1.85536544796741,9.754976659505003,-0.6417008878943489,-0.5333846661668842,0.051458986592966854
2025-11-24T18:00:07.278846,-1.8534039657394914,-1.5762702247387566,9.700646529624406,-0.5525919393972367,-0.6633884522671787,-0.01825625745864053
2025-11-24T18:00:07.288462,-1.9331288416632235,-1.563579424964571,9.672897480008158,-0.6226508484729814,-0.35164808774138034,-0.06458973208246002
2025-11-24T18:00:07.298077,-1.5656262307929136,-1.6873468092937547,9.905212792987356,-0.2880718163164196,-0.3777232684745048,0.0065413729339024035
2025-11-24T18:00:07.307692,-1.2251821792380477,-1.3392342315802954,10.069946458541073,-0.48594260836413083,-0.44378904318391804,0.029910810342994358
2025-11-24T18:00:07.317308,-1.3546107255377509,-1.7415822709062512,9.767809363263602,-0.360403894947464,-0.3874718247386534,0.08032657936633263
2025-11-24T18:00:07.326923,-1.3630591570691064,-1.3780241832268263,9.436802337624465,-0.5225423167016456,-0.38712641015812205,-0.025807436324788473
2025-11-24T18:00:07.336538,-1.2589148526902778,-1.2451490115456427,9.806874952363948,-0.3349912534563907,-0.2602756775655846,0.007054324969408967
2025-11-24T18:00:07.346154,-1.2743785347001018,-1.3805294608175211,9.92671644359957,-0.12494278904445597,-0.30274562844423325,-0.01882443171073864
2025-11-24T18:00:07.355769,-1.2123171969765367,-1.1677339734567302,9.78680645133233,-0.2955658211185058,-0.11417582754867435,0.055971636787212536
2025-11-24T18:00:07.365385,-1.0770659641028408,-0.8791877280010024,9.827569684704429,-0.014288376489244733,-0.2498344484025167,-0.053274364225775694
2025-11-24T18:00:07.375000,-1.057762420495759,-0.7974459991915386,9.679375152705694,-0.013363839381259915,-0.13176676837277987,0.032838899558810676
2025-11-24T18:00:07.384615,-1.1515342343409323,-0.9375619427569712,9.925421043909985,-0.1554081539966703,0.017125135084664733,-0.017710190735458053
2025-11-24T18:00:07.394231,-0.7971208332107981,-0.8776746692204522,9.702562131288438,0.12347134878673523,-0.09676735690351923,-0.09305877010705639
2025-11-24T18:00:07.403846,-0.928541984795099,-0.7342779204166238,9.92309344708857,0.15772674664145198,0.05842922607425349,0.07413008516163747
2025-11-24T18:00:07.413462,-0.5612215387633501,-0.9608037257445876,9.592652370348867,0.005838079823552805,0.12917480535690679,0.11464342777060062
2025-11-24T18:00:07.423077,-0.842853317565738,-0.5409575404657656,9.687252242694901,0.14777404883806958,0.17661709711478785,0.06674013184467836
2025-11-24T18:00:07.432692,-0.4391190795598227,-0.48142322667218523,9.855186766173517,0.15365160671737282,0.20342731531119096,0.007923396105529317
2025-11-24T18:00:07.442308,-0.264514220689966,-0.433790062746425,9.698957719707963,0.22357706256652077,0.24538192840982523,0.019032989830899082
2025-11-24T18:00:07.451923,-0.32165160004290005,-0.40211590113063767,9.96931661880642,0.41083507566381927,0.2132849861301142,0.010710066010841296
2025-11-24T18:00:07.461538,-0.47609808077462723,-0.088201525093074,9.963825508427432,0.3804670358953243,0.38940922835363034,0.10132124863286862
2025-11-24T18:00:07.471154,-0.12561034621889594,-0.1456099789715826,9.66471058405764,0.3125520589111097,0.4583615655229956,-0.10642906652054608
2025-11-24T18:00:07.480769,-0.10584136468029502,-0.1765326391853586,9.888650967112843,0.4723054814068267,0.4066045263288893,-0.05258750631033786
2025-11-24T18:00:07.490385,-0.3388307546399261,0.06155770580808447,10.005296360008694,0.5065353721897555,0.523516899550843,0.011026877789647378
2025-11-24T18:00:07.500000,-0.10223273262748528,-0.09280940716743655,9.977462136408505,0.5617903737176179,0.5565821358658616,0.03603518185768294
2025-11-24T18:00:07.509615,0.4491778872734854,0.11717665158205921,9.970246541337014,0.7075322892156642,0.5167759118605957,-0.02798353384394688
2025-11-24T18:00:07.519231,0.40031780411486517,0.5754981167070636,9.801345721450637,0.6388303352377553,0.634818977052786,0.07168028125444253
2025-11-24T18:00:07.528846,0.6732153809071122,0.36112482186859757,9.822632661083176,0.5965415897405633,0.5998573710107825,-0.07365240662766213
2025-11-24T18:00:07.538462,0.34296873123138844,0.42925050416590105,9.560512418423851,0.7073958011676591,0.5600678197592748,-0.015050962947764032
2025-11-24T18:00:07.548077,0.5179177687392574,0.5580429386049648,9.926390847433076,0.7594395408587484,0.7198529955060627,-0.008630194811975002
2025-11-24T18:00:07.557692,0.4080009883696154,0.5516602670872072,9.885931741681963,0.7278202752619007,0.7036938282948545,0.06147515953019085
2025-11-24T18:00:07.567308,0.8316992390709504,0.6725471806935986,9.787845936014122,0.8148687868425759,0.8851653519648115,0.19170938114678537
2025-11-24T18:00:07.576923,0.8978830861263312,0.8390609442232813,9.623516444248787,0.7857866618621696,0.9157248448770726,-0.03676825232713585
2025-11-24T18:00:07.586538,0.9907638377634707,1.1965042649136628,10.051019079862952,0.842824044651295,0.8101398918657975,0.08015909034191014
2025-11-24T18:00:07.596154,0.6257151439929795,1.0254885542404284,9.662346760504544,0.6864461185187869,0.8978470723759591,0.04790350964887551
2025-11-24T18:00:07.605769,1.0703781619245576,1.05055720688919,9.7598748861146,0.8145039918968728,1.0116391550401047,-0.08293383733685958
2025-11-24T18:00:07.615385,1.2708385900463928,1.0031695503747216,10.042982934154198,1.0325977396180908,0.9586929953057483,0.221324735185737
2025-11-24T18:00:07.625000,1.284126133608368,1.50662941720387,9.730925364825307,0.8750960946013833,0.968195741062354,0.026479872458949033
2025-11-24T18:00:07.634615,1.587422658845742,1.220499778152306,9.9730405813334,0.8446741217569538,0.853981759844508,0.00040865679654114237
2025-11-24T18:00:07.644231,1.1599574935732306,1.6748738921097757,9.79111878240146,0.9098261205319683,1.0137095716989044,0.08169816696091854
2025-11-24T18:00:07.653846,1.4982568468224489,1.693161614492917,9.705320839943914,1.0378347558860406,0.9787288392883822,0.21885385787805361
2025-11-24T18:00:07.663462,1.3130061963954625,1.672939163015876,9.93980669707057,0.9015518643050564,0.9210460951935109,0.06516947394934942
2025-11-24T18:00:07.673077,1.4740613742497208,1.4499044360912634,9.830536811241151,0.8929479626609501,0.9402830956681351,-0.09289567694701334
2025-11-24T18:00:07.682692,1.796119528761339,1.5914861955027182,9.859813036677854,1.2043893767813305,1.096834767163248,0.03878558407117917
2025-11-24T18:00:07.692308,1.9524413407215542,1.7657527688256676,9.869247015984856,1.0757216290830904,1.008994251331913,0.09125494789301887
2025-11-24T18:00:07.701923,1.6420428998039616,1.9117005898041903,9.829888988006852,1.0353766894642922,0.9654920347820755,-0.10994574534761135
2025-11-24T18:00:07.711538,1.9447129483276615,1.9467425273316237,9.582323419859572,1.0016908639409303,1.0628405095917441,0.07168135511453926
2025-11-24T18:00:07.721154,1.6842701281576062,2.121955103614707,9.809521955492563,0.9354969258571628,1.060117155216637,0.01190182138279965
2025-11-24T18:00:07.730769,2.046385433628169,1.8304923573086884,9.849954047913116,1.1334979365004263,1.016633680422912,-0.1421664882093212
2025-11-24T18:00:07.740385,2.262577536907671,2.018817268196592,9.735456482654318,1.112895273055694,0.9710032433343065,-0.09829271560840416
2025-11-24T18:00:07.750000,1.8079982849255571,1.9112766359231217,9.777176590265567,0.961893002976713,1.0774270468031364,-0.014996252512654771
2025-11-24T18:00:07.759615,2.280729606724061,1.7487573265150995,10.00086920827668,1.0206065869803302,0.9082959789713781,0.022923670040729573
2025-11-24T18:00:07.769231,1.9903451905587308,1.987646581057685,10.222054468837737,0.9148558799377962,0.8741917575666107,0.06466182324695692
2025-11-24T18:00:07.778846,2.0495829865569424,2.2034459888524704,9.794032018805307,0.9579656167909334,1.0113117244207244,0.15046816150292167
2025-11-24T18:00:07.788462,1.8948189341336046,2.344361374854176,10.129231752926701,1.0417747188237894,0.9993655852509725,0.1382911105094461
2025-11-24T18:00:07.798077,1.8703783790790098,2.3840893981035056,9.848726426861855,0.8288636367811918,0.9206031962262643,0.12840431559803264
2025-11-24T18:00:07.807692,2.120514708139789,2.4232440667928468,9.903777639685774,0.9006434563436854,0.9201334279101662,-0.08035000687764514
2025-11-24T18:00:07.817308,1.7885035679136223,2.3158576027974567,9.587220341367445,0.8809259598733885,0.9536140206905821,-0.07453323713057938
2025-11-24T18:00:07.826923,1.683581171654216,1.7140005139977124,9.812553144337024,0.9030615328741852,0.7631559425402002,0.03476241080040185
2025-11-24T18:00:07.836538,2.1726002073255244,2.12233486902228,9.901604997988066,0.8831410105311858,0.7886410203463307,-0.057328757614948975
2025-11-24T18:00:07.846154,2.0334071755548355,1.7973085461696647,9.933895679311105,0.6162702298291889,0.7170215746744859,-0.0560012778320093
2025-11-24T18:00:07.855769,1.9520062966887166,2.13671655865435,9.535011976600892,0.6946823974315318,0.8243290034101403,-0.1397004647865477
2025-11-24T18:00:07.865385,2.276574036044651,2.126547405601152,9.76470988513669,0.6152229120355153,0.7560396861296761,-0.03212460235866957
2025-11-24T18:00:07.875000,1.730626663537453,2.0926796973867203,9.840675597420299,0.6850682917685318,0.7561709611209242,-0.15840903574687998
2025-11-24T18:00:07.884615,1.967660449995447,1.996011247924784,9.782262639169396,0.7195020349116245,0.683121338257289,-0.02727195537974766
2025-11-24T18:00:07.894231,1.8879894807777646,1.8293824488097243,9.740829385909686,0.48157630120678874,0.5420731364631111,0.08461141942341248
2025-11-24T18:00:07.903846,1.7108769675410689,1.999549408333404,9.661834360535716,0.5163875250483537,0.6591629347735753,-0.11106730721499765
2025-11-24T18:00:07.913462,1.748276403858959,1.7907469723454363,9.847092378603742,0.38538045522274655,0.5608924202879948,0.06254730568748021
2025-11-24T18:00:07.923077,1.7505548473635217,1.814357277458482,9.793624111303838,0.4860486322037239,0.611114625904982,0.031658961548065634
2025-11-24T18:00:07.932692,1.5302312057506067,1.834542583254353,9.942054439375084,0.4940837437576667,0.5268373516239514,0.12092398586055972
2025-11-24T18:00:07.942308,1.7670185488849408,1.465273622499405,9.735823814527022,0.2908758879062822,0.38454861212552666,0.026594191678598635
2025-11-24T18:00:07.951923,1.848128367967917,1.6297446273277574,10.06755181288928,0.5033064131592258,0.44657462752237476,-0.09055774104193844
2025-11-24T18:00:07.961538,1.7031695767848172,1.5561027155317946,9.70053578771944,0.3110619441256761,0.25297744339906925,0.11160402286052254
2025-11-24T18:00:07.971154,1.4330343178342335,1.5249684961174383,9.650237022133268,0.307621551459878,0.24247157089594545,-0.015320091086294178
2025-11-24T18:00:07.980769,1.2888141171281178,1.6527217801890073,9.984143703548728,0.21021031494838138,0.20164741963715258,0.1291684590666553
2025-11-24T18:00:07.990385,1.4416346258910189,1.2906727198988202,9.602542193263668,0.33795503738640437,0.2865660596069794,-0.04839208776203083
2025-11-24T18:00:08,1.2098075012987066,1.5147259524297845,9.651356510550174,0.10512865863845952,0.1024459234084531,-0.015491549314164351
2025-11-24T18:00:08.009615,1.3489028521704627,1.1534612811556426,9.756299184114315,0.03784555101149704,0.1199573965063464,0.005975996931777352
2025-11-24T18:00:08.019231,1.116118912870539,1.200962635638146,9.511062157170386,-0.003546333003965778,-0.08648266140713569,-0.17316131683429964
2025-11-24T18:00:08.028846,1.2586009282755468,0.8368200194502182,9.777871812259988,-0.004465852632108542,-0.019336501127824257,0.024303571595035444
2025-11-24T18:00:08.038462,0.9257592706658642,0.9859197199627543,9.803773556089935,-0.1503221153574751,-0.015415062413072632,-0.08507776584625108
