Timestamp,Acceleration_X,Acceleration_Y,Acceleration_Z,Gyro_X,Gyro_Y,Gyro_Z
2025-12-23T16:10:21.032086,9.791430,-2.067398,1.172483,-0.085521,-0.021991,0.009773
2025-12-23T16:10:21.042086,9.824929,-2.009970,1.205982,-0.061086,-0.015882,0.010995
2025-12-23T16:10:21.051086,9.839286,-2.029113,1.191625,-0.036651,-0.006108,0.015882
2025-12-23T16:10:21.061086,9.762716,-2.005185,1.215553,-0.020769,-0.002443,0.021991
2025-12-23T16:10:21.070086,9.748359,-1.986042,1.282552,-0.014660,-0.002443,0.023212
2025-12-23T16:10:21.080086,9.705288,-1.942971,1.253839,-0.013439,-0.007330,0.025656
2025-12-23T16:10:21.090086,9.695717,-1.909472,1.182054,-0.010995,-0.002443,0.025656
2025-12-23T16:10:21.099086,9.662217,-1.890329,1.272981,-0.012217,-0.003665,0.019547
2025-12-23T16:10:21.109086,9.633503,-1.928615,1.234696,-0.023212,-0.006108,0.018325
2025-12-23T16:10:21.119086,9.619146,-1.842473,1.234696,-0.039095,-0.012217,0.012217
2025-12-23T16:10:21.128086,9.753144,-1.832902,1.201196,-0.052534,-0.025656,0.009773
2025-12-23T16:10:21.138086,9.815358,-1.852044,1.182054,-0.069638,-0.036651,0.012217
2025-12-23T16:10:21.147086,9.906285,-1.933400,1.263410,-0.078190,-0.031764,0.018325
2025-12-23T16:10:21.157086,9.834500,-1.990828,1.287338,-0.081855,-0.007330,0.035430
2025-12-23T16:10:21.167086,9.824929,-1.986042,1.196411,-0.090408,0.015882,0.053756
2025-12-23T16:10:21.176086,9.643075,-2.019542,1.196411,-0.092851,0.013439,0.063529
2025-12-23T16:10:21.186086,9.686145,-2.048256,1.162911,-0.085521,-0.008552,0.073303
2025-12-23T16:10:21.195086,9.734002,-2.067398,1.215553,-0.067195,-0.023212,0.068416
2025-12-23T16:10:21.205086,9.781858,-2.096112,1.316052,-0.031764,-0.020769,0.058643
2025-12-23T16:10:21.215086,9.767501,-2.091326,1.239482,0.013439,-0.001221,0.043982
2025-12-23T16:10:21.224086,9.643075,-1.938186,1.339980,0.048869,0.018325,0.026878
2025-12-23T16:10:21.234086,9.590432,-1.832902,1.272981,0.063529,0.013439,0.012217
2025-12-23T16:10:21.244086,9.576076,-1.770688,1.158126,0.041538,0.001221,0.008552
2025-12-23T16:10:21.253086,9.623932,-1.775474,1.186840,0.003665,-0.015882,0.003665
2025-12-23T16:10:21.263086,9.667003,-1.828116,1.196411,-0.046425,-0.023212,0.012217
2025-12-23T16:10:21.272086,9.772287,-1.895115,1.268195,-0.083077,-0.015882,0.014660
2025-12-23T16:10:21.282086,9.710074,-1.986042,1.220339,-0.103847,-0.001221,0.025656
2025-12-23T16:10:21.292086,9.600004,-2.024327,1.172483,-0.108733,0.006108,0.036651
2025-12-23T16:10:21.301086,9.576076,-2.191825,1.162911,-0.096516,0.004886,0.046425
2025-12-23T16:10:21.311086,9.533005,-2.177468,1.229910,-0.064751,-0.006108,0.047647
2025-12-23T16:10:21.320086,9.609575,-2.187039,1.210768,-0.021991,-0.024434,0.043982
2025-12-23T16:10:21.330086,9.657432,-2.143969,1.234696,0.021991,-0.031764,0.039095
2025-12-23T16:10:21.340086,9.700502,-2.009970,1.158126,0.063529,-0.025656,0.030543
2025-12-23T16:10:21.349086,9.781858,-1.933400,1.205982,0.079412,-0.010995,0.021991
2025-12-23T16:10:21.359086,9.700502,-1.780260,1.129412,0.062308,0.008552,0.018325
2025-12-23T16:10:21.369086,9.590432,-1.737189,1.095912,0.023212,0.020769,0.019547
2025-12-23T16:10:21.378086,9.595218,-1.646261,1.071984,-0.030543,0.014660,0.020769
2025-12-23T16:10:21.388086,9.628718,-1.713260,1.081555,-0.087964,-0.013439,0.025656
2025-12-23T16:10:21.397086,9.762716,-1.938186,1.038485,-0.134390,-0.037873,0.028099
2025-12-23T16:10:21.407086,9.839286,-2.029113,1.052841,-0.151494,-0.037873,0.032986
2025-12-23T16:10:21.417086,9.805787,-2.172682,1.129412,-0.138055,-0.018325,0.040317
2025-12-23T16:10:21.426086,9.690931,-2.268395,1.119840,-0.096516,0.004886,0.042760
2025-12-23T16:10:21.436086,9.556933,-2.301895,1.148554,-0.034208,0.006108,0.043982
2025-12-23T16:10:21.445086,9.475577,-2.167897,1.119840,0.029321,-0.013439,0.032986
2025-12-23T16:10:21.455086,9.513862,-2.005185,1.124626,0.072082,-0.042760,0.026878
2025-12-23T16:10:21.465086,9.604789,-1.952543,1.143769,0.089186,-0.061086,0.023212
2025-12-23T16:10:21.474086,9.710074,-1.722832,1.100698,0.076969,-0.065973,0.018325
2025-12-23T16:10:21.484086,9.815358,-1.574477,1.124626,0.032986,-0.042760,0.018325
2025-12-23T16:10:21.494086,9.748359,-1.622333,1.158126,-0.031764,-0.012217,0.026878
2025-12-23T16:10:21.503086,9.652646,-1.660618,1.205982,-0.105068,0.003665,0.032986
2025-12-23T16:10:21.513086,9.556933,-1.813759,1.124626,-0.156381,0.003665,0.035430
2025-12-23T16:10:21.522086,9.489934,-2.033899,1.138983,-0.171042,-0.021991,0.035430
2025-12-23T16:10:21.532086,9.552147,-2.158325,1.119840,-0.152716,-0.058643,0.032986
2025-12-23T16:10:21.542086,9.705288,-2.230110,1.129412,-0.111177,-0.083077,0.034208
2025-12-23T16:10:21.551086,9.762716,-2.282752,1.172483,-0.061086,-0.087964,0.034208
2025-12-23T16:10:21.561086,9.829715,-2.230110,1.239482,-0.013439,-0.084299,0.037873
2025-12-23T16:10:21.570086,9.906285,-2.139183,1.210768,0.020769,-0.076969,0.040317
2025-12-23T16:10:21.580086,9.839286,-2.033899,1.253839,0.041538,-0.064751,0.045204
2025-12-23T16:10:21.590086,9.729216,-1.952543,1.253839,0.048869,-0.052534,0.048869
2025-12-23T16:10:21.599086,9.772287,-1.823330,1.182054,0.043982,-0.040317,0.052534
2025-12-23T16:10:21.609086,9.695717,-1.818545,1.162911,0.028099,-0.031764,0.053756
2025-12-23T16:10:21.619086,9.638289,-1.799402,1.191625,-0.001221,-0.031764,0.052534
2025-12-23T16:10:21.628086,9.633503,-1.765903,1.229910,-0.039095,-0.040317,0.053756
2025-12-23T16:10:21.638086,9.552147,-1.789831,1.339980,-0.065973,-0.036651,0.054977
2025-12-23T16:10:21.647086,9.590432,-1.861615,1.349551,-0.080634,-0.039095,0.057421
2025-12-23T16:10:21.657086,9.494720,-1.919043,1.196411,-0.086742,-0.046425,0.058643
2025-12-23T16:10:21.667086,9.619146,-1.986042,1.258624,-0.080634,-0.073303,0.053756
2025-12-23T16:10:21.676086,9.786644,-2.048256,1.225125,-0.064751,-0.095294,0.047647
2025-12-23T16:10:21.686086,9.915856,-2.100898,1.191625,-0.032986,-0.096516,0.039095
2025-12-23T16:10:21.695086,10.006784,-2.057827,1.220339,0.002443,-0.074525,0.031764
2025-12-23T16:10:21.705086,9.992427,-2.014756,1.306481,0.037873,-0.043982,0.025656
2025-12-23T16:10:21.715086,9.767501,-2.024327,1.225125,0.063529,-0.018325,0.019547
2025-12-23T16:10:21.724086,9.714859,-1.875972,1.268195,0.076969,-0.013439,0.013439
2025-12-23T16:10:21.734086,9.614361,-1.837687,1.249053,0.074525,-0.029321,0.001221
2025-12-23T16:10:21.744086,9.633503,-1.799402,1.296909,0.059864,-0.056199,-0.004886
2025-12-23T16:10:21.753086,9.743573,-1.813759,1.335195,0.029321,-0.072082,-0.007330
2025-12-23T16:10:21.763086,9.824929,-1.871187,1.344766,0.002443,-0.062308,-0.001221
2025-12-23T16:10:21.772086,9.815358,-1.899901,1.311266,-0.018325,-0.037873,0.003665
2025-12-23T16:10:21.782086,9.734002,-1.981257,1.220339,-0.032986,-0.015882,0.012217
2025-12-23T16:10:21.792086,9.652646,-2.014756,1.253839,-0.040317,-0.002443,0.023212
2025-12-23T16:10:21.801086,9.585647,-2.072184,1.167697,-0.037873,-0.008552,0.031764
2025-12-23T16:10:21.811086,9.556933,-2.062613,1.186840,-0.025656,-0.030543,0.031764
2025-12-23T16:10:21.820086,9.633503,-2.081755,1.182054,-0.008552,-0.053756,0.031764
2025-12-23T16:10:21.830086,9.767501,-2.153540,1.210768,0.010995,-0.064751,0.029321
2025-12-23T16:10:21.840086,9.829715,-2.053041,1.186840,0.029321,-0.053756,0.023212
2025-12-23T16:10:21.849086,9.815358,-2.053041,1.215553,0.042760,-0.028099,0.018325
2025-12-23T16:10:21.859086,9.796215,-2.029113,1.148554,0.047647,0.006108,0.019547
2025-12-23T16:10:21.869086,9.710074,-1.938186,1.115055,0.046425,0.020769,0.018325
2025-12-23T16:10:21.878086,9.614361,-1.899901,1.076770,0.026878,0.008552,0.014660
2025-12-23T16:10:21.888086,9.647860,-1.928615,1.119840,-0.003665,-0.012217,0.015882
2025-12-23T16:10:21.897086,9.662217,-1.866401,1.081555,-0.035430,-0.031764,0.018325
2025-12-23T16:10:21.907086,9.686145,-2.057827,1.048056,-0.059864,-0.034208,0.021991
2025-12-23T16:10:21.917086,9.686145,-2.110469,1.062413,-0.069638,-0.028099,0.028099
2025-12-23T16:10:21.926086,9.714859,-2.196611,1.095912,-0.058643,-0.020769,0.037873
2025-12-23T16:10:21.936086,9.628718,-2.311466,1.057627,-0.026878,-0.019547,0.036651
2025-12-23T16:10:21.945086,9.580861,-2.316252,1.119840,0.014660,-0.030543,0.036651
2025-12-23T16:10:21.955086,9.604789,-2.234896,1.076770,0.047647,-0.046425,0.035430
2025-12-23T16:10:21.965086,9.719645,-2.120040,1.076770,0.069638,-0.051312,0.036651
2025-12-23T16:10:21.974086,9.710074,-2.029113,1.148554,0.080634,-0.052534,0.030543
2025-12-23T16:10:21.984086,9.743573,-2.000399,1.076770,0.073303,-0.042760,0.029321
2025-12-23T16:10:21.994086,9.700502,-1.890329,1.110269,0.052534,-0.031764,0.029321
2025-12-23T16:10:22.003086,9.700502,-1.871187,1.119840,0.028099,-0.029321,0.029321
2025-12-23T16:10:22.013086,9.719645,-1.919043,1.052841,0.002443,-0.029321,0.032986
2025-12-23T16:10:22.022086,9.643075,-2.000399,1.057627,-0.024434,-0.030543,0.035430
2025-12-23T16:10:22.032086,9.681360,-1.990828,1.129412,-0.042760,-0.034208,0.040317
2025-12-23T16:10:22.042086,9.667003,-2.134397,1.115055,-0.053756,-0.030543,0.042760
2025-12-23T16:10:22.051086,9.681360,-2.167897,1.138983,-0.053756,-0.034208,0.046425
2025-12-23T16:10:22.061086,9.681360,-2.263610,1.148554,-0.037873,-0.045204,0.046425
2025-12-23T16:10:22.070086,9.667003,-2.321037,1.143769,-0.002443,-0.056199,0.040317
2025-12-23T16:10:22.080086,9.729216,-2.282752,1.182054,0.035430,-0.057421,0.036651
2025-12-23T16:10:22.090086,9.777073,-2.239681,1.158126,0.067195,-0.054977,0.035430
2025-12-23T16:10:22.099086,9.786644,-2.029113,1.129412,0.090408,-0.043982,0.035430
2025-12-23T16:10:22.109086,9.757930,-1.981257,1.148554,0.090408,-0.034208,0.037873
2025-12-23T16:10:22.119086,9.662217,-1.890329,1.143769,0.065973,-0.024434,0.043982
2025-12-23T16:10:22.128086,9.552147,-1.842473,1.158126,0.035430,-0.025656,0.047647
2025-12-23T16:10:22.138086,9.461220,-1.837687,1.282552,0.004886,-0.021991,0.052534
2025-12-23T16:10:22.147086,9.399007,-1.942971,1.210768,-0.020769,-0.024434,0.056199
2025-12-23T16:10:22.157086,9.403792,-2.033899,1.134197,-0.031764,-0.047647,0.047647
2025-12-23T16:10:22.167086,9.556933,-2.057827,1.158126,-0.030543,-0.083077,0.035430
2025-12-23T16:10:22.176086,9.762716,-2.215753,1.115055,-0.021991,-0.111177,0.023212
2025-12-23T16:10:22.186086,10.030712,-2.210968,1.138983,0.002443,-0.105068,0.015882
2025-12-23T16:10:22.195086,10.150353,-2.177468,1.134197,0.036651,-0.068416,0.012217
2025-12-23T16:10:22.205086,10.140782,-2.134397,1.153340,0.063529,-0.023212,0.017104
2025-12-23T16:10:22.215086,9.963713,-2.033899,1.148554,0.068416,0.017104,0.029321
2025-12-23T16:10:22.224086,9.690931,-1.957328,1.138983,0.057421,0.031764,0.037873
2025-12-23T16:10:22.234086,9.494720,-1.904686,1.167697,0.026878,0.018325,0.043982
2025-12-23T16:10:22.244086,9.418149,-1.942971,1.138983,-0.003665,-0.014660,0.050090
2025-12-23T16:10:22.253086,9.456434,-2.038684,1.186840,-0.018325,-0.051312,0.045204
2025-12-23T16:10:22.263086,9.523433,-2.143969,1.167697,-0.012217,-0.064751,0.040317
2025-12-23T16:10:22.272086,9.604789,-2.172682,1.258624,0.004886,-0.064751,0.030543
2025-12-23T16:10:22.282086,9.729216,-2.172682,1.205982,0.021991,-0.054977,0.023212
2025-12-23T16:10:22.292086,9.743573,-2.105683,1.148554,0.041538,-0.045204,0.018325
2025-12-23T16:10:22.301086,9.729216,-1.971685,1.196411,0.041538,-0.039095,0.013439
2025-12-23T16:10:22.311086,9.705288,-1.990828,1.148554,0.023212,-0.034208,0.018325
2025-12-23T16:10:22.320086,9.772287,-2.033899,1.095912,-0.004886,-0.031764,0.026878
2025-12-23T16:10:22.330086,9.643075,-2.019542,1.110269,-0.035430,-0.025656,0.034208
2025-12-23T16:10:22.340086,9.643075,-2.081755,1.167697,-0.052534,-0.020769,0.040317
2025-12-23T16:10:22.349086,9.580861,-2.225325,1.177268,-0.052534,-0.019547,0.041538
2025-12-23T16:10:22.359086,9.604789,-2.282752,1.115055,-0.030543,-0.029321,0.035430
2025-12-23T16:10:22.369086,9.552147,-2.349751,1.167697,0.004886,-0.045204,0.025656
2025-12-23T16:10:22.378086,9.614361,-2.254038,1.095912,0.045204,-0.063529,0.018325
2025-12-23T16:10:22.388086,9.786644,-2.210968,1.148554,0.076969,-0.069638,0.010995
2025-12-23T16:10:22.397086,9.777073,-2.148754,1.143769,0.096516,-0.062308,0.004886
2025-12-23T16:10:22.407086,9.877571,-2.024327,1.143769,0.091629,-0.041538,0.010995
2025-12-23T16:10:22.417086,9.810572,-1.952543,1.153340,0.068416,-0.025656,0.019547
2025-12-23T16:10:22.426086,9.681360,-1.909472,1.052841,0.028099,-0.012217,0.035430
2025-12-23T16:10:22.436086,9.585647,-1.933400,1.119840,-0.018325,-0.014660,0.045204
2025-12-23T16:10:22.445086,9.576076,-2.014756,1.196411,-0.053756,-0.023212,0.047647
2025-12-23T16:10:22.455086,9.590432,-2.129612,1.158126,-0.064751,-0.037873,0.050090
2025-12-23T16:10:22.465086,9.561719,-2.234896,1.134197,-0.056199,-0.051312,0.045204
2025-12-23T16:10:22.474086,9.633503,-2.287538,1.153340,-0.019547,-0.058643,0.037873
2025-12-23T16:10:22.484086,9.676574,-2.325823,1.205982,0.024434,-0.059864,0.026878
2025-12-23T16:10:22.494086,9.762716,-2.210968,1.215553,0.069638,-0.058643,0.018325
2025-12-23T16:10:22.503086,9.714859,-2.110469,1.119840,0.096516,-0.051312,0.015882
2025-12-23T16:10:22.513086,9.753144,-1.957328,1.162911,0.102625,-0.047647,0.013439
2025-12-23T16:10:22.522086,9.710074,-1.866401,1.182054,0.080634,-0.039095,0.017104
2025-12-23T16:10:22.532086,9.710074,-1.832902,1.138983,0.048869,-0.034208,0.018325
2025-12-23T16:10:22.542086,9.700502,-1.914258,1.158126,0.010995,-0.031764,0.018325
2025-12-23T16:10:22.551086,9.738787,-1.986042,1.095912,-0.019547,-0.029321,0.023212
2025-12-23T16:10:22.561086,9.714859,-2.033899,1.153340,-0.037873,-0.030543,0.021991
2025-12-23T16:10:22.570086,9.690931,-2.096112,1.186840,-0.042760,-0.029321,0.023212
2025-12-23T16:10:22.580086,9.671788,-2.120040,1.167697,-0.034208,-0.035430,0.023212
2025-12-23T16:10:22.590086,9.767501,-2.167897,1.196411,-0.019547,-0.046425,0.023212
2025-12-23T16:10:22.599086,9.767501,-2.220539,1.239482,-0.002443,-0.045204,0.025656
2025-12-23T16:10:22.609086,9.805787,-2.115255,1.186840,0.015882,-0.040317,0.028099
2025-12-23T16:10:22.619086,9.714859,-2.062613,1.191625,0.024434,-0.034208,0.030543
2025-12-23T16:10:22.628086,9.671788,-2.091326,1.220339,0.035430,-0.029321,0.031764
2025-12-23T16:10:22.638086,9.580861,-2.076970,1.306481,0.042760,-0.019547,0.031764
2025-12-23T16:10:22.647086,9.542576,-1.966900,1.253839,0.046425,-0.018325,0.029321
2025-12-23T16:10:22.657086,9.537790,-1.942971,1.205982,0.040317,-0.035430,0.021991
2025-12-23T16:10:22.667086,9.705288,-1.957328,1.148554,0.029321,-0.063529,0.012217
2025-12-23T16:10:22.676086,9.891928,-1.871187,1.177268,0.010995,-0.072082,0.003665
2025-12-23T16:10:22.686086,10.054640,-1.875972,1.182054,-0.009773,-0.054977,0.001221
2025-12-23T16:10:22.695086,10.040283,-1.895115,1.124626,-0.034208,-0.009773,0.002443
2025-12-23T16:10:22.705086,9.901499,-1.971685,1.196411,-0.054977,0.035430,0.008552
2025-12-23T16:10:22.715086,9.614361,-2.091326,1.148554,-0.068416,0.046425,0.014660
2025-12-23T16:10:22.724086,9.504291,-2.124826,1.062413,-0.067195,0.026878,0.013439
2025-12-23T16:10:22.734086,9.432506,-2.215753,1.119840,-0.051312,-0.012217,0.010995
2025-12-23T16:10:22.744086,9.494720,-2.254038,1.172483,-0.025656,-0.054977,0.003665
2025-12-23T16:10:22.753086,9.643075,-2.268395,1.196411,0.009773,-0.076969,0.001221
2025-12-23T16:10:22.763086,9.757930,-2.263610,1.162911,0.045204,-0.072082,-0.003665
2025-12-23T16:10:22.772086,9.805787,-2.124826,1.244267,0.067195,-0.042760,-0.003665
2025-12-23T16:10:22.782086,9.777073,-2.033899,1.220339,0.069638,-0.013439,-0.004886
2025-12-23T16:10:22.792086,9.657432,-2.024327,1.205982,0.051312,0.006108,-0.001221
2025-12-23T16:10:22.801086,9.590432,-1.947757,1.153340,0.025656,0.009773,-0.001221
2025-12-23T16:10:22.811086,9.494720,-1.990828,1.091127,-0.004886,-0.002443,0.001221
2025-12-23T16:10:22.820086,9.523433,-2.033899,1.124626,-0.032986,-0.019547,-0.001221
2025-12-23T16:10:22.830086,9.590432,-2.062613,1.124626,-0.054977,-0.024434,0.002443
2025-12-23T16:10:22.840086,9.652646,-2.139183,1.191625,-0.068416,-0.014660,0.012217
2025-12-23T16:10:22.849086,9.571290,-2.220539,1.081555,-0.072082,-0.006108,0.019547
2025-12-23T16:10:22.859086,9.609575,-2.254038,1.048056,-0.063529,-0.009773,0.021991
2025-12-23T16:10:22.869086,9.590432,-2.230110,0.990628,-0.047647,-0.026878,0.019547
2025-12-23T16:10:22.878086,9.667003,-2.287538,1.009771,-0.028099,-0.047647,0.017104
2025-12-23T16:10:22.888086,9.753144,-2.316252,1.019342,-0.006108,-0.054977,0.013439
2025-12-23T16:10:22.897086,9.805787,-2.277967,1.033699,0.013439,-0.047647,0.007330
2025-12-23T16:10:22.907086,9.834500,-2.273181,1.158126,0.029321,-0.032986,0.006108
2025-12-23T16:10:22.917086,9.729216,-2.172682,1.086341,0.043982,-0.017104,0.006108
2025-12-23T16:10:22.926086,9.623932,-2.139183,1.081555,0.051312,-0.007330,0.006108
2025-12-23T16:10:22.936086,9.533005,-2.177468,1.095912,0.045204,-0.009773,0.009773
2025-12-23T16:10:22.945086,9.475577,-2.053041,1.076770,0.029321,-0.028099,0.014660
2025-12-23T16:10:22.955086,9.571290,-2.033899,1.153340,0.007330,-0.051312,0.020769
2025-12-23T16:10:22.965086,9.657432,-2.086541,1.167697,-0.019547,-0.067195,0.032986
2025-12-23T16:10:22.974086,9.719645,-2.182254,1.138983,-0.037873,-0.065973,0.037873
2025-12-23T16:10:22.984086,9.796215,-2.191825,1.158126,-0.043982,-0.047647,0.040317
2025-12-23T16:10:22.994086,9.757930,-2.258824,1.167697,-0.040317,-0.024434,0.040317
2025-12-23T16:10:23.003086,9.623932,-2.258824,1.172483,-0.025656,-0.006108,0.037873
2025-12-23T16:10:23.013086,9.552147,-2.244467,1.158126,0.001221,-0.002443,0.029321
2025-12-23T16:10:23.022086,9.432506,-2.239681,1.158126,0.021991,-0.010995,0.019547
2025-12-23T16:10:23.032086,9.494720,-2.225325,1.076770,0.032986,-0.030543,0.012217
2025-12-23T16:10:23.042086,9.528219,-2.182254,1.033699,0.034208,-0.048869,0.006108
2025-12-23T16:10:23.051086,9.580861,-2.163111,1.062413,0.032986,-0.057421,0.004886
2025-12-23T16:10:23.061086,9.657432,-2.182254,1.038485,0.013439,-0.054977,0.001221
2025-12-23T16:10:23.070086,9.686145,-2.263610,1.014556,-0.008552,-0.053756,0.001221
2025-12-23T16:10:23.080086,9.724431,-2.239681,1.057627,-0.024434,-0.051312,-0.001221
2025-12-23T16:10:23.090086,9.690931,-2.311466,1.081555,-0.036651,-0.050090,-0.002443
2025-12-23T16:10:23.099086,9.801001,-2.383251,1.052841,-0.032986,-0.046425,-0.001221
2025-12-23T16:10:23.109086,9.738787,-2.478964,1.091127,-0.019547,-0.047647,0.003665
2025-12-23T16:10:23.119086,9.681360,-2.459821,1.100698,-0.001221,-0.050090,0.013439
2025-12-23T16:10:23.128086,9.652646,-2.512463,1.158126,0.025656,-0.052534,0.029321
2025-12-23T16:10:23.138086,9.571290,-2.459821,1.158126,0.058643,-0.046425,0.053756
2025-12-23T16:10:23.147086,9.547362,-2.397608,1.086341,0.089186,-0.056199,0.075747
2025-12-23T16:10:23.157086,9.590432,-2.249253,1.153340,0.112399,-0.074525,0.092851
2025-12-23T16:10:23.167086,9.710074,-2.172682,1.129412,0.119729,-0.096516,0.105068
2025-12-23T16:10:23.176086,9.915856,-2.000399,1.186840,0.111177,-0.086742,0.116064
2025-12-23T16:10:23.186086,9.987641,-1.904686,1.153340,0.089186,-0.046425,0.123394
2025-12-23T16:10:23.195086,9.829715,-1.842473,1.129412,0.056199,0.008552,0.130725
2025-12-23T16:10:23.205086,9.676574,-1.746760,1.162911,0.013439,0.047647,0.130725
2025-12-23T16:10:23.215086,9.375078,-1.741974,1.172483,-0.037873,0.042760,0.125838
2025-12-23T16:10:23.224086,9.355936,-1.813759,1.110269,-0.083077,0.006108,0.114842
2025-12-23T16:10:23.234086,9.446863,-1.938186,1.134197,-0.112399,-0.043982,0.100181
2025-12-23T16:10:23.244086,9.662217,-2.057827,1.124626,-0.118507,-0.076969,0.086742
2025-12-23T16:10:23.253086,9.810572,-2.139183,1.148554,-0.100181,-0.081855,0.075747
2025-12-23T16:10:23.263086,9.853643,-2.206182,1.019342,-0.059864,-0.056199,0.068416
2025-12-23T16:10:23.272086,9.801001,-2.134397,1.000199,-0.025656,-0.019547,0.068416
2025-12-23T16:10:23.282086,9.667003,-2.153540,1.038485,0.002443,-0.008552,0.069638
2025-12-23T16:10:23.292086,9.600004,-2.086541,1.091127,0.024434,-0.025656,0.067195
2025-12-23T16:10:23.301086,9.552147,-2.038684,1.062413,0.036651,-0.051312,0.063529
2025-12-23T16:10:23.311086,9.676574,-2.029113,1.071984,0.037873,-0.074525,0.054977
2025-12-23T16:10:23.320086,9.777073,-1.933400,1.162911,0.028099,-0.074525,0.046425
2025-12-23T16:10:23.330086,9.796215,-1.933400,1.148554,0.000000,-0.050090,0.041538
2025-12-23T16:10:23.340086,9.729216,-1.928615,1.095912,-0.030543,-0.017104,0.039095
2025-12-23T16:10:23.349086,9.585647,-1.928615,1.038485,-0.058643,-0.001221,0.031764
2025-12-23T16:10:23.359086,9.552147,-2.038684,0.952343,-0.083077,-0.004886,0.030543
2025-12-23T16:10:23.369086,9.595218,-2.120040,1.038485,-0.098960,-0.024434,0.026878
2025-12-23T16:10:23.378086,9.724431,-2.187039,0.971485,-0.103847,-0.047647,0.024434
2025-12-23T16:10:23.388086,9.810572,-2.306680,0.976271,-0.098960,-0.054977,0.024434
2025-12-23T16:10:23.397086,9.810572,-2.359323,1.000199,-0.080634,-0.045204,0.020769
2025-12-23T16:10:23.407086,9.743573,-2.402393,1.000199,-0.054977,-0.019547,0.021991
2025-12-23T16:10:23.417086,9.681360,-2.431107,0.985842,-0.026878,-0.004886,0.024434
2025-12-23T16:10:23.426086,9.585647,-2.316252,0.985842,-0.010995,-0.002443,0.026878
2025-12-23T16:10:23.436086,9.504291,-2.306680,0.966700,-0.004886,-0.017104,0.031764
2025-12-23T16:10:23.445086,9.566504,-2.220539,1.024128,-0.008552,-0.042760,0.036651
2025-12-23T16:10:23.455086,9.614361,-2.201396,0.995414,-0.023212,-0.061086,0.043982
2025-12-23T16:10:23.465086,9.724431,-2.239681,1.057627,-0.036651,-0.061086,0.046425
2025-12-23T16:10:23.474086,9.767501,-2.239681,1.071984,-0.042760,-0.042760,0.053756
2025-12-23T16:10:23.484086,9.695717,-2.210968,1.081555,-0.047647,-0.009773,0.058643
2025-12-23T16:10:23.494086,9.633503,-2.239681,1.115055,-0.042760,0.013439,0.059864
2025-12-23T16:10:23.503086,9.542576,-2.210968,1.014556,-0.035430,0.018325,0.053756
2025-12-23T16:10:23.513086,9.537790,-2.182254,1.038485,-0.034208,0.001221,0.047647
2025-12-23T16:10:23.522086,9.542576,-2.191825,1.014556,-0.039095,-0.014660,0.046425
2025-12-23T16:10:23.532086,9.681360,-2.134397,0.981057,-0.050090,-0.032986,0.039095
2025-12-23T16:10:23.542086,9.724431,-2.139183,0.909272,-0.067195,-0.035430,0.036651
2025-12-23T16:10:23.551086,9.714859,-2.177468,1.000199,-0.083077,-0.030543,0.039095
2025-12-23T16:10:23.561086,9.729216,-2.292324,0.942772,-0.091629,-0.031764,0.039095
2025-12-23T16:10:23.570086,9.681360,-2.306680,0.976271,-0.085521,-0.032986,0.039095
2025-12-23T16:10:23.580086,9.647860,-2.416750,1.043270,-0.059864,-0.037873,0.037873
2025-12-23T16:10:23.590086,9.647860,-2.488535,1.057627,-0.021991,-0.047647,0.030543
2025-12-23T16:10:23.599086,9.638289,-2.397608,1.067198,0.019547,-0.053756,0.019547
2025-12-23T16:10:23.609086,9.671788,-2.263610,1.153340,0.052534,-0.059864,0.008552
2025-12-23T16:10:23.619086,9.667003,-2.191825,1.153340,0.063529,-0.062308,0.002443
2025-12-23T16:10:23.628086,9.681360,-2.067398,1.158126,0.057421,-0.054977,0.000000
2025-12-23T16:10:23.638086,9.700502,-2.014756,1.244267,0.029321,-0.035430,0.003665
2025-12-23T16:10:23.647086,9.552147,-2.053041,1.129412,-0.014660,-0.019547,0.010995
2025-12-23T16:10:23.657086,9.556933,-2.057827,1.134197,-0.059864,-0.020769,0.018325
2025-12-23T16:10:23.667086,9.556933,-2.124826,1.110269,-0.097738,-0.052534,0.017104
2025-12-23T16:10:23.676086,9.734002,-2.301895,1.158126,-0.114842,-0.074525,0.010995
2025-12-23T16:10:23.686086,9.829715,-2.388036,1.186840,-0.102625,-0.072082,0.004886
2025-12-23T16:10:23.695086,9.824929,-2.550748,1.201196,-0.063529,-0.054977,-0.004886
2025-12-23T16:10:23.705086,9.853643,-2.498106,1.177268,-0.013439,-0.035430,-0.009773
2025-12-23T16:10:23.715086,9.748359,-2.431107,1.129412,0.031764,-0.030543,-0.007330
2025-12-23T16:10:23.724086,9.762716,-2.292324,1.196411,0.061086,-0.035430,-0.010995
2025-12-23T16:10:23.734086,9.734002,-2.297109,1.196411,0.059864,-0.040317,-0.008552
2025-12-23T16:10:23.744086,9.753144,-2.134397,1.239482,0.042760,-0.039095,0.001221
2025-12-23T16:10:23.753086,9.724431,-2.120040,1.162911,0.020769,-0.031764,0.007330
2025-12-23T16:10:23.763086,9.643075,-2.177468,1.177268,0.004886,-0.014660,0.013439
2025-12-23T16:10:23.772086,9.595218,-2.215753,1.229910,-0.006108,0.007330,0.015882
2025-12-23T16:10:23.782086,9.446863,-2.163111,1.210768,-0.013439,0.013439,0.015882
2025-12-23T16:10:23.792086,9.494720,-2.148754,1.234696,-0.020769,0.003665,0.007330
2025-12-23T16:10:23.801086,9.475577,-2.234896,1.158126,-0.030543,-0.014660,0.001221
2025-12-23T16:10:23.811086,9.595218,-2.282752,1.186840,-0.035430,-0.031764,-0.004886
2025-12-23T16:10:23.820086,9.714859,-2.321037,1.196411,-0.037873,-0.036651,-0.009773
2025-12-23T16:10:23.830086,9.791430,-2.311466,1.105484,-0.032986,-0.024434,-0.006108
2025-12-23T16:10:23.840086,9.781858,-2.263610,1.095912,-0.028099,-0.006108,-0.002443
2025-12-23T16:10:23.849086,9.729216,-2.306680,1.138983,-0.020769,0.004886,0.002443
2025-12-23T16:10:23.859086,9.690931,-2.335394,1.119840,-0.015882,0.000000,0.007330
2025-12-23T16:10:23.869086,9.690931,-2.349751,1.100698,-0.008552,-0.004886,0.010995
2025-12-23T16:10:23.878086,9.690931,-2.335394,1.086341,0.002443,-0.009773,0.006108
2025-12-23T16:10:23.888086,9.662217,-2.340180,1.048056,0.014660,-0.006108,0.004886
2025-12-23T16:10:23.897086,9.643075,-2.321037,1.119840,0.018325,0.002443,0.000000
2025-12-23T16:10:23.907086,9.609575,-2.234896,1.076770,0.023212,0.010995,0.002443
2025-12-23T16:10:23.917086,9.571290,-2.263610,1.091127,0.021991,0.012217,0.000000
2025-12-23T16:10:23.926086,9.590432,-2.277967,1.119840,0.013439,0.004886,0.001221
2025-12-23T16:10:23.936086,9.552147,-2.220539,1.076770,0.002443,-0.002443,0.006108
2025-12-23T16:10:23.945086,9.542576,-2.225325,1.081555,-0.013439,-0.004886,0.012217
2025-12-23T16:10:23.955086,9.643075,-2.282752,1.091127,-0.021991,-0.006108,0.015882
2025-12-23T16:10:23.965086,9.561719,-2.273181,1.033699,-0.023212,-0.007330,0.019547
2025-12-23T16:10:23.974086,9.580861,-2.407179,1.024128,-0.012217,-0.009773,0.024434
2025-12-23T16:10:23.984086,9.528219,-2.368894,1.124626,0.006108,-0.014660,0.025656
2025-12-23T16:10:23.994086,9.585647,-2.416750,1.105484,0.025656,-0.028099,0.018325
2025-12-23T16:10:24.003086,9.600004,-2.349751,1.162911,0.048869,-0.041538,0.009773
2025-12-23T16:10:24.013086,9.757930,-2.344966,1.067198,0.068416,-0.050090,0.002443
2025-12-23T16:10:24.022086,9.805787,-2.230110,1.134197,0.080634,-0.043982,-0.006108
2025-12-23T16:10:24.032086,9.810572,-2.129612,1.115055,0.072082,-0.024434,-0.009773
2025-12-23T16:10:24.042086,9.901499,-2.172682,1.086341,0.051312,-0.007330,-0.008552
2025-12-23T16:10:24.051086,9.834500,-2.081755,1.119840,0.021991,0.008552,-0.003665
2025-12-23T16:10:24.061086,9.681360,-2.129612,1.153340,-0.012217,0.019547,0.003665
2025-12-23T16:10:24.070086,9.667003,-2.148754,1.129412,-0.039095,0.020769,0.013439
2025-12-23T16:10:24.080086,9.571290,-2.206182,1.134197,-0.048869,0.008552,0.017104
2025-12-23T16:10:24.090086,9.580861,-2.368894,1.143769,-0.041538,-0.012217,0.021991
2025-12-23T16:10:24.099086,9.600004,-2.517249,1.143769,-0.017104,-0.028099,0.028099
2025-12-23T16:10:24.109086,9.652646,-2.469392,1.177268,0.031764,-0.039095,0.021991
2025-12-23T16:10:24.119086,9.738787,-2.517249,1.277767,0.081855,-0.045204,0.014660
2025-12-23T16:10:24.128086,9.815358,-2.488535,1.344766,0.128281,-0.041538,0.008552
2025-12-23T16:10:24.138086,9.724431,-2.378465,1.402194,0.173485,-0.015882,0.007330
2025-12-23T16:10:24.147086,9.729216,-2.220539,1.253839,0.200363,0.008552,0.007330
2025-12-23T16:10:24.157086,9.628718,-2.029113,1.335195,0.194255,0.023212,0.010995
2025-12-23T16:10:24.167086,9.590432,-1.966900,1.177268,0.160046,0.019547,0.013439
2025-12-23T16:10:24.176086,9.590432,-1.986042,1.215553,0.117286,0.013439,0.017104
2025-12-23T16:10:24.186086,9.695717,-2.076970,1.258624,0.079412,0.015882,0.020769
2025-12-23T16:10:24.195086,9.801001,-2.163111,1.301695,0.067195,0.031764,0.024434
2025-12-23T16:10:24.205086,9.700502,-2.139183,1.249053,0.072082,0.051312,0.031764
2025-12-23T16:10:24.215086,9.700502,-2.143969,1.186840,0.080634,0.050090,0.042760
2025-12-23T16:10:24.224086,9.714859,-2.148754,1.239482,0.086742,0.035430,0.057421
2025-12-23T16:10:24.234086,9.753144,-2.005185,1.215553,0.089186,0.025656,0.073303
2025-12-23T16:10:24.244086,9.839286,-1.995614,1.186840,0.085521,0.026878,0.100181
2025-12-23T16:10:24.253086,9.911071,-1.995614,1.244267,0.086742,0.045204,0.122173
2025-12-23T16:10:24.263086,9.839286,-2.029113,1.153340,0.098960,0.073303,0.141720
2025-12-23T16:10:24.272086,9.623932,-1.928615,1.110269,0.117286,0.101403,0.160046
2025-12-23T16:10:24.282086,9.408578,-1.847259,1.105484,0.120951,0.114842,0.177150
2025-12-23T16:10:24.292086,9.288937,-1.670190,1.095912,0.109955,0.100181,0.178372
2025-12-23T16:10:24.301086,9.193224,-1.579262,1.134197,0.080634,0.064751,0.164933
2025-12-23T16:10:24.311086,9.312865,-1.607976,1.172483,0.025656,0.013439,0.140498
2025-12-23T16:10:24.320086,9.466006,-1.674975,1.153340,-0.034208,-0.025656,0.114842
2025-12-23T16:10:24.330086,9.681360,-1.818545,1.172483,-0.083077,-0.036651,0.084299
2025-12-23T16:10:24.340086,9.834500,-2.014756,1.158126,-0.114842,-0.015882,0.057421
2025-12-23T16:10:24.349086,9.824929,-2.124826,1.205982,-0.118507,0.007330,0.035430
2025-12-23T16:10:24.359086,9.753144,-2.287538,1.100698,-0.087964,0.017104,0.013439
2025-12-23T16:10:24.369086,9.753144,-2.340180,1.004985,-0.054977,0.004886,0.006108
2025-12-23T16:10:24.378086,9.777073,-2.287538,0.961914,-0.020769,-0.006108,0.000000
2025-12-23T16:10:24.388086,9.781858,-2.163111,0.957129,0.003665,-0.007330,-0.004886
2025-12-23T16:10:24.397086,9.643075,-2.182254,0.904486,0.006108,0.006108,-0.013439
2025-12-23T16:10:24.407086,9.576076,-2.129612,1.052841,-0.004886,0.018325,-0.023212
2025-12-23T16:10:24.417086,9.375078,-2.153540,1.153340,-0.014660,0.009773,-0.031764
2025-12-23T16:10:24.426086,9.255437,-2.167897,1.234696,-0.015882,-0.013439,-0.050090
2025-12-23T16:10:24.436086,9.269794,-2.277967,1.148554,-0.039095,-0.047647,-0.065973
2025-12-23T16:10:24.445086,9.403792,-2.392822,1.253839,-0.072082,-0.067195,-0.072082
2025-12-23T16:10:24.455086,9.499505,-2.589034,1.282552,-0.074525,-0.069638,-0.073303
2025-12-23T16:10:24.465086,9.604789,-2.617747,1.258624,-0.057421,-0.048869,-0.068416
2025-12-23T16:10:24.474086,9.446863,-2.589034,1.196411,-0.025656,-0.013439,-0.058643
2025-12-23T16:10:24.484086,9.327222,-2.493321,1.158126,0.006108,0.010995,-0.043982
2025-12-23T16:10:24.494086,9.293722,-2.354537,1.225125,0.010995,-0.001221,-0.029321
2025-12-23T16:10:24.503086,9.303294,-2.258824,1.048056,0.001221,-0.029321,-0.009773
2025-12-23T16:10:24.513086,9.312865,-2.191825,1.148554,-0.021991,-0.057421,-0.001221
2025-12-23T16:10:24.522086,9.466006,-2.230110,1.196411,-0.064751,-0.072082,0.000000
2025-12-23T16:10:24.532086,9.604789,-2.402393,1.282552,-0.096516,-0.080634,0.006108
2025-12-23T16:10:24.542086,9.710074,-2.560320,1.215553,-0.091629,-0.073303,0.009773
2025-12-23T16:10:24.551086,9.676574,-2.569891,1.134197,-0.057421,-0.051312,0.012217
2025-12-23T16:10:24.561086,9.643075,-2.584248,1.277767,-0.032986,-0.046425,0.000000
2025-12-23T16:10:24.570086,9.571290,-2.555534,1.191625,-0.006108,-0.057421,0.002443
2025-12-23T16:10:24.580086,9.643075,-2.464607,1.268195,0.018325,-0.074525,0.003665
2025-12-23T16:10:24.590086,9.729216,-2.411965,1.258624,0.021991,-0.087964,0.007330
2025-12-23T16:10:24.599086,9.772287,-2.277967,1.263410,0.019547,-0.091629,0.017104
2025-12-23T16:10:24.609086,9.810572,-2.215753,1.229910,0.001221,-0.084299,0.025656
2025-12-23T16:10:24.619086,9.829715,-2.301895,1.292124,-0.019547,-0.068416,0.028099
2025-12-23T16:10:24.628086,9.824929,-2.364108,1.397408,-0.036651,-0.047647,0.030543
2025-12-23T16:10:24.638086,9.623932,-2.364108,1.392622,-0.035430,-0.031764,0.034208
2025-12-23T16:10:24.647086,9.633503,-2.421536,1.373480,-0.018325,-0.026878,0.031764
2025-12-23T16:10:24.657086,9.504291,-2.507678,1.392622,0.001221,-0.042760,0.024434
2025-12-23T16:10:24.667086,9.623932,-2.450250,1.411765,0.019547,-0.072082,0.014660
2025-12-23T16:10:24.676086,9.824929,-2.474178,1.411765,0.041538,-0.092851,0.000000
2025-12-23T16:10:24.686086,9.963713,-2.474178,1.349551,0.053756,-0.087964,-0.004886
2025-12-23T16:10:24.695086,9.982855,-2.354537,1.383051,0.056199,-0.063529,-0.004886
2025-12-23T16:10:24.705086,9.963713,-2.282752,1.316052,0.051312,-0.023212,-0.002443
2025-12-23T16:10:24.715086,9.896714,-2.292324,1.301695,0.024434,0.014660,0.012217
2025-12-23T16:10:24.724086,9.686145,-2.196611,1.249053,-0.007330,0.024434,0.018325
2025-12-23T16:10:24.734086,9.638289,-2.239681,1.316052,-0.026878,0.021991,0.023212
2025-12-23T16:10:24.744086,9.566504,-2.349751,1.320838,-0.034208,0.008552,0.032986
2025-12-23T16:10:24.753086,9.513862,-2.426322,1.368694,-0.019547,-0.004886,0.034208
2025-12-23T16:10:24.763086,9.499505,-2.407179,1.296909,0.017104,-0.013439,0.030543
2025-12-23T16:10:24.772086,9.580861,-2.407179,1.359123,0.053756,-0.023212,0.024434
2025-12-23T16:10:24.782086,9.561719,-2.311466,1.316052,0.076969,-0.025656,0.024434
2025-12-23T16:10:24.792086,9.552147,-2.254038,1.320838,0.081855,-0.024434,0.024434
2025-12-23T16:10:24.801086,9.633503,-2.158325,1.344766,0.073303,-0.031764,0.023212
2025-12-23T16:10:24.811086,9.748359,-2.148754,1.335195,0.048869,-0.036651,0.025656
2025-12-23T16:10:24.820086,9.815358,-2.139183,1.210768,0.042760,-0.012217,0.029321
2025-12-23T16:10:24.830086,9.848857,-2.167897,1.272981,0.039095,0.024434,0.031764
2025-12-23T16:10:24.840086,9.743573,-2.076970,1.205982,0.017104,0.052534,0.037873
2025-12-23T16:10:24.849086,9.513862,-2.143969,1.272981,-0.013439,0.059864,0.047647
2025-12-23T16:10:24.859086,9.528219,-2.172682,1.186840,-0.034208,0.048869,0.054977
2025-12-23T16:10:24.869086,9.518648,-2.187039,1.177268,-0.041538,0.023212,0.051312
2025-12-23T16:10:24.878086,9.609575,-2.282752,1.220339,-0.029321,0.000000,0.042760
2025-12-23T16:10:24.888086,9.700502,-2.349751,1.316052,-0.007330,-0.014660,0.036651
2025-12-23T16:10:24.897086,9.767501,-2.373680,1.258624,0.032986,-0.018325,0.021991
2025-12-23T16:10:24.907086,9.781858,-2.397608,1.287338,0.078190,-0.007330,0.025656
2025-12-23T16:10:24.917086,9.834500,-2.196611,1.272981,0.103847,0.001221,0.028099
2025-12-23T16:10:24.926086,9.848857,-2.105683,1.268195,0.107512,0.013439,0.028099
2025-12-23T16:10:24.936086,9.738787,-1.995614,1.225125,0.094073,0.032986,0.032986
2025-12-23T16:10:24.945086,9.609575,-1.947757,1.225125,0.075747,0.053756,0.036651
2025-12-23T16:10:24.955086,9.461220,-1.856830,1.311266,0.051312,0.050090,0.030543
2025-12-23T16:10:24.965086,9.288937,-1.880758,1.162911,0.015882,0.034208,0.024434
2025-12-23T16:10:24.974086,9.355936,-1.914258,1.148554,-0.008552,0.003665,0.002443
2025-12-23T16:10:24.984086,9.308079,-1.909472,1.253839,-0.007330,-0.023212,-0.015882
2025-12-23T16:10:24.994086,9.384650,-1.880758,1.182054,-0.006108,-0.047647,-0.035430
2025-12-23T16:10:25.003086,9.556933,-1.866401,1.263410,-0.012217,-0.074525,-0.064751
2025-12-23T16:10:25.013086,9.762716,-1.856830,1.277767,-0.017104,-0.101403,-0.086742
2025-12-23T16:10:25.022086,9.978070,-1.842473,1.182054,-0.026878,-0.090408,-0.096516
2025-12-23T16:10:25.032086,9.954142,-1.780260,1.091127,-0.048869,-0.039095,-0.098960
2025-12-23T16:10:25.042086,9.757930,-1.808973,1.086341,-0.075747,0.010995,-0.101403
2025-12-23T16:10:25.051086,9.451649,-1.828116,1.110269,-0.105068,0.036651,-0.102625
2025-12-23T16:10:25.061086,9.265009,-1.957328,1.115055,-0.123394,0.013439,-0.108733
2025-12-23T16:10:25.070086,9.269794,-2.053041,1.153340,-0.112399,-0.043982,-0.122173
2025-12-23T16:10:25.080086,9.308079,-2.129612,1.196411,-0.087964,-0.107512,-0.142942
2025-12-23T16:10:25.090086,9.533005,-2.148754,1.277767,-0.052534,-0.146607,-0.158824
2025-12-23T16:10:25.099086,9.738787,-2.115255,1.239482,-0.021991,-0.152716,-0.166155
2025-12-23T16:10:25.109086,9.839286,-2.076970,1.263410,0.000000,-0.138055,-0.172263
2025-12-23T16:10:25.119086,9.868000,-2.043470,1.268195,0.009773,-0.108733,-0.171042
2025-12-23T16:10:25.128086,9.805787,-2.072184,1.282552,0.008552,-0.072082,-0.160046
2025-12-23T16:10:25.138086,9.667003,-1.981257,1.158126,-0.009773,-0.046425,-0.144164
2025-12-23T16:10:25.147086,9.556933,-1.923829,1.138983,-0.040317,-0.048869,-0.131946
2025-12-23T16:10:25.157086,9.528219,-2.005185,1.134197,-0.086742,-0.075747,-0.122173
2025-12-23T16:10:25.167086,9.585647,-2.076970,1.138983,-0.129503,-0.102625,-0.116064
2025-12-23T16:10:25.176086,9.695717,-2.225325,1.239482,-0.156381,-0.105068,-0.111177
2025-12-23T16:10:25.186086,9.748359,-2.426322,1.277767,-0.149051,-0.092851,-0.111177
2025-12-23T16:10:25.195086,9.633503,-2.608176,1.335195,-0.102625,-0.069638,-0.116064
2025-12-23T16:10:25.205086,9.590432,-2.651247,1.316052,-0.032986,-0.062308,-0.124616
2025-12-23T16:10:25.215086,9.451649,-2.589034,1.359123,0.043982,-0.080634,-0.134390
2025-12-23T16:10:25.224086,9.470791,-2.545963,1.497906,0.105068,-0.114842,-0.145385
2025-12-23T16:10:25.234086,9.552147,-2.522035,1.560120,0.140498,-0.153938,-0.146607
2025-12-23T16:10:25.244086,9.781858,-2.359323,1.445264,0.156381,-0.178372,-0.136833
2025-12-23T16:10:25.253086,10.006784,-2.297109,1.483550,0.160046,-0.173485,-0.118507
2025-12-23T16:10:25.263086,10.174281,-2.120040,1.488335,0.139277,-0.134390,-0.081855
2025-12-23T16:10:25.272086,10.202995,-2.124826,1.478764,0.092851,-0.076969,-0.041538
2025-12-23T16:10:25.282086,10.059426,-2.120040,1.488335,0.039095,-0.015882,0.000000
2025-12-23T16:10:25.292086,9.753144,-2.105683,1.574477,-0.008552,0.019547,0.028099
2025-12-23T16:10:25.301086,9.667003,-2.282752,1.617548,-0.028099,0.024434,0.046425
2025-12-23T16:10:25.311086,9.561719,-2.301895,1.507478,-0.021991,0.002443,0.053756
2025-12-23T16:10:25.320086,9.576076,-2.388036,1.512263,0.009773,-0.026878,0.047647
2025-12-23T16:10:25.330086,9.667003,-2.349751,1.517049,0.052534,-0.043982,0.042760
2025-12-23T16:10:25.340086,9.762716,-2.349751,1.450050,0.096516,-0.037873,0.034208
2025-12-23T16:10:25.349086,9.796215,-2.148754,1.406979,0.134390,-0.017104,0.021991
2025-12-23T16:10:25.359086,9.695717,-2.091326,1.368694,0.158824,-0.004886,0.007330
2025-12-23T16:10:25.369086,9.671788,-2.009970,1.421336,0.172263,-0.001221,-0.010995
2025-12-23T16:10:25.378086,9.638289,-1.995614,1.339980,0.179594,-0.012217,-0.028099
2025-12-23T16:10:25.388086,9.657432,-2.029113,1.325623,0.194255,-0.030543,-0.045204
2025-12-23T16:10:25.397086,9.820143,-1.914258,1.325623,0.212581,-0.054977,-0.062308
2025-12-23T16:10:25.407086,9.973284,-1.823330,1.296909,0.212581,-0.062308,-0.069638
2025-12-23T16:10:25.417086,10.092925,-1.603191,1.134197,0.201585,-0.041538,-0.073303
2025-12-23T16:10:25.426086,10.102497,-1.607976,1.220339,0.166155,-0.008552,-0.070860
2025-12-23T16:10:25.436086,9.930213,-1.540977,1.172483,0.125838,0.028099,-0.064751
2025-12-23T16:10:25.445086,9.734002,-1.536192,1.134197,0.095294,0.052534,-0.061086
2025-12-23T16:10:25.455086,9.604789,-1.536192,1.105484,0.081855,0.039095,-0.069638
2025-12-23T16:10:25.465086,9.600004,-1.564905,1.153340,0.074525,0.004886,-0.079412
2025-12-23T16:10:25.474086,9.647860,-1.531406,1.115055,0.084299,-0.035430,-0.085521
2025-12-23T16:10:25.484086,9.824929,-1.550549,1.167697,0.096516,-0.064751,-0.095294
2025-12-23T16:10:25.494086,10.092925,-1.440479,1.119840,0.112399,-0.075747,-0.107512
2025-12-23T16:10:25.503086,10.131210,-1.426122,1.205982,0.127059,-0.059864,-0.113620
2025-12-23T16:10:25.513086,10.193424,-1.292124,1.148554,0.124616,-0.030543,-0.119729
2025-12-23T16:10:25.522086,10.116853,-1.292124,1.124626,0.117286,0.001221,-0.123394
2025-12-23T16:10:25.532086,10.006784,-1.205982,1.091127,0.114842,0.023212,-0.128281
2025-12-23T16:10:25.542086,9.820143,-1.052841,1.138983,0.111177,0.029321,-0.138055
2025-12-23T16:10:25.551086,9.667003,-1.033699,1.076770,0.092851,0.023212,-0.151494
2025-12-23T16:10:25.561086,9.628718,-1.124626,1.110269,0.069638,0.004886,-0.167377
2025-12-23T16:10:25.570086,9.638289,-1.067198,1.095912,0.042760,-0.020769,-0.189368
2025-12-23T16:10:25.580086,9.576076,-1.229910,1.249053,0.024434,-0.051312,-0.210137
2025-12-23T16:10:25.590086,9.614361,-1.311266,1.282552,0.024434,-0.072082,-0.230907
2025-12-23T16:10:25.599086,9.729216,-1.397408,1.191625,0.046425,-0.081855,-0.252898
2025-12-23T16:10:25.609086,9.810572,-1.497906,1.339980,0.080634,-0.078190,-0.268780
2025-12-23T16:10:25.619086,9.753144,-1.483550,1.397408,0.113620,-0.053756,-0.273667
2025-12-23T16:10:25.628086,9.676574,-1.344766,1.292124,0.142942,-0.024434,-0.277332
2025-12-23T16:10:25.638086,9.533005,-1.158126,1.296909,0.147829,-0.001221,-0.267558
2025-12-23T16:10:25.647086,9.446863,-1.081555,1.296909,0.122173,0.006108,-0.266337
2025-12-23T16:10:25.657086,9.336793,-1.057627,1.402194,0.067195,0.012217,-0.252898
2025-12-23T16:10:25.667086,9.308079,-1.225125,1.411765,-0.001221,0.028099,-0.229685
2025-12-23T16:10:25.676086,9.174081,-1.440479,1.459621,-0.064751,0.050090,-0.206472
2025-12-23T16:10:25.686086,8.949156,-1.722832,1.560120,-0.112399,0.070860,-0.173485
2025-12-23T16:10:25.695086,8.738588,-1.928615,1.746760,-0.125838,0.090408,-0.142942
2025-12-23T16:10:25.705086,8.470592,-2.177468,1.871187,-0.107512,0.100181,-0.112399
2025-12-23T16:10:25.715086,8.193024,-2.373680,2.009970,-0.048869,0.103847,-0.098960
2025-12-23T16:10:25.724086,7.925028,-2.378465,2.163111,0.048869,0.108733,-0.085521
2025-12-23T16:10:25.734086,7.786244,-2.201396,2.244467,0.163711,0.113620,-0.085521
2025-12-23T16:10:25.744086,7.652246,-1.875972,2.086541,0.237015,0.130725,-0.078190
2025-12-23T16:10:25.753086,7.594818,-1.708475,1.890329,0.254119,0.184481,-0.057421
2025-12-23T16:10:25.763086,7.537391,-1.584048,1.909472,0.197920,0.246789,-0.009773
2025-12-23T16:10:25.772086,7.302894,-1.545763,2.158325,0.072082,0.291993,0.065973
2025-12-23T16:10:25.782086,7.111468,-1.564905,2.268395,-0.127059,0.302989,0.153938
2025-12-23T16:10:25.792086,7.006184,-1.976471,2.148754,-0.368962,0.293215,0.254119
2025-12-23T16:10:25.801086,6.896114,-2.560320,1.981257,-0.546113,0.284663,0.348193
2025-12-23T16:10:25.811086,6.843472,-3.311666,1.919043,-0.591317,0.295658,0.430049
2025-12-23T16:10:25.820086,6.719045,-3.881158,1.923829,-0.526565,0.301767,0.509461
2025-12-23T16:10:25.830086,6.580262,-4.096512,1.785045,-0.395840,0.299323,0.588873
2025-12-23T16:10:25.840086,6.470192,-4.115654,1.679761,-0.232128,0.287106,0.665842
2025-12-23T16:10:25.849086,6.417550,-3.976871,1.234696,-0.097738,0.288328,0.747698
2025-12-23T16:10:25.859086,6.273980,-3.785445,1.095912,-0.017104,0.291993,0.834441
2025-12-23T16:10:25.869086,6.125625,-3.689732,0.966700,-0.006108,0.290771,0.929736
2025-12-23T16:10:25.878086,6.025127,-3.919443,1.086341,-0.085521,0.278554,1.044579
2025-12-23T16:10:25.888086,5.938985,-4.354937,1.478764,-0.190589,0.244346,1.166752
2025-12-23T16:10:25.897086,6.039484,-4.857429,1.871187,-0.216246,0.199142,1.282816
2025-12-23T16:10:25.907086,6.096911,-5.307280,2.062613,-0.174707,0.167377,1.397659
2025-12-23T16:10:25.917086,6.273980,-5.580062,1.947757,-0.051312,0.161268,1.505171
2025-12-23T16:10:25.926086,6.585047,-5.656632,2.005185,0.144164,0.175929,1.602910
2025-12-23T16:10:25.936086,6.795616,-5.422136,1.694118,0.311541,0.221133,1.693318
2025-12-23T16:10:25.945086,6.900900,-4.977071,1.268195,0.439822,0.288328,1.788613
2025-12-23T16:10:25.955086,6.872186,-4.436293,1.148554,0.499687,0.367740,1.875355
2025-12-23T16:10:25.965086,6.752545,-4.091726,1.186840,0.410501,0.422718,1.990198
2025-12-23T16:10:25.974086,6.675975,-3.967299,1.306481,0.199142,0.447153,2.094045
2025-12-23T16:10:25.984086,6.661618,-4.268795,1.631905,-0.017104,0.443488,2.173458
2025-12-23T16:10:25.994086,6.795616,-4.847858,2.038684,-0.173485,0.416610,2.251648
2025-12-23T16:10:26.003086,7.077969,-5.273781,2.488535,-0.210137,0.368962,2.305404
2025-12-23T16:10:26.013086,7.647461,-5.546562,3.125026,-0.141720,0.309097,2.340835
2025-12-23T16:10:26.022086,8.360522,-5.670989,3.148954,-0.078190,0.296880,2.394591
2025-12-23T16:10:26.032086,8.973084,-5.814558,2.723032,-0.001221,0.387288,2.469116
2025-12-23T16:10:26.042086,9.078368,-5.848058,2.330609,0.133168,0.581543,2.543642
2025-12-23T16:10:26.051086,8.551947,-5.608776,1.962114,0.285884,0.817337,2.613280
2025-12-23T16:10:26.061086,7.666603,-5.101497,1.808973,0.398284,0.999375,2.678032
2025-12-23T16:10:26.070086,6.666403,-4.594219,2.029113,0.410501,1.044579,2.722014
2025-12-23T16:10:26.080086,6.044269,-4.287938,2.364108,0.302989,0.932180,2.731788
2025-12-23T16:10:26.090086,5.977270,-4.508077,2.560320,0.122173,0.731816,2.728123
2025-12-23T16:10:26.099086,6.532405,-5.087140,2.670390,-0.029321,0.540004,2.712241
2025-12-23T16:10:26.109086,7.240681,-5.910271,3.153740,-0.061086,0.430049,2.675589
2025-12-23T16:10:26.119086,7.996813,-6.561119,3.259024,0.023212,0.425162,2.637715
2025-12-23T16:10:26.128086,8.260023,-6.958328,3.206382,0.193033,0.525343,2.612059
2025-12-23T16:10:26.138086,8.173882,-7.034898,3.211167,0.420275,0.687834,2.597398
2025-12-23T16:10:26.147086,7.499106,-6.853043,2.895315,0.569326,0.839328,2.616946
2025-12-23T16:10:26.157086,6.632904,-6.489334,2.703889,0.602312,0.895528,2.643824
2025-12-23T16:10:26.167086,5.996413,-6.340979,3.048455,0.504574,0.807563,2.662150
2025-12-23T16:10:26.176086,5.848058,-6.666403,3.077169,0.323758,0.637743,2.664593
2025-12-23T16:10:26.186086,6.068198,-7.250252,3.321237,0.174707,0.472809,2.642602
2025-12-23T16:10:26.195086,6.570690,-7.786244,3.589233,0.140498,0.373849,2.608394
2025-12-23T16:10:26.205086,6.876972,-8.068597,3.646661,0.224798,0.377514,2.572963
2025-12-23T16:10:26.215086,6.972685,-8.255237,3.493520,0.342084,0.443488,2.550972
2025-12-23T16:10:26.224086,6.805187,-8.274380,3.335594,0.427605,0.504574,2.541198
2025-12-23T16:10:26.234086,6.570690,-8.140382,3.105883,0.504574,0.508239,2.531425
2025-12-23T16:10:26.244086,6.273980,-7.728816,3.000599,0.607199,0.481361,2.491107
2025-12-23T16:10:26.253086,6.025127,-7.384250,3.254238,0.526565,0.426383,2.482555
2025-12-23T16:10:26.263086,6.005984,-7.489534,3.244667,0.234572,0.322536,2.491107
2025-12-23T16:10:26.272086,6.034698,-7.920242,3.608376,-0.042760,0.216246,2.459342
2025-12-23T16:10:26.282086,6.206981,-8.470592,4.086941,-0.324980,0.133168,2.430021
2025-12-23T16:10:26.292086,6.326622,-9.279366,3.996013,-0.536339,0.085521,2.417804
2025-12-23T16:10:26.301086,6.264409,-9.805787,4.010370,-0.494800,0.081855,2.367713
2025-12-23T16:10:26.311086,5.862415,-10.006784,4.106083,-0.310319,0.122173,2.305404
2025-12-23T16:10:26.320086,5.268995,-10.078568,4.000799,-0.074525,0.153938,2.236988
2025-12-23T16:10:26.330086,4.718646,-10.222138,3.914657,0.177150,0.151494,2.162462
2025-12-23T16:10:26.340086,4.287938,-10.313065,3.972085,0.475253,0.072082,2.073276
2025-12-23T16:10:26.349086,4.264009,-10.284351,4.067798,0.741590,-0.061086,1.974316
2025-12-23T16:10:26.359086,4.699503,-10.561918,3.972085,0.789237,-0.221133,1.912007
2025-12-23T16:10:26.369086,5.398207,-10.705488,3.943371,0.853989,-0.323758,1.832595
2025-12-23T16:10:26.378086,5.982056,-10.303494,4.292723,0.967610,-0.285884,1.714087
2025-12-23T16:10:26.388086,6.001199,-9.657432,4.532006,0.861319,-0.152716,1.651779
2025-12-23T16:10:26.397086,5.680560,-9.020941,4.517649,0.593760,-0.019547,1.607796
2025-12-23T16:10:26.407086,5.225924,-8.379664,4.570291,0.291993,0.064751,1.522275
2025-12-23T16:10:26.417086,4.651647,-8.121239,4.354937,-0.155159,0.098960,1.440419
2025-12-23T16:10:26.426086,4.158725,-9.083154,3.981656,-0.670729,0.083077,1.382998
2025-12-23T16:10:26.436086,3.986442,-10.571490,3.871586,-0.952949,0.025656,1.288925
2025-12-23T16:10:26.445086,3.885943,-12.088539,4.053441,-0.926071,-0.015882,1.156978
2025-12-23T16:10:26.455086,3.909872,-13.251451,4.235296,-0.675616,-0.034208,0.998153
2025-12-23T16:10:26.465086,3.905086,-13.787443,4.541577,-0.267558,-0.020769,0.823446
2025-12-23T16:10:26.474086,3.967299,-13.524233,4.670789,0.118507,0.015882,0.693942
2025-12-23T16:10:26.484086,3.981656,-12.686745,5.163711,0.287106,0.079412,0.594982
2025-12-23T16:10:26.494086,3.981656,-11.906685,5.560919,0.180816,0.145385,0.524122
2025-12-23T16:10:26.503086,3.857230,-11.514262,5.757131,-0.089186,0.189368,0.444709
2025-12-23T16:10:26.513086,3.862015,-11.442477,5.924628,-0.422718,0.239459,0.373849
2025-12-23T16:10:26.522086,3.704089,-12.093325,5.690132,-0.756251,0.294436,0.289550
2025-12-23T16:10:26.532086,3.704089,-13.284951,5.302494,-0.941954,0.331088,0.169820
2025-12-23T16:10:26.542086,3.617947,-14.534004,5.058426,-0.805120,0.337197,-0.017104
2025-12-23T16:10:26.551086,3.675375,-15.337992,4.613361,-0.423940,0.320093,-0.224798
2025-12-23T16:10:26.561086,3.723231,-15.816557,4.345365,0.029321,0.306654,-0.406836
2025-12-23T16:10:26.570086,3.766302,-15.739987,4.354937,0.493579,0.283441,-0.563217
2025-12-23T16:10:26.580086,3.756731,-14.768501,4.555934,0.905302,0.265115,-0.684168
2025-12-23T16:10:26.590086,3.646661,-13.016954,4.890929,1.076344,0.230907,-0.763581
2025-12-23T16:10:26.599086,3.531806,-11.107482,5.178068,0.963945,0.177150,-0.829554
2025-12-23T16:10:26.609086,3.507877,-9.389435,5.747559,0.610865,0.092851,-0.908967
2025-12-23T16:10:26.619086,3.699303,-8.350950,5.656632,0.040317,-0.001221,-0.962723
2025-12-23T16:10:26.628086,4.034298,-8.178667,5.364708,-0.532674,-0.073303,-1.058018
2025-12-23T16:10:26.638086,4.383651,-8.317451,4.742574,-0.856432,-0.085521,-1.211956
2025-12-23T16:10:26.647086,4.613361,-8.571090,3.948157,-0.943175,-0.032986,-1.380555
2025-12-23T16:10:26.657086,4.546362,-9.030512,3.077169,-0.917519,0.050090,-1.554040
2025-12-23T16:10:26.667086,4.431507,-9.915856,2.354537,-0.850324,0.074525,-1.717752
2025-12-23T16:10:26.676086,4.412364,-11.088339,1.727617,-0.780685,-0.009773,-1.848477
2025-12-23T16:10:26.686086,4.661218,-12.141181,1.215553,-0.652403,-0.149051,-1.960877
2025-12-23T16:10:26.695086,5.015356,-12.562318,1.588834,-0.378736,-0.294436,-2.072054
2025-12-23T16:10:26.705086,5.422136,-11.720045,2.158325,-0.029321,-0.394618,-2.169792
2025-12-23T16:10:26.715086,5.785845,-10.179067,3.273381,0.179594,-0.455705,-2.265087
2025-12-23T16:10:26.724086,5.982056,-8.863014,3.818944,0.105068,-0.470366,-2.321287
2025-12-23T16:10:26.734086,5.958128,-8.121239,3.775874,-0.100181,-0.427605,-2.378708
2025-12-23T16:10:26.744086,5.900700,-7.934599,3.263810,-0.256563,-0.309097,-2.476447
2025-12-23T16:10:26.753086,5.374279,-8.078169,2.522035,-0.267558,-0.155159,-2.598620
2025-12-23T16:10:26.763086,4.555934,-8.221738,1.732403,-0.079412,-0.053756,-2.763553
2025-12-23T16:10:26.772086,3.866801,-8.451449,1.115055,0.101403,-0.117286,-2.921156
2025-12-23T16:10:26.782086,3.756731,-8.465806,0.717846,0.197920,-0.401949,-3.032334
2025-12-23T16:10:26.792086,4.488935,-7.886743,1.282552,0.196698,-0.799011,-3.114190
2025-12-23T16:10:26.801086,5.742774,-7.121040,2.426322,-0.043982,-1.161865,-3.134959
2025-12-23T16:10:26.811086,7.460820,-6.479763,3.263810,-0.524122,-1.375668,-3.078760
2025-12-23T16:10:26.820086,9.097511,-6.068198,3.976871,-1.188743,-1.382998,-2.939482
2025-12-23T16:10:26.830086,10.255637,-6.742974,4.139583,-1.949881,-1.154535,-2.751336
2025-12-23T16:10:26.840086,10.394421,-8.432306,3.244667,-2.503325,-0.701273,-2.566855
2025-12-23T16:10:26.849086,9.221938,-10.279565,2.713460,-2.525316,-0.158824,-2.469116
2025-12-23T16:10:26.859086,7.307680,-11.203195,2.277967,-2.025628,0.232128,-2.467895
2025-12-23T16:10:26.869086,5.235495,-10.920842,1.775474,-1.225395,0.324980,-2.572963
2025-12-23T16:10:26.878086,3.771088,-9.456434,1.732403,-0.360410,0.106290,-2.759888
2025-12-23T16:10:26.888086,3.268595,-7.250252,1.383051,0.332310,-0.309097,-2.957808
2025-12-23T16:10:26.897086,3.809373,-4.603790,0.674775,0.714712,-0.753807,-3.156950
2025-12-23T16:10:26.907086,4.733003,-2.684746,0.602991,0.744033,-1.120326,-3.318219
2025-12-23T16:10:26.917086,6.120840,-1.665404,1.622333,0.394618,-1.408654,-3.395188
2025-12-23T16:10:26.926086,7.891528,-1.947757,2.565105,-0.353080,-1.655444,-3.362201
2025-12-23T16:10:26.936086,9.896714,-3.909872,2.612962,-1.285260,-1.776395,-3.214372
2025-12-23T16:10:26.945086,11.605189,-6.924828,2.187039,-1.842369,-1.633453,-3.050660
2025-12-23T16:10:26.955086,12.217752,-9.413364,2.129612,-1.725083,-1.222951,-2.912604
2025-12-23T16:10:26.965086,11.753544,-10.853843,2.239681,-1.086118,-0.733038,-2.813644
2025-12-23T16:10:26.974086,10.380064,-10.762916,2.000399,-0.206472,-0.356745,-2.758666
2025-12-23T16:10:26.984086,9.040083,-9.073583,1.469193,0.680503,-0.215024,-2.769662
2025-12-23T16:10:26.994086,8.030312,-6.838686,0.684347,1.317025,-0.273667,-2.816088
2025-12-23T16:10:27.003086,7.810172,-4.728217,0.684347,1.571145,-0.463035,-2.847853
2025-12-23T16:10:27.013086,8.154739,-3.053241,1.019342,1.485623,-0.649960,-2.856405
2025-12-23T16:10:27.022086,8.791230,-1.761117,1.330409,1.138652,-0.722042,-2.828305
2025-12-23T16:10:27.032086,9.293722,-0.861416,1.521835,0.591317,-0.674395,-2.748893
2025-12-23T16:10:27.042086,9.604789,-0.354137,1.689332,-0.086742,-0.563217,-2.642602
2025-12-23T16:10:27.051086,9.686145,-0.430708,1.751546,-0.821002,-0.469144,-2.522872
2025-12-23T16:10:27.061086,9.810572,-1.134197,1.837687,-1.550375,-0.434935,-2.388482
2025-12-23T16:10:27.070086,10.006784,-2.522035,1.569691,-2.128254,-0.466700,-2.244318
2025-12-23T16:10:27.080086,10.418349,-4.264009,1.732403,-2.375043,-0.497244,-2.133140
2025-12-23T16:10:27.090086,10.868200,-5.924628,1.651047,-2.224770,-0.436157,-2.037846
2025-12-23T16:10:27.099086,10.935199,-6.690331,1.306481,-1.728748,-0.259006,-1.960877
2025-12-23T16:10:27.109086,10.456634,-6.723831,1.660618,-1.043357,-0.026878,-1.924225
2025-12-23T16:10:27.119086,9.533005,-5.977270,1.832902,-0.364075,0.158824,-1.877799
2025-12-23T16:10:27.128086,8.518448,-4.934000,1.770688,0.178372,0.248011,-1.850921
2025-12-23T16:10:27.138086,7.661817,-3.799802,1.440479,0.541226,0.246789,-1.828930
2025-12-23T16:10:27.147086,7.125825,-2.742174,1.052841,0.759916,0.153938,-1.813047
2025-12-23T16:10:27.157086,6.905686,-1.641476,0.861416,0.847880,0.012217,-1.793499
2025-12-23T16:10:27.167086,7.130611,-0.870987,0.981057,0.755029,-0.162490,-1.722639
2025-12-23T16:10:27.176086,7.800601,-0.277567,1.459621,0.460592,-0.327423,-1.599244
2025-12-23T16:10:27.186086,8.690731,-0.253639,1.445264,0.007330,-0.420275,-1.429424
2025-12-23T16:10:27.195086,9.442077,-0.650847,1.301695,-0.425162,-0.362853,-1.255938
2025-12-23T16:10:27.205086,9.700502,-1.229910,1.454836,-0.697607,-0.151494,-1.103222
2025-12-23T16:10:27.215086,9.293722,-1.574477,1.540977,-0.833220,0.108733,-0.961501
2025-12-23T16:10:27.224086,8.417949,-1.895115,1.119840,-0.840550,0.289550,-0.866206
2025-12-23T16:10:27.234086,7.628318,-2.086541,0.937986,-0.753807,0.298102,-0.813672
2025-12-23T16:10:27.244086,7.207181,-2.067398,0.985842,-0.626747,0.155159,-0.789237
2025-12-23T16:10:27.253086,7.360322,-1.823330,0.870987,-0.487470,-0.056199,-0.774576
2025-12-23T16:10:27.263086,7.982456,-1.512263,0.870987,-0.375071,-0.254119,-0.747698
2025-12-23T16:10:27.272086,8.939585,-1.397408,0.880558,-0.313984,-0.371405,-0.700051
2025-12-23T16:10:27.282086,9.844072,-1.220339,0.952343,-0.261450,-0.366519,-0.645073
2025-12-23T16:10:27.292086,10.370493,-1.105484,0.832702,-0.204028,-0.212581,-0.580321
2025-12-23T16:10:27.301086,10.150353,-0.851844,0.679561,-0.155159,0.020769,-0.525343
2025-12-23T16:10:27.311086,9.499505,-0.540777,0.602991,-0.152716,0.208915,-0.496022
2025-12-23T16:10:27.320086,8.623732,-0.378065,0.593420,-0.223576,0.249232,-0.485026
2025-12-23T16:10:27.330086,8.102097,-0.363709,0.727418,-0.310319,0.133168,-0.477696
2025-12-23T16:10:27.340086,8.025527,-0.392422,0.765703,-0.393397,-0.084299,-0.465479
2025-12-23T16:10:27.349086,8.422735,-0.698704,0.937986,-0.463035,-0.293215,-0.439822
2025-12-23T16:10:27.359086,9.236295,-0.923629,1.105484,-0.483805,-0.425162,-0.392175
2025-12-23T16:10:27.369086,9.820143,-1.158126,1.067198,-0.461814,-0.404392,-0.316428
2025-12-23T16:10:27.378086,9.877571,-1.349551,1.143769,-0.395840,-0.197920,-0.229685
2025-12-23T16:10:27.388086,8.997012,-1.540977,1.201196,-0.265115,0.127059,-0.136833
2025-12-23T16:10:27.397086,7.570890,-1.555334,1.258624,-0.092851,0.410501,-0.057421
2025-12-23T16:10:27.407086,5.977270,-1.430907,1.512263,0.076969,0.543669,0.000000
2025-12-23T16:10:27.417086,4.613361,-1.258624,1.545763,0.256563,0.497244,0.029321
2025-12-23T16:10:27.426086,3.866801,-0.851844,1.502692,0.434935,0.298102,0.023212
2025-12-23T16:10:27.436086,3.943371,-0.248853,1.454836,0.541226,-0.008552,0.020769
2025-12-23T16:10:27.445086,5.010570,0.339780,1.392622,0.516791,-0.351858,0.031764
2025-12-23T16:10:27.455086,6.479763,0.689132,1.220339,0.367740,-0.576656,0.069638
2025-12-23T16:10:27.465086,8.039883,0.641276,1.172483,0.174707,-0.601091,0.113620
2025-12-23T16:10:27.474086,9.111868,0.602991,0.937986,-0.004886,-0.417831,0.172263
2025-12-23T16:10:27.484086,9.485148,0.435493,0.588634,-0.168598,-0.117286,0.245567
2025-12-23T16:10:27.494086,9.288937,0.387637,0.497707,-0.285884,0.163711,0.307876
2025-12-23T16:10:27.503086,8.657232,0.449850,0.244067,-0.378736,0.326201,0.351858
2025-12-23T16:10:27.513086,8.130811,0.531206,-0.043070,-0.492357,0.318871,0.384845
2025-12-23T16:10:27.522086,8.154739,0.535992,0.000000,-0.590095,0.138055,0.384845
2025-12-23T16:10:27.532086,8.810372,0.526420,0.200997,-0.667064,-0.120951,0.379958
2025-12-23T16:10:27.542086,9.968498,0.344566,0.205782,-0.758694,-0.337197,0.375071
2025-12-23T16:10:27.551086,11.294122,0.047856,0.277567,-0.766024,-0.414166,0.361632
2025-12-23T16:10:27.561086,12.246466,-0.229710,0.373280,-0.684168,-0.348193,0.340862
2025-12-23T16:10:27.570086,12.748958,-0.502492,0.167497,-0.564439,-0.156381,0.335975
2025-12-23T16:10:27.580086,12.390035,-0.708275,0.258424,-0.372627,0.097738,0.323758
2025-12-23T16:10:27.590086,11.581261,-0.617348,0.641276,-0.116064,0.318871,0.305432
2025-12-23T16:10:27.599086,10.380064,-0.291924,0.607776,0.103847,0.431270,0.294436
2025-12-23T16:10:27.609086,9.437292,-0.014356,0.669990,0.272445,0.411723,0.271224
2025-12-23T16:10:27.619086,8.772087,0.464207,0.756131,0.399505,0.287106,0.251676
2025-12-23T16:10:27.628086,8.571090,0.923629,0.899701,0.410501,0.129503,0.245567
2025-12-23T16:10:27.638086,8.628518,1.172483,1.095912,0.334754,0.007330,0.241902
2025-12-23T16:10:27.647086,8.819944,1.263410,1.229910,0.227241,-0.048869,0.240680
2025-12-23T16:10:27.657086,8.987441,1.177268,1.167697,0.090408,-0.056199,0.234572
2025-12-23T16:10:27.667086,9.164510,0.914058,1.143769,-0.037873,-0.046425,0.228463
2025-12-23T16:10:27.676086,9.317651,0.574277,1.134197,-0.111177,-0.037873,0.216246
2025-12-23T16:10:27.686086,9.456434,0.378065,1.024128,-0.130725,-0.030543,0.191811
2025-12-23T16:10:27.695086,9.671788,0.205782,1.009771,-0.127059,-0.031764,0.160046
2025-12-23T16:10:27.705086,9.992427,0.157926,0.784845,-0.117286,-0.040317,0.136833
2025-12-23T16:10:27.715086,10.265208,0.191425,0.708275,-0.151494,-0.030543,0.129503
2025-12-23T16:10:27.724086,10.461420,0.177068,0.684347,-0.212581,0.003665,0.130725
2025-12-23T16:10:27.734086,10.518848,0.162711,0.650847,-0.287106,0.064751,0.140498
2025-12-23T16:10:27.744086,10.399207,0.066999,0.775274,-0.384845,0.120951,0.156381
2025-12-23T16:10:27.753086,10.183852,-0.162711,0.847059,-0.471587,0.134390,0.168598
2025-12-23T16:10:27.763086,9.958927,-0.588634,0.937986,-0.494800,0.117286,0.166155
2025-12-23T16:10:27.772086,9.801001,-0.923629,0.933200,-0.447153,0.087964,0.150272
2025-12-23T16:10:27.782086,9.657432,-1.225125,1.028913,-0.326201,0.059864,0.124616
2025-12-23T16:10:27.792086,9.504291,-1.445264,1.134197,-0.147829,0.030543,0.092851
2025-12-23T16:10:27.801086,9.509077,-1.339980,1.349551,0.042760,-0.001221,0.063529
2025-12-23T16:10:27.811086,9.418149,-1.182054,1.406979,0.206472,-0.018325,0.041538
2025-12-23T16:10:27.820086,9.394221,-0.933200,1.402194,0.318871,-0.002443,0.036651
2025-12-23T16:10:27.830086,9.288937,-0.780060,1.373480,0.370184,0.037873,0.040317
2025-12-23T16:10:27.840086,9.135796,-0.756131,1.359123,0.376292,0.080634,0.051312
2025-12-23T16:10:27.849086,9.011369,-0.765703,1.483550,0.354301,0.109955,0.067195
2025-12-23T16:10:27.859086,8.819944,-0.765703,1.622333,0.312762,0.116064,0.096516
2025-12-23T16:10:27.869086,8.748159,-0.851844,1.679761,0.259006,0.097738,0.114842
2025-12-23T16:10:27.878086,8.752945,-1.057627,1.636690,0.188146,0.064751,0.144164
2025-12-23T16:10:27.888086,8.819944,-1.450050,1.627119,0.140498,0.036651,0.172263
2025-12-23T16:10:27.897086,8.891728,-1.799402,1.450050,0.138055,0.023212,0.200363
2025-12-23T16:10:27.907086,8.906085,-2.048256,1.301695,0.160046,0.010995,0.232128
2025-12-23T16:10:27.917086,8.901300,-2.254038,1.349551,0.208915,-0.004886,0.270002
2025-12-23T16:10:27.926086,8.839086,-2.330609,1.311266,0.268780,-0.021991,0.318871
2025-12-23T16:10:27.936086,8.843872,-2.368894,1.215553,0.312762,-0.013439,0.382401
2025-12-23T16:10:27.945086,8.662017,-2.402393,1.229910,0.350636,0.019547,0.455705
2025-12-23T16:10:27.955086,8.403592,-2.445464,1.134197,0.365297,0.081855,0.554665
2025-12-23T16:10:27.965086,7.996813,-2.498106,1.138983,0.362853,0.169820,0.670729
2025-12-23T16:10:27.974086,7.350751,-2.474178,1.239482,0.346971,0.244346,0.790459
2025-12-23T16:10:27.984086,6.685546,-2.469392,1.258624,0.311541,0.276111,0.915075
2025-12-23T16:10:27.994086,6.163911,-2.517249,1.426122,0.279776,0.234572,1.021366
2025-12-23T16:10:28.003086,5.876772,-2.656033,1.550549,0.268780,0.146607,1.119104
2025-12-23T16:10:28.013086,5.848058,-2.924029,1.718046,0.298102,0.065973,1.207069
2025-12-23T16:10:28.022086,5.953342,-3.139383,1.770688,0.393397,0.041538,1.286481
2025-12-23T16:10:28.032086,6.116054,-3.306880,1.603191,0.520457,0.083077,1.369559
2025-12-23T16:10:28.042086,6.312266,-3.393022,1.440479,0.651182,0.162490,1.462411
2025-12-23T16:10:28.051086,6.340979,-3.345165,1.062413,0.769690,0.251676,1.567479
2025-12-23T16:10:28.061086,6.278766,-3.182454,0.899701,0.838106,0.328645,1.693318
2025-12-23T16:10:28.070086,6.278766,-2.861815,1.153340,0.828333,0.361632,1.827708
2025-12-23T16:10:28.080086,6.460621,-2.584248,1.100698,0.701273,0.334754,1.970650
2025-12-23T16:10:28.090086,6.781259,-2.526820,1.110269,0.489913,0.277332,2.089158
2025-12-23T16:10:28.099086,7.259823,-2.636890,1.100698,0.227241,0.196698,2.184453
2025-12-23T16:10:28.109086,7.810172,-3.005385,1.210768,-0.034208,0.109955,2.263866
2025-12-23T16:10:28.119086,8.413164,-3.613162,1.359123,-0.237015,0.067195,2.317622
2025-12-23T16:10:28.128086,8.920442,-4.350151,1.560120,-0.321315,0.100181,2.372600
2025-12-23T16:10:28.138086,9.035298,-4.929214,1.574477,-0.284663,0.197920,2.432464
2025-12-23T16:10:28.147086,8.815158,-5.450849,1.311266,-0.140498,0.338419,2.491107
2025-12-23T16:10:28.157086,8.255237,-5.714060,0.971485,0.090408,0.485026,2.554637
2025-12-23T16:10:28.167086,7.618747,-5.819344,0.818345,0.359188,0.568104,2.630385
2025-12-23T16:10:28.176086,6.996613,-5.723631,0.784845,0.615752,0.565661,2.697580
2025-12-23T16:10:28.186086,6.451049,-5.455635,0.674775,0.821002,0.487470,2.756223
2025-12-23T16:10:28.195086,6.489334,-5.082355,0.641276,0.945619,0.356745,2.798983
2025-12-23T16:10:28.205086,6.757331,-4.699503,0.976271,0.973718,0.205250,2.819753
2025-12-23T16:10:28.215086,7.379464,-4.326223,1.387837,0.885754,0.076969,2.829527
2025-12-23T16:10:28.224086,8.097311,-4.158725,1.593619,0.706160,0.013439,2.819753
2025-12-23T16:10:28.234086,8.714659,-4.225724,1.866401,0.522900,0.067195,2.796540
2025-12-23T16:10:28.244086,8.843872,-4.450650,2.005185,0.366519,0.227241,2.768440
2025-12-23T16:10:28.253086,8.542376,-4.886143,1.866401,0.260228,0.453261,2.745227
2025-12-23T16:10:28.263086,7.886743,-5.407779,1.775474,0.235793,0.662177,2.713462
2025-12-23T16:10:28.272086,6.967899,-5.929414,1.564905,0.276111,0.785572,2.696358
2025-12-23T16:10:28.282086,6.278766,-6.264409,1.282552,0.443488,0.792902,2.654819
2025-12-23T16:10:28.292086,5.814558,-6.307480,1.363908,0.680503,0.713490,2.607172
2025-12-23T16:10:28.301086,5.828915,-6.096911,1.670190,0.847880,0.561995,2.581515
2025-12-23T16:10:28.311086,6.230910,-5.891129,2.029113,0.902858,0.386066,2.559524
2025-12-23T16:10:28.320086,7.010970,-5.685346,2.526820,0.821002,0.238237,2.543642
2025-12-23T16:10:28.330086,7.905885,-5.489135,2.861815,0.632856,0.162490,2.552194
2025-12-23T16:10:28.340086,8.609375,-5.307280,2.775674,0.390953,0.204028,2.572963
2025-12-23T16:10:28.349086,8.757730,-5.450849,2.450250,0.097738,0.353080,2.612059
2025-12-23T16:10:28.359086,8.327022,-5.919843,2.541177,-0.107512,0.527787,2.629163
2025-12-23T16:10:28.369086,7.566105,-6.589833,2.780459,-0.204028,0.659734,2.627941
2025-12-23T16:10:28.378086,6.762116,-7.551748,2.411965,-0.223576,0.698829,2.613280
2025-12-23T16:10:28.388086,6.197410,-8.752945,1.875972,-0.138055,0.652403,2.583959
2025-12-23T16:10:28.397086,5.838487,-9.863214,1.631905,0.123394,0.518013,2.527759
2025-12-23T16:10:28.407086,6.159125,-10.399207,1.923829,0.500909,0.306654,2.453234
2025-12-23T16:10:28.417086,6.819544,-10.174281,2.134397,0.905302,0.127059,2.376265
2025-12-23T16:10:28.426086,7.551748,-8.963513,2.766102,1.163087,0.069638,2.324952
2025-12-23T16:10:28.436086,7.992027,-7.551748,3.120240,1.076344,0.127059,2.346943
2025-12-23T16:10:28.445086,7.992027,-6.326622,2.995813,0.648738,0.260228,2.398256
2025-12-23T16:10:28.455086,7.546962,-5.919843,3.244667,0.014660,0.409279,2.450790
2025-12-23T16:10:28.465086,6.719045,-6.254838,3.517449,-0.634077,0.494800,2.484999
2025-12-23T16:10:28.474086,5.943771,-7.393821,3.632304,-1.108109,0.460592,2.463008
2025-12-23T16:10:28.484086,5.594419,-9.255437,4.024727,-1.233947,0.345749,2.388482
2025-12-23T16:10:28.494086,5.637490,-11.251051,4.197010,-1.001818,0.204028,2.294409
2025-12-23T16:10:28.503086,6.111268,-12.873385,3.718446,-0.513126,0.106290,2.219883
2025-12-23T16:10:28.513086,6.594619,-13.868799,3.129811,0.156381,0.094073,2.158797
2025-12-23T16:10:28.522086,6.896114,-13.840085,2.569891,0.858876,0.152716,2.107484
2025-12-23T16:10:28.532086,6.886543,-12.701102,2.603390,1.420872,0.261450,2.029293
2025-12-23T16:10:28.542086,6.474977,-10.896914,3.215953,1.781282,0.382401,1.886351
2025-12-23T16:10:28.551086,5.781059,-8.853443,3.718446,1.792278,0.483805,1.733635
2025-12-23T16:10:28.561086,5.034498,-7.379464,4.197010,1.408654,0.504574,1.585805
2025-12-23T16:10:28.570086,4.421936,-6.652046,4.776073,0.806341,0.450818,1.414763
2025-12-23T16:10:28.580086,4.000799,-7.030112,4.589433,0.001221,0.372627,1.295034
2025-12-23T16:10:28.590086,3.761517,-8.906085,3.862015,-0.829554,0.276111,1.231504
2025-12-23T16:10:28.599086,3.689732,-11.169695,4.139583,-1.192408,0.183259,1.122770
2025-12-23T16:10:28.609086,3.718446,-12.849457,4.273581,-1.069013,0.129503,1.015257
2025-12-23T16:10:28.619086,3.632304,-13.935798,3.852444,-0.757472,0.150272,0.960279
2025-12-23T16:10:28.628086,3.345165,-14.333007,3.890729,-0.317649,0.200363,0.885754
2025-12-23T16:10:28.638086,3.024527,-13.835300,3.952942,0.189368,0.222354,0.767246
2025-12-23T16:10:28.647086,2.761317,-12.748958,3.981656,0.502131,0.199142,0.636521
2025-12-23T16:10:28.657086,2.689532,-11.949756,3.972085,0.515570,0.145385,0.489913
2025-12-23T16:10:28.667086,2.703889,-11.633903,4.048655,0.366519,0.074525,0.337197
2025-12-23T16:10:28.676086,2.924029,-11.576475,4.436293,0.183259,0.019547,0.166155
2025-12-23T16:10:28.686086,3.220739,-11.619546,4.680361,0.013439,-0.007330,0.006108
2025-12-23T16:10:28.695086,3.393022,-11.772687,4.943571,-0.153938,0.003665,-0.119729
2025-12-23T16:10:28.705086,3.412165,-12.241680,5.082355,-0.337197,0.035430,-0.237015
2025-12-23T16:10:28.715086,3.469592,-12.796815,5.350351,-0.441044,0.057421,-0.344527
2025-12-23T16:10:28.724086,3.589233,-13.308879,5.340780,-0.426383,0.078190,-0.470366
2025-12-23T16:10:28.734086,3.574876,-13.792229,5.254638,-0.356745,0.111177,-0.583987
2025-12-23T16:10:28.744086,3.608376,-14.031511,4.847858,-0.204028,0.141720,-0.685390
2025-12-23T16:10:28.753086,3.641875,-14.021940,4.622933,0.012217,0.160046,-0.783129
2025-12-23T16:10:28.763086,3.622733,-13.552947,4.589433,0.201585,0.162490,-0.864984
2025-12-23T16:10:28.772086,3.493520,-12.772887,4.642075,0.339641,0.163711,-0.932180
2025-12-23T16:10:28.782086,3.268595,-11.629117,4.656432,0.452040,0.164933,-1.010370
2025-12-23T16:10:28.792086,3.043670,-10.466206,4.436293,0.475253,0.157603,-1.084896
2025-12-23T16:10:28.801086,2.761317,-9.403792,4.331008,0.405614,0.108733,-1.181413
2025-12-23T16:10:28.811086,2.565105,-8.705088,4.661218,0.290771,0.004886,-1.337794
2025-12-23T16:10:28.820086,2.727817,-8.537591,4.871786,0.034208,-0.173485,-1.484402
2025-12-23T16:10:28.830086,3.498306,-9.284151,4.532006,-0.300545,-0.395840,-1.604131
2025-12-23T16:10:28.840086,4.603790,-10.399207,4.139583,-0.499687,-0.558330,-1.736078
2025-12-23T16:10:28.849086,5.742774,-11.399406,3.766302,-0.500909,-0.598647,-1.841147
2025-12-23T16:10:28.859086,6.494120,-11.810972,3.570091,-0.300545,-0.513126,-1.923003
2025-12-23T16:10:28.869086,6.613761,-11.337193,3.306880,0.052534,-0.335975,-2.003637
2025-12-23T16:10:28.878086,6.087340,-10.035497,3.235096,0.370184,-0.168598,-2.070832
2025-12-23T16:10:28.888086,5.302494,-8.475377,3.034099,0.488692,-0.086742,-2.108706
2025-12-23T16:10:28.897086,4.455435,-7.034898,2.684746,0.376292,-0.141720,-2.160019
2025-12-23T16:10:28.907086,3.833301,-6.020341,2.732603,0.089186,-0.323758,-2.239431
2025-12-23T16:10:28.917086,3.847658,-5.513063,3.838087,-0.237015,-0.602312,-2.387260
2025-12-23T16:10:28.926086,4.637290,-5.781059,4.273581,-0.680503,-0.906523,-2.489886
2025-12-23T16:10:28.936086,6.206981,-7.058826,3.574876,-1.161865,-1.131322,-2.522872
2025-12-23T16:10:28.945086,7.858029,-8.633303,2.699103,-1.351233,-1.174082,-2.579072
2025-12-23T16:10:28.955086,9.001798,-9.547362,1.813759,-1.202182,-1.018923,-2.607172
2025-12-23T16:10:28.965086,9.279366,-9.767501,1.378265,-0.928514,-0.759916,-2.571742
2025-12-23T16:10:28.974086,8.853443,-9.193224,1.622333,-0.648738,-0.514348,-2.535090
2025-12-23T16:10:28.984086,7.910671,-8.097311,1.842473,-0.552222,-0.359188,-2.467895
2025-12-23T16:10:28.994086,6.857829,-7.269395,1.785045,-0.741590,-0.367740,-2.394591
2025-12-23T16:10:29.003086,6.144768,-7.140182,2.062613,-1.006705,-0.526565,-2.377487
2025-12-23T16:10:29.013086,5.953342,-7.618747,3.081955,-1.114217,-0.752585,-2.428799
2025-12-23T16:10:29.022086,6.503691,-8.322237,3.842873,-0.994488,-0.940732,-2.511877
2025-12-23T16:10:29.032086,7.398607,-8.752945,3.924229,-0.594982,-0.968832,-2.638937
2025-12-23T16:10:29.042086,8.140382,-8.360522,3.014956,0.012217,-0.775798,-2.784323
2025-12-23T16:10:29.051086,8.116454,-7.197610,2.086541,0.641408,-0.439822,-2.944369
2025-12-23T16:10:29.061086,7.494320,-5.895914,1.674975,1.029918,-0.169820,-3.051882
2025-12-23T16:10:29.070086,6.996613,-4.838287,2.105683,1.022588,-0.118507,-3.094642
2025-12-23T16:10:29.080086,7.063612,-4.302295,2.962314,0.703716,-0.272445,-3.092199
2025-12-23T16:10:29.090086,7.910671,-4.029513,3.718446,0.156381,-0.510683,-3.045773
2025-12-23T16:10:29.099086,9.231509,-4.479363,3.742374,-0.592539,-0.674395,-2.896722
2025-12-23T16:10:29.109086,10.614561,-5.747559,3.349951,-1.282816,-0.642630,-2.703688
2025-12-23T16:10:29.119086,11.351550,-7.365107,2.909672,-1.644448,-0.399505,-2.515542
2025-12-23T16:10:29.128086,11.054840,-8.614161,2.435893,-1.624901,-0.047647,-2.356717
2025-12-23T16:10:29.138086,9.877571,-8.834301,1.741974,-1.304807,0.262671,-2.265087
2025-12-23T16:10:29.147086,8.331808,-8.092526,1.387837,-0.842993,0.354301,-2.244318
2025-12-23T16:10:29.157086,7.202396,-6.819544,1.182054,-0.464257,0.185702,-2.268753
2025-12-23T16:10:29.167086,6.757331,-5.613561,0.875773,-0.248011,-0.133168,-2.332282
2025-12-23T16:10:29.176086,7.073183,-4.575076,0.803988,-0.152716,-0.459370,-2.409251
2025-12-23T16:10:29.186086,7.834101,-4.010370,0.641276,-0.125838,-0.691499,-2.517985
2025-12-23T16:10:29.195086,8.551947,-3.804587,0.196211,-0.101403,-0.772133,-2.582737
2025-12-23T16:10:29.205086,9.355936,-3.943371,1.100698,-0.059864,-0.742811,-2.625498
2025-12-23T16:10:29.215086,9.810572,-4.130011,1.785045,-0.054977,-0.653625,-2.616946
2025-12-23T16:10:29.224086,10.116853,-4.292723,2.009970,-0.050090,-0.511904,-2.591289
2025-12-23T16:10:29.234086,10.040283,-4.144368,2.115255,-0.078190,-0.364075,-2.527759
2025-12-23T16:10:29.244086,9.872786,-4.091726,2.177468,-0.139277,-0.244346,-2.436130
2025-12-23T16:10:29.253086,9.365507,-3.809373,2.043470,-0.194255,-0.151494,-2.324952
2025-12-23T16:10:29.263086,8.949156,-3.445664,1.765903,-0.283441,-0.100181,-2.218662
2025-12-23T16:10:29.272086,8.365307,-3.182454,1.435693,-0.395840,-0.090408,-2.129475
2025-12-23T16:10:29.282086,7.948956,-2.813959,1.249053,-0.471587,-0.107512,-2.081828
2025-12-23T16:10:29.292086,7.585247,-2.464607,0.765703,-0.543669,-0.169820,-2.037846
2025-12-23T16:10:29.301086,7.508677,-2.435893,0.430708,-0.624304,-0.313984,-2.010967
2025-12-23T16:10:29.311086,7.814958,-2.861815,0.669990,-0.671951,-0.502131,-1.976759
2025-12-23T16:10:29.320086,8.504091,-3.397808,0.937986,-0.613308,-0.625525,-1.920559
2025-12-23T16:10:29.330086,9.040083,-3.675375,1.095912,-0.426383,-0.604756,-1.837482
2025-12-23T16:10:29.340086,9.121439,-3.455235,1.296909,-0.167377,-0.454483,-1.761734
2025-12-23T16:10:29.349086,8.843872,-3.182454,1.339980,0.036651,-0.279776,-1.666440
2025-12-23T16:10:29.359086,8.317451,-2.708675,1.406979,0.163711,-0.188146,-1.566258
2025-12-23T16:10:29.369086,7.886743,-2.210968,1.478764,0.217467,-0.199142,-1.478293
2025-12-23T16:10:29.378086,7.609175,-2.005185,1.263410,0.164933,-0.282219,-1.385442
2025-12-23T16:10:29.388086,7.805387,-2.129612,0.842273,0.090408,-0.404392,-1.307251
2025-12-23T16:10:29.397086,8.250452,-2.220539,0.574277,0.129503,-0.530230,-1.260825
2025-12-23T16:10:29.407086,8.819944,-2.062613,0.425922,0.229685,-0.632856,-1.226617
2025-12-23T16:10:29.417086,9.461220,-1.995614,0.200997,0.315206,-0.663399,-1.188743
2025-12-23T16:10:29.426086,10.021141,-1.828116,0.239282,0.423940,-0.575434,-1.138652
2025-12-23T16:10:29.436086,9.930213,-1.655833,0.306281,0.504574,-0.382401,-1.064127
2025-12-23T16:10:29.445086,9.221938,-1.263410,0.550349,0.548556,-0.147829,-0.973718
2025-12-23T16:10:29.455086,8.126025,-1.043270,1.148554,0.574213,0.021991,-0.893084
2025-12-23T16:10:29.465086,7.125825,-0.684347,1.526620,0.551000,0.081855,-0.797789
2025-12-23T16:10:29.474086,6.340979,-0.473778,1.555334,0.443488,0.074525,-0.687834
2025-12-23T16:10:29.484086,5.690132,-0.397208,1.459621,0.316428,0.058643,-0.585208
2025-12-23T16:10:29.494086,5.187639,-0.344566,1.378265,0.199142,0.039095,-0.493579
2025-12-23T16:10:29.503086,4.871786,-0.440279,1.210768,0.058643,-0.003665,-0.406836
2025-12-23T16:10:29.513086,4.852644,-0.665204,1.225125,-0.063529,-0.090408,-0.333532
2025-12-23T16:10:29.522086,5.063212,-1.014556,1.253839,-0.135612,-0.200363,-0.278554
2025-12-23T16:10:29.532086,5.747559,-1.239482,1.258624,-0.156381,-0.294436,-0.234572
2025-12-23T16:10:29.542086,6.513263,-1.359123,1.215553,-0.130725,-0.328645,-0.196698
2025-12-23T16:10:29.551086,7.216752,-1.421336,1.182054,-0.086742,-0.287106,-0.160046
2025-12-23T16:10:29.561086,7.786244,-1.335195,1.205982,-0.068416,-0.177150,-0.101403
2025-12-23T16:10:29.570086,7.992027,-1.287338,1.148554,-0.098960,-0.048869,-0.031764
2025-12-23T16:10:29.580086,7.939385,-1.282552,0.933200,-0.152716,0.053756,0.032986
2025-12-23T16:10:29.590086,7.838886,-1.268195,0.679561,-0.217467,0.080634,0.079412
2025-12-23T16:10:29.599086,7.881957,-1.354337,0.655633,-0.268780,0.002443,0.112399
2025-12-23T16:10:29.609086,8.255237,-1.478764,0.875773,-0.280997,-0.152716,0.117286
2025-12-23T16:10:29.619086,9.126225,-1.674975,1.000199,-0.246789,-0.298102,0.118507
2025-12-23T16:10:29.628086,10.193424,-1.694118,0.808774,-0.160046,-0.356745,0.120951
2025-12-23T16:10:29.638086,11.040483,-1.478764,0.540777,-0.036651,-0.295658,0.119729
2025-12-23T16:10:29.647086,11.590832,-1.129412,0.445065,0.084299,-0.138055,0.139277
2025-12-23T16:10:29.657086,11.581261,-0.483350,0.344566,0.140498,0.040317,0.180816
2025-12-23T16:10:29.667086,11.121839,0.023928,0.392422,0.101403,0.197920,0.239459
2025-12-23T16:10:29.676086,10.509276,0.497707,0.540777,0.020769,0.296880,0.300545
2025-12-23T16:10:29.686086,9.824929,0.698704,0.784845,-0.101403,0.301767,0.366519
2025-12-23T16:10:29.695086,9.365507,0.722632,0.842273,-0.257785,0.207694,0.428827
2025-12-23T16:10:29.705086,9.241080,0.473778,0.937986,-0.381179,0.072082,0.471587
2025-12-23T16:10:29.715086,9.451649,0.157926,0.942772,-0.411723,-0.054977,0.488692
2025-12-23T16:10:29.724086,9.829715,-0.009571,0.918843,-0.355523,-0.129503,0.483805
2025-12-23T16:10:29.734086,10.040283,-0.066999,0.976271,-0.239459,-0.139277,0.458148
2025-12-23T16:10:29.744086,10.217352,-0.019142,1.014556,-0.089186,-0.081855,0.416610
2025-12-23T16:10:29.753086,10.083354,0.177068,1.095912,0.052534,0.010995,0.366519
2025-12-23T16:10:29.763086,9.863214,0.397208,1.004985,0.145385,0.087964,0.318871
2025-12-23T16:10:29.772086,9.528219,0.636490,0.914058,0.201585,0.107512,0.268780
2025-12-23T16:10:29.782086,9.461220,0.851844,0.914058,0.226020,0.070860,0.227241
2025-12-23T16:10:29.792086,9.537790,1.105484,1.105484,0.178372,0.001221,0.205250
2025-12-23T16:10:29.801086,9.791430,1.225125,1.138983,0.068416,-0.047647,0.196698
2025-12-23T16:10:29.811086,10.054640,1.105484,1.129412,-0.041538,-0.042760,0.183259
2025-12-23T16:10:29.820086,10.145567,0.918843,1.095912,-0.133168,0.019547,0.169820
2025-12-23T16:10:29.830086,9.997212,0.693918,0.923629,-0.197920,0.089186,0.151494
2025-12-23T16:10:29.840086,9.753144,0.598205,0.875773,-0.218689,0.146607,0.122173
2025-12-23T16:10:29.849086,9.399007,0.421136,0.870987,-0.218689,0.172263,0.081855
2025-12-23T16:10:29.859086,9.164510,0.253639,0.909272,-0.217467,0.161268,0.048869
2025-12-23T16:10:29.869086,9.035298,-0.014356,0.995414,-0.205250,0.123394,0.017104
2025-12-23T16:10:29.878086,8.968299,-0.253639,1.119840,-0.171042,0.079412,-0.006108
2025-12-23T16:10:29.888086,8.987441,-0.550349,1.205982,-0.101403,0.054977,-0.024434
2025-12-23T16:10:29.897086,9.040083,-0.827916,1.325623,0.002443,0.045204,-0.039095
2025-12-23T16:10:29.907086,9.064012,-0.966700,1.411765,0.122173,0.039095,-0.047647
2025-12-23T16:10:29.917086,9.044869,-1.009771,1.627119,0.235793,0.031764,-0.046425
2025-12-23T16:10:29.926086,9.107082,-1.052841,1.674975,0.323758,0.040317,-0.028099
2025-12-23T16:10:29.936086,9.198010,-1.091127,1.497906,0.395840,0.051312,-0.008552
2025-12-23T16:10:29.945086,9.346365,-1.024128,1.296909,0.450818,0.083077,0.020769
2025-12-23T16:10:29.955086,9.236295,-0.803988,1.009771,0.469144,0.146607,0.065973
2025-12-23T16:10:29.965086,9.059226,-0.435493,0.981057,0.415388,0.223576,0.130725
2025-12-23T16:10:29.974086,8.685946,-0.267996,1.038485,0.270002,0.278554,0.218689
2025-12-23T16:10:29.984086,8.221738,-0.267996,1.009771,0.061086,0.301767,0.318871
2025-12-23T16:10:29.994086,7.843672,-0.579063,1.028913,-0.138055,0.309097,0.409279
2025-12-23T16:10:30.003086,7.494320,-1.138983,1.196411,-0.261450,0.296880,0.483805
2025-12-23T16:10:30.013086,7.278966,-1.703689,1.306481,-0.274889,0.248011,0.547335
2025-12-23T16:10:30.022086,7.374679,-2.105683,1.397408,-0.180816,0.150272,0.587652
2025-12-23T16:10:30.032086,7.676174,-2.330609,1.416550,0.002443,0.084299,0.616973
2025-12-23T16:10:30.042086,7.996813,-2.354537,1.177268,0.210137,0.141720,0.659734
2025-12-23T16:10:30.051086,7.910671,-2.201396,1.158126,0.376292,0.312762,0.723264
2025-12-23T16:10:30.061086,7.365107,-1.990828,0.971485,0.461814,0.502131,0.808785
2025-12-23T16:10:30.070086,6.656832,-1.818545,0.914058,0.469144,0.608421,0.912632
2025-12-23T16:10:30.080086,6.029912,-1.828116,1.048056,0.411723,0.590095,1.022588
2025-12-23T16:10:30.090086,5.670989,-1.818545,1.038485,0.318871,0.459370,1.141096
2025-12-23T16:10:30.099086,5.910271,-1.962114,0.952343,0.202807,0.259006,1.246164
2025-12-23T16:10:30.109086,6.757331,-2.091326,1.210768,0.106290,0.059864,1.335351
2025-12-23T16:10:30.119086,7.786244,-2.163111,1.105484,0.021991,-0.084299,1.409876
2025-12-23T16:10:30.128086,8.839086,-2.234896,0.622133,-0.056199,-0.103847,1.485623
2025-12-23T16:10:30.138086,9.355936,-2.411965,0.263210,-0.097738,0.024434,1.563814
2025-12-23T16:10:30.147086,9.284151,-2.541177,0.014356,-0.128281,0.230907,1.657887
2025-12-23T16:10:30.157086,8.681160,-3.053241,0.315852,-0.163711,0.414166,1.753182
2025-12-23T16:10:30.167086,8.035098,-3.718446,0.957129,-0.178372,0.483805,1.844812
2025-12-23T16:10:30.176086,7.546962,-4.388436,1.469193,-0.111177,0.423940,1.943772
2025-12-23T16:10:30.186086,7.412964,-4.713860,1.550549,0.051312,0.310319,2.012189
2025-12-23T16:10:30.195086,7.590033,-4.651647,1.665404,0.279776,0.210137,2.046398
2025-12-23T16:10:30.205086,7.862815,-4.436293,1.531406,0.471587,0.167377,2.073276
2025-12-23T16:10:30.215086,7.963313,-4.345365,1.339980,0.560774,0.201585,2.109928
2025-12-23T16:10:30.224086,7.905885,-4.321437,1.339980,0.601091,0.265115,2.161240
2025-12-23T16:10:30.234086,7.767102,-4.278366,1.129412,0.592539,0.326201,2.235766
2025-12-23T16:10:30.244086,7.484749,-4.359722,0.909272,0.530230,0.356745,2.316400
2025-12-23T16:10:30.253086,7.278966,-4.522434,0.933200,0.449596,0.340862,2.405586
2025-12-23T16:10:30.263086,7.259823,-4.666004,0.837487,0.403170,0.283441,2.484999
2025-12-23T16:10:30.272086,7.302894,-4.843072,0.961914,0.366519,0.219911,2.558303
2025-12-23T16:10:30.282086,7.590033,-5.087140,1.134197,0.318871,0.160046,2.621833
2025-12-23T16:10:30.292086,7.920242,-5.493920,1.282552,0.285884,0.098960,2.658484
2025-12-23T16:10:30.301086,8.355736,-5.915057,1.378265,0.313984,0.056199,2.676810
2025-12-23T16:10:30.311086,8.748159,-6.283552,1.526620,0.406836,0.062308,2.674367
2025-12-23T16:10:30.320086,8.987441,-6.484549,1.517049,0.551000,0.117286,2.684141
2025-12-23T16:10:30.330086,9.073583,-6.350551,1.402194,0.739146,0.218689,2.709797
2025-12-23T16:10:30.340086,8.805587,-5.737988,1.115055,0.889419,0.335975,2.757445
2025-12-23T16:10:30.349086,8.394021,-4.876572,1.095912,0.868650,0.408057,2.829527
2025-12-23T16:10:30.359086,7.972884,-4.350151,1.258624,0.659734,0.406836,2.912604
2025-12-23T16:10:30.369086,7.566105,-4.144368,1.588834,0.346971,0.353080,2.989573
2025-12-23T16:10:30.378086,7.465606,-4.417150,2.124826,0.034208,0.267558,3.027447
2025-12-23T16:10:30.388086,7.618747,-5.297709,2.684746,-0.196698,0.141720,3.010343
2025-12-23T16:10:30.397086,8.097311,-6.498906,2.909672,-0.241902,0.040317,2.962695
2025-12-23T16:10:30.407086,8.614161,-7.556533,3.024527,-0.039095,0.080634,2.888170
2025-12-23T16:10:30.417086,8.829515,-8.130811,2.847458,0.384845,0.266337,2.829527
2025-12-23T16:10:30.426086,8.614161,-8.006384,3.101098,0.902858,0.496022,2.789210
2025-12-23T16:10:30.436086,8.097311,-7.154539,3.120240,1.296255,0.674395,2.787988
2025-12-23T16:10:30.445086,7.585247,-5.915057,2.842673,1.440419,0.756251,2.819753
2025-12-23T16:10:30.455086,7.211967,-4.637290,2.813959,1.280373,0.753807,2.850296
2025-12-23T16:10:30.465086,6.939185,-3.713660,2.818745,0.861319,0.708603,2.873509
2025-12-23T16:10:30.474086,6.771687,-3.306880,2.938386,0.294436,0.662177,2.874731
2025-12-23T16:10:30.484086,6.580262,-3.699303,3.273381,-0.343306,0.604756,2.846631
2025-12-23T16:10:30.494086,6.551548,-5.067998,3.373879,-0.940732,0.514348,2.780657
2025-12-23T16:10:30.503086,6.608976,-7.173682,3.177668,-1.291368,0.403170,2.682919
2025-12-23T16:10:30.513086,6.719045,-9.183653,3.120240,-1.257160,0.313984,2.585181
2025-12-23T16:10:30.522086,6.766902,-10.427920,2.785245,-0.850324,0.306654,2.477668
2025-12-23T16:10:30.532086,6.508477,-10.872985,2.282752,-0.235793,0.365297,2.404365
2025-12-23T16:10:30.542086,5.900700,-10.581061,2.287538,0.409279,0.425162,2.337169
2025-12-23T16:10:30.551086,5.355136,-9.791430,2.612962,0.860098,0.412944,2.290744
2025-12-23T16:10:30.561086,4.972285,-8.843872,2.890529,1.086118,0.332310,2.251648
2025-12-23T16:10:30.570086,4.718646,-8.082954,3.139383,1.097113,0.270002,2.178344
2025-12-23T16:10:30.580086,4.666004,-7.771887,3.771088,0.884532,0.202807,2.119701
2025-12-23T16:10:30.590086,4.890929,-7.508677,4.053441,0.649960,0.123394,2.041511
2025-12-23T16:10:30.599086,5.024927,-7.446463,4.024727,0.368962,0.096516,1.955990
2025-12-23T16:10:30.609086,5.029713,-7.838886,3.704089,-0.051312,0.107512,1.940107
2025-12-23T16:10:30.619086,4.900500,-8.752945,3.287738,-0.365297,0.145385,1.907120
2025-12-23T16:10:30.628086,4.460221,-9.824929,3.345165,-0.489913,0.205250,1.844812
2025-12-23T16:10:30.638086,3.857230,-11.040483,3.622733,-0.514348,0.237015,1.806938
2025-12-23T16:10:30.647086,3.373879,-12.437891,3.967299,-0.405614,0.212581,1.749517
2025-12-23T16:10:30.657086,3.407379,-13.572089,4.091726,-0.190589,0.117286,1.692096
2025-12-23T16:10:30.667086,3.713660,-14.285150,4.082155,0.081855,-0.007330,1.637118
2025-12-23T16:10:30.676086,4.206582,-14.074582,4.163511,0.455705,-0.074525,1.541823
2025-12-23T16:10:30.686086,4.704289,-12.997812,4.058227,0.768468,-0.043982,1.468519
2025-12-23T16:10:30.695086,4.632504,-11.341979,4.177868,0.885754,0.063529,1.409876
2025-12-23T16:10:30.705086,4.292723,-9.815358,4.532006,0.777020,0.186924,1.332907
2025-12-23T16:10:30.715086,3.589233,-9.025726,5.087140,0.426383,0.261450,1.244943
2025-12-23T16:10:30.724086,2.991028,-9.394221,5.245067,-0.189368,0.244346,1.202182
2025-12-23T16:10:30.734086,2.612962,-11.030912,5.570491,-0.722042,0.162490,1.103222
2025-12-23T16:10:30.744086,2.723032,-12.964312,5.316851,-0.902858,0.068416,0.959058
2025-12-23T16:10:30.753086,2.866601,-14.313864,4.838287,-0.647517,0.019547,0.800233
2025-12-23T16:10:30.763086,2.981456,-14.601003,4.465006,-0.073303,0.047647,0.605978
2025-12-23T16:10:30.772086,2.794816,-14.084153,4.508077,0.432492,0.106290,0.458148
2025-12-23T16:10:30.782086,2.541177,-13.160524,4.383651,0.708603,0.153938,0.368962
2025-12-23T16:10:30.792086,2.297109,-12.284751,4.814359,0.772133,0.178372,0.265115
2025-12-23T16:10:30.801086,2.167897,-11.667402,5.522634,0.629191,0.162490,0.112399
2025-12-23T16:10:30.811086,2.435893,-11.720045,5.326423,0.334754,0.119729,-0.046425
2025-12-23T16:10:30.820086,2.904886,-12.294322,5.158925,0.042760,0.103847,-0.197920
2025-12-23T16:10:30.830086,3.273381,-12.997812,4.704289,-0.130725,0.153938,-0.342084
2025-12-23T16:10:30.840086,3.479164,-13.198809,4.220939,-0.157603,0.249232,-0.463035
2025-12-23T16:10:30.849086,3.172882,-12.691531,3.852444,-0.061086,0.329867,-0.585208
2025-12-23T16:10:30.859086,2.756531,-11.681759,3.962514,0.076969,0.357966,-0.735481
2025-12-23T16:10:30.869086,2.344966,-10.695917,4.091726,0.108733,0.301767,-0.886976
2025-12-23T16:10:30.878086,2.158325,-10.131210,3.900300,-0.041538,0.161268,-1.015257
2025-12-23T16:10:30.888086,2.502892,-10.480562,3.416950,-0.332310,-0.031764,-1.128878
2025-12-23T16:10:30.897086,3.311666,-11.327622,3.158525,-0.576656,-0.243124,-1.226617
2025-12-23T16:10:30.907086,4.283152,-12.150753,3.388236,-0.603534,-0.360410,-1.351233
2025-12-23T16:10:30.917086,4.972285,-12.457034,3.761517,-0.375071,-0.331088,-1.480737
2025-12-23T16:10:30.926086,5.111069,-11.662617,3.962514,-0.001221,-0.172263,-1.600466
2025-12-23T16:10:30.936086,4.689932,-10.164710,3.919443,0.304210,0.007330,-1.715309
2025-12-23T16:10:30.945086,3.818944,-8.681160,3.608376,0.419053,0.111177,-1.842369
2025-12-23T16:10:30.955086,2.895315,-7.422535,3.163311,0.372627,0.086742,-1.999972
2025-12-23T16:10:30.965086,2.330609,-6.824330,3.120240,0.127059,-0.091629,-2.161240
2025-12-23T16:10:30.974086,2.493321,-7.068397,3.498306,-0.222354,-0.425162,-2.337169
2025-12-23T16:10:30.984086,3.560520,-7.814958,3.407379,-0.537561,-0.781907,-2.522872
2025-12-23T16:10:30.994086,5.245067,-9.044869,3.110669,-0.845437,-1.031140,-2.626719
2025-12-23T16:10:31.003086,6.848258,-10.131210,2.397608,-0.930958,-1.086118,-2.713462
2025-12-23T16:10:31.013086,7.915457,-10.389635,2.325823,-0.668286,-0.913854,-2.833192
2025-12-23T16:10:31.022086,8.193024,-9.729216,2.713460,-0.301767,-0.594982,-2.934595
2025-12-23T16:10:31.032086,7.532605,-8.585447,3.278166,-0.018325,-0.289550,-3.014008
2025-12-23T16:10:31.042086,6.422335,-7.307680,3.326023,-0.014660,-0.114842,-3.043329
2025-12-23T16:10:31.051086,5.407779,-6.757331,2.847458,-0.320093,-0.129503,-3.070208
2025-12-23T16:10:31.061086,4.699503,-6.886543,2.024327,-0.692721,-0.299323,-3.120298
2025-12-23T16:10:31.070086,4.527220,-7.341179,2.019542,-0.901636,-0.579100,-3.219259
2025-12-23T16:10:31.080086,5.173282,-8.173882,2.660818,-1.007927,-0.913854,-3.351205
2025-12-23T16:10:31.090086,6.628118,-9.298508,1.981257,-1.038470,-1.218065,-3.403740
2025-12-23T16:10:31.099086,8.283951,-9.781858,1.464407,-0.739146,-1.374446,-3.490483
2025-12-23T16:10:31.109086,9.891928,-10.025926,1.464407,-0.389731,-1.352455,-3.535687
2025-12-23T16:10:31.119086,11.112268,-10.193424,1.670190,-0.191811,-1.214399,-3.457496
2025-12-23T16:10:31.128086,11.830114,-9.987641,1.847259,0.023212,-0.978605,-3.326771
2025-12-23T16:10:31.138086,11.672188,-9.269794,2.244467,0.141720,-0.659734,-3.176498
2025-12-23T16:10:31.147086,10.916056,-8.709874,2.440679,0.009773,-0.342084,-2.994460
2025-12-23T16:10:31.157086,9.523433,-8.355736,2.277967,-0.202807,-0.119729,-2.807536
2025-12-23T16:10:31.167086,8.135596,-7.714460,2.297109,-0.344527,-0.062308,-2.697580
2025-12-23T16:10:31.176086,7.025327,-6.977470,2.364108,-0.438601,-0.201585,-2.654819
2025-12-23T16:10:31.186086,6.580262,-6.125625,2.268395,-0.537561,-0.482583,-2.632828
2025-12-23T16:10:31.195086,6.738188,-5.230710,1.885544,-0.638964,-0.794124,-2.658484
2025-12-23T16:10:31.205086,7.197610,-4.359722,0.890130,-0.674395,-1.016479,-2.741562
2025-12-23T16:10:31.215086,7.728816,-3.589233,0.602991,-0.700051,-1.148426,-2.814866
2025-12-23T16:10:31.224086,8.374879,-3.436093,0.861416,-0.818559,-1.237612,-2.884505
2025-12-23T16:10:31.234086,9.040083,-4.053441,0.890130,-0.970053,-1.277929,-2.913826
2025-12-23T16:10:31.244086,9.667003,-4.929214,1.282552,-0.928514,-1.242499,-2.971247
2025-12-23T16:10:31.253086,9.978070,-5.580062,2.024327,-0.662177,-1.134987,-3.035999
2025-12-23T16:10:31.263086,10.269994,-5.733202,2.622533,-0.324980,-0.981049,-3.070208
2025-12-23T16:10:31.272086,10.083354,-5.776273,2.445464,-0.057421,-0.825889,-3.050660
2025-12-23T16:10:31.282086,9.853643,-5.513063,2.344966,0.216246,-0.720820,-3.023782
2025-12-23T16:10:31.292086,9.652646,-5.091926,2.402393,0.433714,-0.707381,-2.981021
2025-12-23T16:10:31.301086,9.667003,-4.536791,2.062613,0.529009,-0.745255,-2.917491
2025-12-23T16:10:31.311086,9.872786,-3.929014,1.655833,0.590095,-0.774576,-2.855183
2025-12-23T16:10:31.320086,10.092925,-3.239881,1.627119,0.593760,-0.790459,-2.796540
2025-12-23T16:10:31.330086,10.317851,-2.871387,1.344766,0.497244,-0.756251,-2.718349
2025-12-23T16:10:31.340086,10.408778,-2.617747,0.928415,0.390953,-0.652403,-2.638937
2025-12-23T16:10:31.349086,10.193424,-2.383251,0.669990,0.312762,-0.529009,-2.583959
2025-12-23T16:10:31.359086,9.930213,-2.392822,0.478564,0.224798,-0.437379,-2.533868
2025-12-23T16:10:31.369086,9.643075,-2.507678,0.564706,0.160046,-0.411723,-2.481334
2025-12-23T16:10:31.378086,9.504291,-2.579462,0.722632,0.153938,-0.444709,-2.417804
2025-12-23T16:10:31.388086,9.657432,-2.483749,0.875773,0.191811,-0.499687,-2.339613
2025-12-23T16:10:31.397086,9.796215,-2.120040,1.196411,0.202807,-0.524122,-2.233322
2025-12-23T16:10:31.407086,10.011569,-1.832902,1.344766,0.111177,-0.485026,-2.089158
2025-12-23T16:10:31.417086,9.911071,-1.775474,1.201196,-0.031764,-0.370184,-1.913229
2025-12-23T16:10:31.426086,9.475577,-1.732403,0.995414,-0.157603,-0.196698,-1.723861
2025-12-23T16:10:31.436086,8.662017,-1.780260,0.751346,-0.266337,-0.034208,-1.556484
2025-12-23T16:10:31.445086,7.819744,-1.808973,0.540777,-0.338419,0.075747,-1.414763
2025-12-23T16:10:31.455086,6.915257,-1.928615,0.555134,-0.339641,0.107512,-1.319468
2025-12-23T16:10:31.465086,6.250052,-2.182254,0.521635,-0.310319,0.045204,-1.251051
2025-12-23T16:10:31.474086,6.039484,-2.507678,0.564706,-0.234572,-0.091629,-1.189965
2025-12-23T16:10:31.484086,6.144768,-2.770888,0.660419,-0.080634,-0.246789,-1.148426
2025-12-23T16:10:31.494086,6.699903,-2.790031,0.813559,0.141720,-0.349414,-1.103222
2025-12-23T16:10:31.503086,7.231109,-2.431107,0.756131,0.384845,-0.327423,-1.039692
2025-12-23T16:10:31.513086,7.523034,-1.746760,0.674775,0.527787,-0.183259,-0.951727
2025-12-23T16:10:31.522086,7.369893,-1.043270,0.559920,0.493579,0.004886,-0.830776
2025-12-23T16:10:31.532086,6.934399,-0.550349,0.344566,0.338419,0.171042,-0.707381
2025-12-23T16:10:31.542086,6.297909,-0.234496,0.253639,0.106290,0.272445,-0.599869
2025-12-23T16:10:31.551086,5.723631,-0.004785,0.425922,-0.173485,0.276111,-0.508239
2025-12-23T16:10:31.561086,5.283352,-0.143569,0.531206,-0.448374,0.193033,-0.438601
2025-12-23T16:10:31.570086,5.182853,-0.502492,0.626919,-0.648738,0.054977,-0.393397
2025-12-23T16:10:31.580086,5.335994,-0.928415,0.799202,-0.751364,-0.092851,-0.356745
2025-12-23T16:10:31.590086,5.781059,-1.411765,0.818345,-0.747698,-0.202807,-0.324980
2025-12-23T16:10:31.599086,6.297909,-1.828116,0.803988,-0.626747,-0.270002,-0.298102
2025-12-23T16:10:31.609086,6.910471,-1.875972,0.765703,-0.394618,-0.276111,-0.271224
2025-12-23T16:10:31.619086,7.360322,-1.775474,0.579063,-0.153938,-0.185702,-0.219911
2025-12-23T16:10:31.628086,7.527819,-1.473978,0.540777,0.059864,-0.019547,-0.158824
2025-12-23T16:10:31.638086,7.345965,-0.947557,0.574277,0.210137,0.144164,-0.102625
2025-12-23T16:10:31.647086,7.006184,-0.354137,0.497707,0.245567,0.240680,-0.047647
2025-12-23T16:10:31.657086,6.790830,0.090927,0.512064,0.180816,0.238237,-0.009773
2025-12-23T16:10:31.667086,6.862615,0.559920,0.550349,0.032986,0.147829,0.024434
2025-12-23T16:10:31.676086,7.341179,0.770488,0.478564,-0.179594,-0.012217,0.053756
2025-12-23T16:10:31.686086,8.145168,0.689132,0.531206,-0.423940,-0.197920,0.079412
2025-12-23T16:10:31.695086,9.379864,0.430708,0.339780,-0.647517,-0.353080,0.119729
2025-12-23T16:10:31.705086,10.638489,0.191425,0.110069,-0.801455,-0.426383,0.175929
2025-12-23T16:10:31.715086,11.743973,0.033499,-0.129212,-0.883310,-0.392175,0.238237
2025-12-23T16:10:31.724086,12.394821,-0.086141,-0.282353,-0.897971,-0.263893,0.299323
2025-12-23T16:10:31.734086,12.638888,-0.148355,-0.301495,-0.840550,-0.058643,0.348193
2025-12-23T16:10:31.744086,12.232109,-0.282353,0.028713,-0.729372,0.197920,0.377514
2025-12-23T16:10:31.753086,11.318050,-0.349352,0.253639,-0.566882,0.372627,0.386066
2025-12-23T16:10:31.763086,10.303494,-0.478564,0.421136,-0.346971,0.394618,0.371405
2025-12-23T16:10:31.772086,9.427721,-0.382851,0.660419,-0.091629,0.293215,0.344527
2025-12-23T16:10:31.782086,9.087940,-0.153140,0.765703,0.158824,0.131946,0.315206
2025-12-23T16:10:31.792086,9.073583,0.263210,0.837487,0.364075,-0.020769,0.287106
2025-12-23T16:10:31.801086,9.255437,0.756131,0.818345,0.487470,-0.114842,0.270002
2025-12-23T16:10:31.811086,9.408578,1.253839,0.918843,0.529009,-0.142942,0.257785
2025-12-23T16:10:31.820086,9.518648,1.607976,0.847059,0.520457,-0.138055,0.238237
2025-12-23T16:10:31.830086,9.504291,1.847259,0.851844,0.472809,-0.117286,0.201585
2025-12-23T16:10:31.840086,9.461220,1.852044,0.856630,0.392175,-0.120951,0.160046
2025-12-23T16:10:31.849086,9.623932,1.636690,0.765703,0.323758,-0.150272,0.123394
2025-12-23T16:10:31.859086,9.901499,1.454836,0.655633,0.310319,-0.177150,0.087964
2025-12-23T16:10:31.869086,10.222138,1.512263,0.607776,0.313984,-0.174707,0.061086
2025-12-23T16:10:31.878086,10.461420,1.670190,0.593420,0.283441,-0.135612,0.050090
2025-12-23T16:10:31.888086,10.418349,1.866401,0.626919,0.207694,-0.068416,0.048869
2025-12-23T16:10:31.897086,10.298708,1.909472,0.736989,0.087964,0.009773,0.045204
2025-12-23T16:10:31.907086,10.001998,1.856830,0.827916,-0.068416,0.059864,0.046425
2025-12-23T16:10:31.917086,9.839286,1.473978,0.717846,-0.206472,0.064751,0.047647
2025-12-23T16:10:31.926086,9.695717,0.947557,0.679561,-0.267558,0.031764,0.032986
2025-12-23T16:10:31.936086,9.738787,0.397208,0.708275,-0.221133,-0.008552,0.010995
2025-12-23T16:10:31.945086,9.839286,0.138783,0.775274,-0.100181,-0.032986,-0.007330
2025-12-23T16:10:31.955086,9.896714,-0.191425,0.674775,0.035430,-0.021991,-0.015882
2025-12-23T16:10:31.965086,9.786644,-0.205782,0.880558,0.173485,0.029321,-0.017104
2025-12-23T16:10:31.974086,9.585647,-0.196211,1.043270,0.278554,0.090408,-0.007330
2025-12-23T16:10:31.984086,9.097511,-0.191425,1.009771,0.320093,0.140498,0.008552
2025-12-23T16:10:31.994086,8.681160,-0.397208,1.095912,0.350636,0.152716,0.010995
2025-12-23T16:10:32.003086,8.394021,-0.478564,1.201196,0.397062,0.116064,0.012217
2025-12-23T16:10:32.013086,8.212167,-0.646062,1.186840,0.427605,0.053756,0.023212
2025-12-23T16:10:32.022086,8.240881,-0.832702,1.134197,0.466700,0.003665,0.040317
2025-12-23T16:10:32.032086,8.327022,-1.009771,0.957129,0.532674,-0.015882,0.054977
2025-12-23T16:10:32.042086,8.379664,-0.985842,0.914058,0.592539,-0.024434,0.085521
2025-12-23T16:10:32.051086,8.642875,-1.028913,0.904486,0.614530,-0.068416,0.130725
2025-12-23T16:10:32.061086,9.059226,-0.942772,0.928415,0.619417,-0.116064,0.186924
2025-12-23T16:10:32.070086,9.576076,-0.899701,0.689132,0.587652,-0.095294,0.265115
2025-12-23T16:10:32.080086,9.844072,-0.823130,0.440279,0.514348,0.046425,0.368962
2025-12-23T16:10:32.090086,9.671788,-0.602991,0.521635,0.416610,0.273667,0.482583
2025-12-23T16:10:32.099086,8.963513,-0.301495,0.579063,0.272445,0.503352,0.603534
2025-12-23T16:10:32.109086,7.992027,-0.263210,0.617348,0.098960,0.656069,0.722042
2025-12-23T16:10:32.119086,6.939185,-0.215354,0.780060,-0.072082,0.679282,0.818559
2025-12-23T16:10:32.128086,6.422335,-0.411565,0.890130,-0.238237,0.575434,0.912632
2025-12-23T16:10:32.138086,6.384050,-0.756131,0.784845,-0.360410,0.383623,0.992044
2025-12-23T16:10:32.147086,6.723831,-1.258624,0.751346,-0.400727,0.185702,1.059240
2025-12-23T16:10:32.157086,7.432106,-1.684547,0.756131,-0.345749,0.048869,1.105665
2025-12-23T16:10:32.167086,8.207381,-2.005185,0.803988,-0.212581,0.015882,1.154535
2025-12-23T16:10:32.176086,8.886943,-2.143969,0.775274,-0.067195,0.097738,1.218065
2025-12-23T16:10:32.186086,9.154939,-1.990828,0.894915,0.043982,0.229685,1.288925
2025-12-23T16:10:32.195086,9.341579,-1.880758,0.703489,0.097738,0.350636,1.376889
2025-12-23T16:10:32.205086,9.355936,-1.875972,0.693918,0.079412,0.439822,1.469741
2025-12-23T16:10:32.215086,9.231509,-1.785045,0.880558,0.006108,0.514348,1.573588
2025-12-23T16:10:32.224086,8.973084,-1.909472,0.885344,-0.092851,0.581543,1.683544
2025-12-23T16:10:32.234086,8.609375,-2.187039,1.028913,-0.166155,0.624304,1.787391
2025-12-23T16:10:32.244086,8.298308,-2.426322,0.966700,-0.206472,0.610865,1.893681
2025-12-23T16:10:32.253086,7.958527,-2.660818,0.914058,-0.196698,0.564439,1.997528
2025-12-23T16:10:32.263086,7.752745,-3.038884,0.827916,-0.122173,0.500909,2.076941
2025-12-23T16:10:32.272086,7.575676,-3.316452,0.775274,0.013439,0.422718,2.136806
2025-12-23T16:10:32.282086,7.566105,-3.493520,0.985842,0.210137,0.334754,2.168571
2025-12-23T16:10:32.292086,7.781459,-3.527020,1.071984,0.409279,0.249232,2.185675
2025-12-23T16:10:32.301086,8.092526,-3.622733,1.196411,0.576656,0.197920,2.193005
2025-12-23T16:10:32.311086,8.461020,-3.632304,1.062413,0.712268,0.205250,2.204001
2025-12-23T16:10:32.320086,8.695517,-3.627519,1.076770,0.796568,0.268780,2.230879
2025-12-23T16:10:32.330086,8.738588,-3.665804,1.186840,0.835663,0.356745,2.260200
2025-12-23T16:10:32.340086,8.580661,-3.790230,1.263410,0.849102,0.458148,2.306626
2025-12-23T16:10:32.349086,8.255237,-3.613162,1.450050,0.853989,0.542448,2.365269
2025-12-23T16:10:32.359086,7.896314,-3.541377,1.607976,0.796568,0.581543,2.441016
2025-12-23T16:10:32.369086,7.585247,-3.560520,1.540977,0.676838,0.575434,2.532646
2025-12-23T16:10:32.378086,7.389036,-3.589233,1.531406,0.560774,0.546113,2.609615
2025-12-23T16:10:32.388086,7.331608,-3.775874,1.732403,0.426383,0.480139,2.671923
2025-12-23T16:10:32.397086,7.432106,-4.197010,1.617548,0.241902,0.394618,2.750114
2025-12-23T16:10:32.407086,7.652246,-4.819144,1.378265,0.151494,0.339641,2.801427
2025-12-23T16:10:32.417086,7.767102,-5.259424,1.406979,0.199142,0.339641,2.806314
2025-12-23T16:10:32.426086,7.570890,-5.560919,1.225125,0.289550,0.379958,2.808757
2025-12-23T16:10:32.436086,7.427321,-5.843272,0.985842,0.427605,0.420275,2.798983
2025-12-23T16:10:32.445086,7.044469,-5.910271,1.095912,0.585208,0.428827,2.773327
2025-12-23T16:10:32.455086,6.747759,-5.953342,1.201196,0.703716,0.378736,2.747671
2025-12-23T16:10:32.465086,6.589833,-6.135197,1.421336,0.791681,0.277332,2.726901
2025-12-23T16:10:32.474086,6.728617,-6.139982,1.607976,0.904080,0.169820,2.703688
2025-12-23T16:10:32.484086,6.982256,-5.967699,1.698904,1.001818,0.105068,2.687806
2025-12-23T16:10:32.494086,7.188039,-5.747559,1.622333,0.996931,0.076969,2.714684
2025-12-23T16:10:32.503086,7.235895,-5.345565,1.713260,0.935845,0.085521,2.753779
2025-12-23T16:10:32.513086,7.082754,-5.039284,1.775474,0.780685,0.112399,2.787988
2025-12-23T16:10:32.522086,6.733402,-4.948357,1.976471,0.527787,0.131946,2.824640
2025-12-23T16:10:32.532086,6.522834,-5.249852,2.340180,0.318871,0.114842,2.830748
2025-12-23T16:10:32.542086,6.192624,-5.943771,2.727817,0.130725,0.076969,2.811201
2025-12-23T16:10:32.551086,6.187839,-7.135396,2.809173,-0.014660,0.009773,2.794097
2025-12-23T16:10:32.561086,6.407978,-8.446663,2.957528,0.058643,-0.047647,2.734232
2025-12-23T16:10:32.570086,6.848258,-9.552147,2.866601,0.382401,-0.045204,2.653598
2025-12-23T16:10:32.580086,7.121040,-10.226923,2.349751,0.922406,0.034208,2.592511
2025-12-23T16:10:32.590086,7.221538,-9.853643,1.861615,1.547932,0.164933,2.561968
2025-12-23T16:10:32.599086,7.130611,-8.676374,1.756331,1.987755,0.278554,2.563190
2025-12-23T16:10:32.609086,6.924828,-7.164110,1.976471,2.054950,0.346971,2.571742
2025-12-23T16:10:32.619086,6.714260,-5.958128,2.258824,1.721417,0.361632,2.616946
2025-12-23T16:10:32.628086,6.532405,-5.053641,2.938386,1.114217,0.321315,2.663371
2025-12-23T16:10:32.638086,6.403193,-4.666004,3.876372,0.364075,0.234572,2.685363
2025-12-23T16:10:32.647086,6.412764,-5.077569,4.646861,-0.467922,0.125838,2.717128
2025-12-23T16:10:32.657086,6.546762,-6.723831,5.221138,-1.169195,0.029321,2.712241
2025-12-23T16:10:32.667086,6.805187,-9.020941,4.953142,-1.554040,0.013439,2.696358
2025-12-23T16:10:32.676086,6.915257,-11.456834,4.287938,-1.558927,0.084299,2.708575
2025-12-23T16:10:32.686086,6.685546,-13.686945,3.450450,-1.159421,0.213802,2.715906
2025-12-23T16:10:32.695086,6.139982,-14.892927,2.775674,-0.372627,0.332310,2.713462
2025-12-23T16:10:32.705086,5.350351,-14.610574,2.225325,0.613308,0.375071,2.693915
2025-12-23T16:10:32.715086,4.685146,-13.026526,2.029113,1.499062,0.340862,2.636493
2025-12-23T16:10:32.724086,4.187439,-10.820343,2.665604,2.063502,0.240680,2.520429
2025-12-23T16:10:32.734086,3.996013,-9.006584,3.383451,2.201557,0.114842,2.393369
2025-12-23T16:10:32.744086,4.096512,-7.867600,4.043870,1.940107,-0.004886,2.283413
2025-12-23T16:10:32.753086,4.364508,-7.245466,4.680361,1.474628,-0.085521,2.168571
2025-12-23T16:10:32.763086,4.733003,-7.188039,4.881358,0.927293,-0.097738,2.068389
2025-12-23T16:10:32.772086,4.943571,-7.786244,4.656432,0.357966,-0.054977,2.012189
2025-12-23T16:10:32.782086,4.948357,-8.791230,4.426721,-0.087964,0.035430,1.962098
2025-12-23T16:10:32.792086,4.608576,-9.896714,4.378865,-0.329867,0.146607,1.921781
2025-12-23T16:10:32.801086,4.024727,-10.849057,4.163511,-0.371405,0.254119,1.882686
2025-12-23T16:10:32.811086,3.407379,-11.557333,3.957728,-0.255341,0.307876,1.803273
2025-12-23T16:10:32.820086,2.718246,-11.906685,3.957728,-0.001221,0.304210,1.672548
2025-12-23T16:10:32.830086,2.134397,-11.983255,4.130011,0.228463,0.245567,1.544267
2025-12-23T16:10:32.840086,1.976471,-11.863614,4.728217,0.372627,0.116064,1.425759
2025-12-23T16:10:32.849086,2.096112,-11.667402,4.800002,0.460592,-0.021991,1.310916
2025-12-23T16:10:32.859086,2.464607,-11.456834,4.656432,0.425162,-0.106290,1.231504
2025-12-23T16:10:32.869086,2.703889,-11.461620,4.632504,0.326201,-0.103847,1.163087
2025-12-23T16:10:32.878086,2.799602,-11.734402,4.761716,0.256563,-0.043982,1.086118
2025-12-23T16:10:32.888086,2.665604,-12.184252,5.010570,0.204028,0.054977,1.011592
2025-12-23T16:10:32.897086,2.402393,-12.648460,4.895715,0.182037,0.173485,0.954171
2025-12-23T16:10:32.907086,2.120040,-12.701102,4.613361,0.232128,0.277332,0.868650
2025-12-23T16:10:32.917086,1.732403,-12.375678,4.407579,0.268780,0.344527,0.740368
2025-12-23T16:10:32.926086,1.354337,-11.700902,4.307080,0.262671,0.376292,0.576656
2025-12-23T16:10:32.936086,0.904486,-11.145767,4.287938,0.201585,0.378736,0.404392
2025-12-23T16:10:32.945086,0.612562,-10.777272,4.283152,-0.026878,0.322536,0.290771
2025-12-23T16:10:32.955086,0.449850,-10.796415,4.599005,-0.287106,0.204028,0.175929
2025-12-23T16:10:32.965086,0.583848,-11.121839,5.192425,-0.433714,0.073303,-0.004886
2025-12-23T16:10:32.974086,1.009771,-11.590832,5.776273,-0.497244,-0.041538,-0.179594
2025-12-23T16:10:32.984086,1.584048,-12.040683,6.116054,-0.406836,-0.090408,-0.377514
2025-12-23T16:10:32.994086,1.971685,-12.174681,6.077769,-0.160046,-0.058643,-0.583987
2025-12-23T16:10:33.003086,2.120040,-11.964113,5.843272,0.134390,0.039095,-0.773355
2025-12-23T16:10:33.013086,1.995614,-11.557333,5.723631,0.428827,0.129503,-0.974940
2025-12-23T16:10:33.022086,1.794616,-10.782058,5.584847,0.679282,0.155159,-1.160643
2025-12-23T16:10:33.032086,1.593619,-9.987641,5.431707,0.795346,0.113620,-1.334129
2025-12-23T16:10:33.042086,1.387837,-9.518648,4.876572,0.740368,0.025656,-1.467297
2025-12-23T16:10:33.051086,1.502692,-9.355936,4.627718,0.596204,-0.102625,-1.601688
2025-12-23T16:10:33.061086,1.722832,-9.351150,4.369294,0.399505,-0.259006,-1.747074
2025-12-23T16:10:33.070086,2.196611,-9.729216,4.474578,0.188146,-0.434935,-1.855808
2025-12-23T16:10:33.080086,2.991028,-10.150353,4.642075,0.094073,-0.576656,-1.986533
2025-12-23T16:10:33.090086,3.728017,-10.164710,4.704289,0.124616,-0.619417,-2.135584
2025-12-23T16:10:33.099086,4.173082,-9.604789,4.383651,0.249232,-0.544891,-2.265087
2025-12-23T16:10:33.109086,4.244867,-8.489734,4.283152,0.412944,-0.415388,-2.406808
2025-12-23T16:10:33.119086,3.909872,-7.149753,3.842873,0.408057,-0.310319,-2.531425
2025-12-23T16:10:33.128086,3.560520,-6.537191,3.168097,0.045204,-0.318871,-2.597398
2025-12-23T16:10:33.138086,3.498306,-6.829115,2.723032,-0.575434,-0.465479,-2.641380
2025-12-23T16:10:33.147086,3.962514,-8.298308,2.172682,-1.335351,-0.736703,-2.659706
2025-12-23T16:10:33.157086,5.264209,-10.102497,2.067398,-1.940107,-1.060461,-2.702467
2025-12-23T16:10:33.167086,6.905686,-11.480762,2.794816,-1.952324,-1.238834,-2.890613
2025-12-23T16:10:33.176086,8.193024,-11.772687,2.842673,-1.532049,-1.123991,-3.022560
2025-12-23T16:10:33.186086,8.618947,-10.963913,2.775674,-0.981049,-0.774576,-3.043329
2025-12-23T16:10:33.195086,8.054240,-9.408578,2.804388,-0.557108,-0.386066,-3.044551
2025-12-23T16:10:33.205086,6.838686,-7.791030,2.900100,-0.419053,-0.130725,-3.049438
2025-12-23T16:10:33.215086,5.479563,-6.714260,2.579462,-0.555887,-0.068416,-3.068986
2025-12-23T16:10:33.224086,4.292723,-6.096911,2.474178,-0.827111,-0.189368,-3.145955
2025-12-23T16:10:33.234086,3.761517,-6.302694,3.024527,-1.112996,-0.478918,-3.262019
2025-12-23T16:10:33.244086,4.393222,-7.197610,3.139383,-1.387885,-0.893084,-3.357314
2025-12-23T16:10:33.253086,5.986842,-8.513662,2.809173,-1.524719,-1.291368,-3.420844
2025-12-23T16:10:33.263086,8.011170,-9.667003,2.364108,-1.419650,-1.497841,-3.464826
2025-12-23T16:10:33.272086,9.714859,-10.121639,2.770888,-1.049466,-1.450193,-3.497813
2025-12-23T16:10:33.282086,10.758130,-9.714859,3.321237,-0.626747,-1.166752,-3.467270
2025-12-23T16:10:33.292086,10.772487,-8.700302,3.507877,-0.367740,-0.752585,-3.341432
2025-12-23T16:10:33.301086,9.925428,-7.680960,3.440878,-0.375071,-0.359188,-3.191159
2025-12-23T16:10:33.311086,8.437092,-7.092326,3.153740,-0.618195,-0.127059,-3.059212
2025-12-23T16:10:33.320086,7.077969,-7.063612,2.679961,-0.894306,-0.108733,-2.979800
2025-12-23T16:10:33.330086,6.077769,-7.255038,2.373680,-1.020144,-0.290771,-2.965139
2025-12-23T16:10:33.340086,5.876772,-7.082754,2.421536,-0.970053,-0.599869,-3.032334
2025-12-23T16:10:33.349086,6.293123,-6.465406,2.196611,-0.795346,-0.930958,-3.136181
2025-12-23T16:10:33.359086,7.125825,-5.178068,1.526620,-0.572991,-1.155756,-3.273015
2025-12-23T16:10:33.369086,7.843672,-3.747160,0.569491,-0.411723,-1.249830,-3.418401
2025-12-23T16:10:33.378086,8.413164,-2.732603,0.306281,-0.431270,-1.291368,-3.536908
2025-12-23T16:10:33.388086,9.049655,-2.608176,0.612562,-0.712268,-1.375668,-3.557678
2025-12-23T16:10:33.397086,10.054640,-3.397808,1.359123,-1.122770,-1.524719,-3.505144
2025-12-23T16:10:33.407086,11.485548,-4.694717,2.770888,-1.478293,-1.648114,-3.441614
2025-12-23T16:10:33.417086,12.945170,-6.407978,2.804388,-1.723861,-1.566258,-3.319441
2025-12-23T16:10:33.426086,13.849657,-7.877171,2.469392,-1.602910,-1.242499,-3.181385
2025-12-23T16:10:33.436086,13.672588,-8.456235,2.579462,-1.060461,-0.790459,-3.089755
2025-12-23T16:10:33.445086,12.571889,-7.944171,2.335394,-0.443488,-0.399505,-2.966360
2025-12-23T16:10:33.455086,11.231909,-6.872186,1.986042,0.054977,-0.213802,-2.866179
2025-12-23T16:10:33.465086,10.112068,-5.513063,1.689332,0.403170,-0.239459,-2.811201
2025-12-23T16:10:33.474086,9.466006,-4.106083,0.990628,0.537561,-0.382401,-2.769662
2025-12-23T16:10:33.484086,9.265009,-2.971885,0.186640,0.548556,-0.513126,-2.741562
2025-12-23T16:10:33.494086,9.236295,-1.966900,0.119641,0.458148,-0.626747,-2.702467
2025-12-23T16:10:33.503086,9.312865,-1.545763,-0.229710,0.208915,-0.723264,-2.640159
2025-12-23T16:10:33.513086,9.714859,-1.789831,-0.440279,-0.070860,-0.784350,-2.580294
2025-12-23T16:10:33.522086,10.112068,-2.359323,-0.114855,-0.251676,-0.811228,-2.539977
2025-12-23T16:10:33.532086,10.590632,-2.971885,0.248853,-0.326201,-0.819780,-2.467895
2025-12-23T16:10:33.542086,10.930413,-3.259024,0.445065,-0.272445,-0.778242,-2.373821
2025-12-23T16:10:33.551086,11.097911,-3.086741,0.655633,-0.157603,-0.676838,-2.276083
2025-12-23T16:10:33.561086,10.882557,-2.608176,1.004985,-0.106290,-0.561995,-2.160019
2025-12-23T16:10:33.570086,10.619346,-2.110469,1.105484,-0.151494,-0.492357,-2.030515
2025-12-23T16:10:33.580086,10.289137,-1.694118,0.961914,-0.244346,-0.449596,-1.904677
2025-12-23T16:10:33.590086,10.054640,-1.378265,0.641276,-0.368962,-0.403170,-1.805717
2025-12-23T16:10:33.599086,9.848857,-1.196411,0.153140,-0.491135,-0.382401,-1.722639
2025-12-23T16:10:33.609086,9.762716,-1.172483,-0.038285,-0.592539,-0.395840,-1.642005
2025-12-23T16:10:33.619086,9.801001,-1.234696,-0.191425,-0.692721,-0.423940,-1.554040
2025-12-23T16:10:33.628086,9.944570,-1.569691,-0.133998,-0.770911,-0.443488,-1.453858
2025-12-23T16:10:33.638086,10.078568,-1.914258,0.043070,-0.801455,-0.434935,-1.334129
2025-12-23T16:10:33.647086,10.202995,-2.091326,0.186640,-0.777020,-0.364075,-1.192408
2025-12-23T16:10:33.657086,9.992427,-2.086541,0.220139,-0.685390,-0.223576,-1.054353
2025-12-23T16:10:33.667086,9.466006,-1.804188,0.267996,-0.568104,-0.069638,-0.933401
2025-12-23T16:10:33.676086,8.719445,-1.406979,0.401994,-0.471587,0.042760,-0.828333
2025-12-23T16:10:33.686086,7.929814,-1.000199,0.464207,-0.427605,0.091629,-0.739146
2025-12-23T16:10:33.695086,7.173682,-0.713061,0.564706,-0.437379,0.081855,-0.675616
2025-12-23T16:10:33.705086,6.728617,-0.722632,0.564706,-0.474031,0.000000,-0.630412
2025-12-23T16:10:33.715086,6.513263,-0.813559,0.526420,-0.507018,-0.119729,-0.586430
2025-12-23T16:10:33.724086,6.518048,-0.808774,0.468993,-0.487470,-0.248011,-0.542448
2025-12-23T16:10:33.734086,6.709474,-0.823130,0.497707,-0.400727,-0.348193,-0.508239
2025-12-23T16:10:33.744086,6.939185,-0.732203,0.459421,-0.270002,-0.368962,-0.474031
2025-12-23T16:10:33.753086,6.953542,-0.531206,0.373280,-0.123394,-0.299323,-0.428827
2025-12-23T16:10:33.763086,6.742974,-0.416351,0.392422,0.020769,-0.161268,-0.389731
2025-12-23T16:10:33.772086,6.159125,-0.263210,0.478564,0.134390,0.002443,-0.350636
2025-12-23T16:10:33.782086,5.359922,-0.334995,0.330209,0.227241,0.135612,-0.312762
2025-12-23T16:10:33.792086,4.651647,-0.339780,0.344566,0.349414,0.193033,-0.300545
2025-12-23T16:10:33.801086,4.101297,-0.148355,0.354137,0.470366,0.162490,-0.288328
2025-12-23T16:10:33.811086,3.828516,0.234496,0.186640,0.540004,0.053756,-0.268780
2025-12-23T16:10:33.820086,3.948157,0.722632,0.220139,0.542448,-0.097738,-0.265115
2025-12-23T16:10:33.830086,4.460221,1.100698,0.177068,0.449596,-0.239459,-0.254119
2025-12-23T16:10:33.840086,5.192425,1.373480,0.047856,0.274889,-0.340862,-0.234572
2025-12-23T16:10:33.849086,6.068198,1.540977,0.081355,0.041538,-0.379958,-0.217467
2025-12-23T16:10:33.859086,6.867400,1.406979,-0.009571,-0.249232,-0.349414,-0.195476
2025-12-23T16:10:33.869086,7.527819,1.009771,-0.095712,-0.527787,-0.280997,-0.161268
2025-12-23T16:10:33.878086,8.011170,0.464207,-0.239282,-0.733038,-0.189368,-0.130725
2025-12-23T16:10:33.888086,8.403592,-0.095712,-0.263210,-0.869871,-0.116064,-0.101403
2025-12-23T16:10:33.897086,8.695517,-0.435493,-0.392422,-0.932180,-0.072082,-0.058643
2025-12-23T16:10:33.907086,9.049655,-0.593420,-0.354137,-0.927293,-0.065973,-0.040317
2025-12-23T16:10:33.917086,9.451649,-0.703489,-0.325423,-0.906523,-0.090408,-0.029321
2025-12-23T16:10:33.926086,9.949356,-0.823130,-0.311066,-0.868650,-0.135612,-0.014660
2025-12-23T16:10:33.936086,10.490134,-0.947557,-0.315852,-0.800233,-0.193033,-0.001221
2025-12-23T16:10:33.945086,11.150553,-1.033699,-0.267996,-0.707381,-0.239459,0.024434
2025-12-23T16:10:33.955086,11.566904,-1.143769,-0.234496,-0.560774,-0.245567,0.073303
2025-12-23T16:10:33.965086,11.892328,-1.153340,0.000000,-0.338419,-0.180816,0.116064
2025-12-23T16:10:33.974086,11.700902,-1.043270,0.330209,-0.100181,-0.036651,0.178372
2025-12-23T16:10:33.984086,11.078768,-0.914058,0.473778,0.120951,0.142942,0.263893
2025-12-23T16:10:33.994086,10.121639,-0.555134,0.650847,0.346971,0.267558,0.345749
2025-12-23T16:10:34.003086,9.198010,-0.277567,0.665204,0.547335,0.279776,0.417831
2025-12-23T16:10:34.013086,8.609375,0.014356,0.617348,0.728151,0.193033,0.461814
2025-12-23T16:10:34.022086,8.317451,0.440279,0.736989,0.890641,0.045204,0.480139
2025-12-23T16:10:34.032086,8.618947,0.914058,0.679561,1.007927,-0.112399,0.487470
2025-12-23T16:10:34.042086,9.226723,1.378265,0.435493,1.066570,-0.226020,0.477696
2025-12-23T16:10:34.051086,9.987641,1.962114,0.320638,1.071457,-0.252898,0.461814
2025-12-23T16:10:34.061086,10.518848,2.512463,0.277567,1.009149,-0.164933,0.441044
2025-12-23T16:10:34.070086,10.652846,3.062812,0.086141,0.855211,-0.009773,0.419053
2025-12-23T16:10:34.080086,10.662417,3.412165,-0.105284,0.609643,0.156381,0.403170
2025-12-23T16:10:34.090086,10.370493,3.584448,-0.148355,0.300545,0.266337,0.393397
2025-12-23T16:10:34.099086,10.107282,3.450450,-0.177068,-0.037873,0.298102,0.395840
2025-12-23T16:10:34.109086,9.891928,3.144168,-0.325423,-0.345749,0.276111,0.398284
2025-12-23T16:10:34.119086,9.973284,2.684746,-0.363709,-0.580321,0.223576,0.400727
2025-12-23T16:10:34.128086,10.054640,2.163111,-0.368494,-0.718377,0.163711,0.399505
2025-12-23T16:10:34.138086,10.217352,1.684547,-0.220139,-0.768468,0.127059,0.394618
2025-12-23T16:10:34.147086,10.384850,1.215553,-0.033499,-0.739146,0.155159,0.387288
2025-12-23T16:10:34.157086,10.313065,0.736989,0.076570,-0.613308,0.249232,0.367740
2025-12-23T16:10:34.167086,9.805787,0.559920,0.267996,-0.398284,0.378736,0.316428
2025-12-23T16:10:34.176086,9.126225,0.425922,0.540777,-0.177150,0.481361,0.250454
2025-12-23T16:10:34.186086,8.542376,0.325423,0.665204,0.012217,0.500909,0.193033
2025-12-23T16:10:34.195086,8.006384,0.172283,0.732203,0.178372,0.442266,0.141720
2025-12-23T16:10:34.205086,7.834101,0.038285,0.899701,0.345749,0.340862,0.087964
2025-12-23T16:10:34.215086,7.948956,0.076570,0.914058,0.499687,0.246789,0.058643
2025-12-23T16:10:34.224086,8.164310,0.320638,0.780060,0.609643,0.185702,0.053756
2025-12-23T16:10:34.234086,8.461020,0.612562,0.598205,0.635299,0.138055,0.065973
2025-12-23T16:10:34.244086,8.901300,0.851844,0.775274,0.547335,0.101403,0.106290
2025-12-23T16:10:34.253086,9.351150,0.727418,0.650847,0.355523,0.086742,0.193033
2025-12-23T16:10:34.263086,9.820143,0.373280,0.387637,0.127059,0.116064,0.310319
2025-12-23T16:10:34.272086,9.944570,-0.210568,0.253639,-0.041538,0.215024,0.443488
2025-12-23T16:10:34.282086,9.671788,-0.756131,0.191425,-0.112399,0.359188,0.585208
2025-12-23T16:10:34.292086,9.049655,-0.933200,0.454636,-0.092851,0.494800,0.706160
2025-12-23T16:10:34.301086,8.307880,-1.186840,0.851844,-0.034208,0.572991,0.800233
2025-12-23T16:10:34.311086,7.623532,-1.316052,1.081555,0.052534,0.577878,0.877202
2025-12-23T16:10:34.320086,7.293323,-1.411765,1.033699,0.171042,0.513126,0.932180
2025-12-23T16:10:34.330086,7.283751,-1.430907,0.918843,0.328645,0.414166,0.960279
2025-12-23T16:10:34.340086,7.724031,-1.311266,0.468993,0.464257,0.335975,0.995710
2025-12-23T16:10:34.349086,8.255237,-1.038485,0.301495,0.531452,0.350636,1.043357
2025-12-23T16:10:34.359086,8.618947,-0.679561,0.425922,0.482583,0.456927,1.115439
2025-12-23T16:10:34.369086,8.829515,-0.622133,0.497707,0.313984,0.621860,1.216843
2025-12-23T16:10:34.378086,8.796015,-1.009771,0.698704,0.114842,0.807563,1.313359
2025-12-23T16:10:34.388086,8.422735,-1.464407,1.301695,0.006108,0.962723,1.395215
2025-12-23T16:10:34.397086,8.355736,-2.182254,0.971485,-0.015882,1.018923,1.491732
2025-12-23T16:10:34.407086,8.255237,-2.919243,0.952343,0.067195,1.064127,1.558927
2025-12-23T16:10:34.417086,8.307880,-3.321237,0.435493,0.254119,1.058018,1.649335
2025-12-23T16:10:34.426086,8.303094,-3.239881,-0.047856,0.493579,1.034805,1.723861
2025-12-23T16:10:34.436086,8.408378,-2.756531,-0.162711,0.689055,1.018923,1.761734
2025-12-23T16:10:34.445086,8.293523,-2.091326,-0.210568,0.764803,1.015257,1.802052
2025-12-23T16:10:34.455086,7.920242,-1.335195,-0.344566,0.698829,1.023809,1.860695
2025-12-23T16:10:34.465086,7.475177,-0.760917,0.172283,0.526565,1.004262,1.902233
2025-12-23T16:10:34.474086,7.106683,-0.435493,0.914058,0.282219,0.912632,1.927890
2025-12-23T16:10:34.484086,6.977470,-0.545563,1.115055,-0.037873,0.791681,1.954768
2025-12-23T16:10:34.494086,7.087540,-1.115055,1.148554,-0.344527,0.693942,1.971872
2025-12-23T16:10:34.503086,7.173682,-1.832902,1.004985,-0.514348,0.649960,1.975537
2025-12-23T16:10:34.513086,7.326822,-2.665604,1.177268,-0.572991,0.653625,1.996307
2025-12-23T16:10:34.522086,7.345965,-3.622733,1.258624,-0.561995,0.662177,2.034180
2025-12-23T16:10:34.532086,7.293323,-4.737788,1.718046,-0.393397,0.653625,2.073276
2025-12-23T16:10:34.542086,7.235895,-5.441278,2.555534,-0.063529,0.576656,2.107484
2025-12-23T16:10:34.551086,7.465606,-5.852844,3.058027,0.306654,0.467922,2.166127
2025-12-23T16:10:34.561086,7.891528,-6.116054,2.565105,0.708603,0.422718,2.234544
2025-12-23T16:10:34.570086,8.193024,-5.886343,2.196611,1.209512,0.466700,2.260200
2025-12-23T16:10:34.580086,8.288737,-5.192425,2.009970,1.656666,0.537561,2.268753
2025-12-23T16:10:34.590086,8.279166,-4.321437,1.847259,1.924225,0.590095,2.274861
2025-12-23T16:10:34.599086,8.197810,-3.364308,1.813759,2.007302,0.636521,2.272418
2025-12-23T16:10:34.609086,8.030312,-2.517249,1.856830,1.898568,0.685390,2.266309
2025-12-23T16:10:34.619086,7.685746,-1.957328,1.823330,1.612683,0.740368,2.256535
2025-12-23T16:10:34.628086,7.235895,-1.689332,1.866401,1.214399,0.779463,2.271196
2025-12-23T16:10:34.638086,6.618547,-1.722832,2.268395,0.724486,0.756251,2.307848
2025-12-23T16:10:34.647086,6.345765,-2.301895,2.445464,0.229685,0.671951,2.361604
2025-12-23T16:10:34.657086,6.273980,-3.259024,2.646461,-0.173485,0.551000,2.425134
2025-12-23T16:10:34.667086,6.345765,-4.359722,2.828316,-0.431270,0.415388,2.500881
2025-12-23T16:10:34.676086,6.503691,-5.259424,2.847458,-0.510683,0.300545,2.587624
2025-12-23T16:10:34.686086,6.666403,-5.871986,2.569891,-0.439822,0.244346,2.645045
2025-12-23T16:10:34.695086,6.786044,-6.369693,2.373680,-0.219911,0.248011,2.651154
2025-12-23T16:10:34.705086,6.690331,-6.522834,2.579462,0.124616,0.262671,2.612059
2025-12-23T16:10:34.715086,6.513263,-6.513263,2.766102,0.456927,0.254119,2.557081
2025-12-23T16:10:34.724086,6.465406,-6.752545,2.608176,0.730594,0.193033,2.494773
2025-12-23T16:10:34.734086,6.628118,-7.030112,2.943171,1.038470,0.100181,2.376265
2025-12-23T16:10:34.744086,7.006184,-7.326822,3.043670,1.376889,0.017104,2.230879
2025-12-23T16:10:34.753086,7.470392,-7.666603,3.182454,1.681100,-0.032986,2.152688
2025-12-23T16:10:34.763086,7.905885,-7.977670,3.536591,1.935220,-0.029321,2.134362
2025-12-23T16:10:34.772086,8.288737,-8.073383,3.613162,2.103819,0.029321,2.153910
2025-12-23T16:10:34.782086,8.451449,-7.968099,3.689732,2.179566,0.107512,2.185675
2025-12-23T16:10:34.792086,8.331808,-7.231109,3.699303,2.189340,0.158824,2.247983
2025-12-23T16:10:34.801086,8.001598,-5.958128,3.785445,2.089158,0.175929,2.333504
2025-12-23T16:10:34.811086,7.676174,-4.723431,4.283152,1.751961,0.158824,2.378708
2025-12-23T16:10:34.820086,7.389036,-4.173082,5.230710,1.210734,0.108733,2.404365
2025-12-23T16:10:34.830086,7.432106,-4.350151,6.187839,0.560774,0.053756,2.406808
