Timestamp,Acceleration_X,Acceleration_Y,Acceleration_Z,Gyro_X,Gyro_Y,Gyro_Z
2026-03-22T22:18:24.710841,1.746760,-0.555134,9.786644,-0.685390,0.255341,0.139277
2026-03-22T22:18:24.720841,1.756331,-0.727418,9.671788,-0.653625,0.288328,0.063529
2026-03-22T22:18:24.729841,1.674975,-0.842273,9.757930,-0.608421,0.277332,-0.025656
2026-03-22T22:18:24.739841,1.105484,-1.158126,9.858429,-0.531452,0.207694,-0.100181
2026-03-22T22:18:24.748841,0.971485,-1.253839,9.939785,-0.416610,0.105068,-0.127059
2026-03-22T22:18:24.758841,1.000199,-1.406979,10.040283,-0.301767,0.019547,-0.125838
2026-03-22T22:18:24.768841,1.124626,-1.215553,10.097711,-0.233350,-0.036651,-0.114842
2026-03-22T22:18:24.777841,1.368694,-1.158126,10.121639,-0.175929,-0.061086,-0.124616
2026-03-22T22:18:24.787841,1.349551,-1.182054,10.150353,-0.140498,-0.057421,-0.145385
2026-03-22T22:18:24.797841,1.301695,-1.129412,10.131210,-0.160046,-0.042760,-0.149051
2026-03-22T22:18:24.806841,1.473978,-1.100698,10.226923,-0.204028,-0.010995,-0.136833
2026-03-22T22:18:24.816841,1.651047,-1.124626,10.322636,-0.251676,0.042760,-0.140498
2026-03-22T22:18:24.825841,1.531406,-1.220339,10.461420,-0.326201,0.101403,-0.146607
2026-03-22T22:18:24.835841,1.397408,-1.536192,10.581061,-0.354301,0.136833,-0.163711
2026-03-22T22:18:24.845841,1.148554,-1.847259,10.633703,-0.307876,0.113620,-0.191811
2026-03-22T22:18:24.854841,1.014556,-2.038684,10.691131,-0.239459,0.070860,-0.189368
2026-03-22T22:18:24.864841,0.842273,-1.986042,10.576275,-0.155159,0.019547,-0.164933
2026-03-22T22:18:24.873841,0.947557,-1.923829,10.451849,-0.070860,-0.039095,-0.144164
2026-03-22T22:18:24.883841,1.086341,-1.651047,10.413563,-0.050090,-0.057421,-0.124616
2026-03-22T22:18:24.893841,1.210768,-1.584048,10.246066,-0.051312,-0.045204,-0.124616
2026-03-22T22:18:24.902841,1.124626,-1.555334,10.212566,-0.072082,-0.023212,-0.138055
2026-03-22T22:18:24.912841,1.067198,-1.607976,10.246066,-0.087964,-0.009773,-0.153938
2026-03-22T22:18:24.922841,0.933200,-1.598405,10.260423,-0.098960,0.007330,-0.151494
2026-03-22T22:18:24.931841,0.870987,-1.761117,10.250852,-0.097738,0.015882,-0.146607
2026-03-22T22:18:24.941841,0.827916,-1.861615,10.279565,-0.084299,0.018325,-0.133168
2026-03-22T22:18:24.950841,0.741775,-1.861615,10.131210,-0.073303,0.021991,-0.106290
2026-03-22T22:18:24.960841,0.602991,-1.789831,10.064211,-0.043982,0.008552,-0.083077
2026-03-22T22:18:24.970841,0.579063,-1.899901,10.040283,-0.003665,-0.014660,-0.062308
2026-03-22T22:18:24.979841,0.535992,-1.875972,9.944570,0.028099,-0.037873,-0.026878
2026-03-22T22:18:24.989841,0.626919,-1.756331,9.954142,0.050090,-0.050090,0.007330
2026-03-22T22:18:24.998841,0.756131,-1.641476,9.949356,0.067195,-0.048869,0.025656
2026-03-22T22:18:25.008841,0.736989,-1.497906,9.829715,0.065973,-0.041538,0.037873
2026-03-22T22:18:25.018841,0.813559,-1.440479,9.772287,0.056199,-0.029321,0.041538
2026-03-22T22:18:25.027841,0.928415,-1.349551,9.887142,0.061086,-0.006108,0.034208
2026-03-22T22:18:25.037841,0.909272,-1.387837,9.877571,0.087964,0.017104,0.018325
2026-03-22T22:18:25.047841,0.832702,-1.349551,9.930213,0.134390,0.014660,-0.008552
2026-03-22T22:18:25.056841,0.780060,-1.406979,10.112068,0.195476,-0.017104,-0.048869
2026-03-22T22:18:25.066841,0.684347,-1.593619,10.131210,0.285884,-0.064751,-0.100181
2026-03-22T22:18:25.075841,0.459421,-1.832902,10.442277,0.318871,-0.106290,-0.107512
2026-03-22T22:18:25.085841,0.483350,-1.751546,10.313065,0.284663,-0.129503,-0.045204
2026-03-22T22:18:25.095841,0.602991,-1.670190,10.322636,0.260228,-0.138055,0.019547
2026-03-22T22:18:25.104841,0.641276,-1.617548,10.236495,0.212581,-0.125838,0.079412
2026-03-22T22:18:25.114841,0.756131,-1.392622,10.174281,0.172263,-0.117286,0.116064
2026-03-22T22:18:25.123841,1.000199,-1.406979,10.241280,0.141720,-0.102625,0.128281
2026-03-22T22:18:25.133841,1.158126,-1.363908,10.274780,0.118507,-0.063529,0.113620
2026-03-22T22:18:25.143841,1.158126,-1.258624,10.217352,0.119729,-0.028099,0.073303
2026-03-22T22:18:25.152841,1.028913,-1.158126,10.078568,0.120951,-0.012217,0.026878
2026-03-22T22:18:25.162841,0.933200,-1.296909,10.040283,0.113620,-0.010995,-0.004886
2026-03-22T22:18:25.172841,0.909272,-1.383051,9.944570,0.096516,-0.020769,-0.004886
2026-03-22T22:18:25.181841,0.914058,-1.311266,10.011569,0.069638,-0.040317,0.020769
2026-03-22T22:18:25.191841,0.981057,-1.229910,9.949356,0.059864,-0.041538,0.050090
2026-03-22T22:18:25.200841,1.019342,-1.115055,9.801001,0.054977,-0.034208,0.062308
2026-03-22T22:18:25.210841,1.033699,-0.971485,9.671788,0.041538,-0.028099,0.061086
2026-03-22T22:18:25.220841,1.110269,-0.875773,9.542576,0.039095,-0.036651,0.043982
2026-03-22T22:18:25.229841,1.186840,-0.713061,9.552147,0.042760,-0.047647,0.018325
2026-03-22T22:18:25.239841,1.325623,-0.650847,9.480363,0.039095,-0.059864,-0.029321
2026-03-22T22:18:25.248841,1.627119,-1.268195,9.887142,-0.003665,-0.059864,-0.035430
2026-03-22T22:18:25.258841,1.411765,-1.162911,10.040283,-0.061086,-0.036651,0.004886
2026-03-22T22:18:25.268841,1.287338,-1.158126,10.126425,-0.023212,-0.056199,0.007330
2026-03-22T22:18:25.277841,1.359123,-0.957129,10.217352,0.043982,-0.097738,-0.017104
2026-03-22T22:18:25.287841,1.560120,-0.875773,10.269994,0.054977,-0.105068,-0.057421
2026-03-22T22:18:25.297841,1.493121,-0.890130,10.231709,0.018325,-0.068416,-0.097738
2026-03-22T22:18:25.306841,1.158126,-0.909272,10.131210,-0.004886,-0.024434,-0.123394
2026-03-22T22:18:25.316841,0.937986,-1.000199,9.982855,-0.034208,-0.008552,-0.140498
2026-03-22T22:18:25.325841,0.909272,-1.076770,9.858429,-0.054977,-0.003665,-0.149051
2026-03-22T22:18:25.335841,0.713061,-1.067198,9.757930,-0.068416,0.001221,-0.153938
2026-03-22T22:18:25.345841,0.751346,-1.019342,9.815358,-0.070860,0.000000,-0.161268
2026-03-22T22:18:25.354841,0.770488,-1.043270,9.877571,-0.051312,-0.002443,-0.167377
2026-03-22T22:18:25.364841,1.009771,-1.124626,10.131210,-0.003665,0.014660,-0.178372
2026-03-22T22:18:25.373841,0.985842,-0.880558,10.107282,0.037873,0.064751,-0.191811
2026-03-22T22:18:25.383841,0.914058,-0.789631,9.992427,0.074525,0.086742,-0.222354
2026-03-22T22:18:25.393841,1.033699,-0.512064,10.078568,0.105068,0.141720,-0.248011
2026-03-22T22:18:25.402841,1.014556,-0.153140,9.887142,0.075747,0.185702,-0.323758
2026-03-22T22:18:25.412841,1.105484,0.100498,9.858429,0.023212,0.252898,-0.469144
2026-03-22T22:18:25.422841,0.392422,0.631705,9.542576,-0.131946,0.271224,-0.692721
2026-03-22T22:18:25.431841,-3.311666,2.009970,7.805387,-0.306654,0.058643,-1.114217
2026-03-22T22:18:25.441841,4.153940,-0.971485,9.690931,-0.461814,-0.305432,-2.190562
2026-03-22T22:18:25.450841,1.981257,-0.966700,10.648060,-0.414166,-0.097738,-2.201557
2026-03-22T22:18:25.460841,2.072184,0.277567,10.600204,-0.455705,0.171042,-2.172236
2026-03-22T22:18:25.470841,1.990828,-0.095712,10.207781,-0.597426,0.365297,-2.417804
2026-03-22T22:18:25.479841,1.019342,-0.354137,9.657432,-0.585208,0.444709,-2.673145
2026-03-22T22:18:25.489841,0.880558,-1.540977,9.690931,-0.638964,0.436157,-2.768440
2026-03-22T22:18:25.498841,0.770488,-1.962114,9.834500,-0.767246,0.475253,-2.665815
2026-03-22T22:18:25.508841,0.090927,-2.316252,9.509077,-0.924849,0.514348,-2.585181
2026-03-22T22:18:25.518841,-0.181854,-3.369094,9.413364,-1.028696,0.496022,-2.594954
2026-03-22T22:18:25.527841,-0.976271,-4.790430,9.556933,-0.998153,0.434935,-2.678032
2026-03-22T22:18:25.537841,-2.732603,-6.245266,9.451649,-0.883310,0.326201,-2.691471
2026-03-22T22:18:25.547841,-3.962514,-7.637889,8.877371,-0.781907,0.200363,-2.624276
2026-03-22T22:18:25.556841,-4.067798,-9.772287,9.609575,-0.737925,-0.068416,-2.406808
2026-03-22T22:18:25.566841,-2.426322,-10.394421,10.973484,-0.569326,-0.257785,-1.923003
2026-03-22T22:18:25.575841,-2.775674,-11.298908,11.112268,-0.620638,-0.259006,-1.145982
2026-03-22T22:18:25.585841,-1.210768,-12.878171,8.786444,-0.808785,-0.436157,-0.101403
2026-03-22T22:18:25.595841,-1.550549,-12.189038,8.623732,-0.785572,-0.616973,1.160643
2026-03-22T22:18:25.604841,-3.412165,-11.164910,8.049455,-0.695164,-0.785572,2.219883
2026-03-22T22:18:25.614841,-3.598805,-9.657432,6.623332,-0.621860,-1.037248,2.803870
2026-03-22T22:18:25.623841,-2.277967,-7.791030,5.536991,-0.753807,-1.422093,3.055547
2026-03-22T22:18:25.633841,-1.153340,-8.178667,4.761716,-0.310319,-1.976759,3.188715
2026-03-22T22:18:25.643841,-0.172283,-6.800401,8.398807,-0.057421,-2.100154,3.359758
2026-03-22T22:18:25.652841,-0.172283,-6.628118,8.350950,-0.580321,-2.032959,3.474600
2026-03-22T22:18:25.662841,1.837687,-7.594818,8.001598,-1.299920,-2.113593,3.544239
2026-03-22T22:18:25.672841,3.919443,-8.389236,8.250452,-1.353677,-2.151466,3.833789
2026-03-22T22:18:25.681841,5.096712,-7.795816,9.025726,-1.125213,-2.097710,4.293160
2026-03-22T22:18:25.691841,4.766502,-8.628518,8.834301,-0.880867,-2.059837,4.949228
2026-03-22T22:18:25.700841,4.058227,-7.700103,8.786444,-0.465479,-2.155132,5.617515
2026-03-22T22:18:25.710841,4.058227,-5.647061,9.040083,-0.140498,-2.415360,6.025573
2026-03-22T22:18:25.720841,6.077769,-4.675575,9.327222,-0.030543,-2.605950,6.289467
2026-03-22T22:18:25.729841,9.470791,-4.283152,12.437891,0.199142,-2.711019,6.425079
2026-03-22T22:18:25.739841,14.395220,-2.177468,16.821543,0.906523,-2.532646,6.194172
2026-03-22T22:18:25.748841,18.123238,2.545963,20.922840,1.813047,-1.864360,5.422038
2026-03-22T22:18:25.758841,19.898712,7.010970,19.429720,2.547307,-1.108109,4.283386
2026-03-22T22:18:25.768841,20.693129,13.725230,16.218552,2.889391,-0.537561,2.897944
2026-03-22T22:18:25.777841,21.152552,18.501305,14.050654,2.317622,0.061086,1.257160
2026-03-22T22:18:25.787841,20.233707,19.798214,11.758330,1.194852,0.432492,-0.348193
2026-03-22T22:18:25.797841,19.042082,18.065809,10.834700,0.078190,0.869871,-1.793499
2026-03-22T22:18:25.806841,16.496119,12.835100,10.652846,-0.753807,1.481958,-2.945591
2026-03-22T22:18:25.816841,14.199009,8.193024,10.676774,-1.154535,2.017076,-3.739716
2026-03-22T22:18:25.825841,12.136396,5.240281,10.054640,-1.368337,2.447125,-4.191756
2026-03-22T22:18:25.835841,10.250852,3.120240,8.571090,-1.489289,2.736675,-4.404337
2026-03-22T22:18:25.845841,8.781658,1.406979,7.269395,-1.243721,2.894278,-4.575379
2026-03-22T22:18:25.854841,7.795816,0.143569,6.010770,-0.656069,2.996904,-5.033528
2026-03-22T22:18:25.864841,6.245266,-1.722832,4.862215,0.111177,2.934595,-5.597967
2026-03-22T22:18:25.873841,4.886143,-4.149154,5.570491,1.484402,2.750114,-6.203946
2026-03-22T22:18:25.883841,4.986642,-5.096712,5.589633,2.653598,2.569298,-6.897888
2026-03-22T22:18:25.893841,4.795216,-7.637889,5.795416,2.761110,2.119701,-7.149565
2026-03-22T22:18:25.902841,5.168496,-9.848857,5.173282,2.306626,1.587027,-7.105582
2026-03-22T22:18:25.912841,3.689732,-11.069197,4.771288,1.736078,1.225395,-7.075039
2026-03-22T22:18:25.922841,3.340380,-14.677573,3.421736,1.141096,1.076344,-6.960197
2026-03-22T22:18:25.931841,1.507478,-19.372292,2.177468,1.174082,1.357342,-6.746394
2026-03-22T22:18:25.941841,-1.191625,-22.186251,1.517049,1.567479,1.844812,-6.476391
2026-03-22T22:18:25.950841,-4.862215,-26.804398,1.737189,2.128254,1.929112,-5.710367
2026-03-22T22:18:25.960841,-10.179067,-31.623543,5.034498,2.761110,1.655444,-4.279720
2026-03-22T22:18:25.970841,-16.185053,-31.819754,10.427920,3.734829,0.708603,-2.127032
2026-03-22T22:18:25.979841,-16.156338,-30.235706,11.174481,4.238182,-0.208915,0.120951
2026-03-22T22:18:25.989841,-13.280165,-26.770899,11.873185,4.015827,-0.393397,2.218662
2026-03-22T22:18:25.998841,-7.436892,-21.080767,12.452248,3.122742,-0.177150,3.908314
2026-03-22T22:18:26.008841,-3.273381,-17.233109,11.289337,2.019520,0.240680,5.034750
2026-03-22T22:18:26.018841,-0.631705,-14.347364,10.246066,1.229060,0.681725,5.632176
2026-03-22T22:18:26.027841,0.330209,-11.849257,11.332407,0.233350,0.758694,6.082994
2026-03-22T22:18:26.037841,0.885344,-10.341779,11.370692,-1.075122,0.696386,6.500826
2026-03-22T22:18:26.047841,1.631905,-7.934599,10.509276,-2.261422,0.786794,6.818476
2026-03-22T22:18:26.056841,2.210968,-6.077769,10.375278,-3.343875,0.676838,7.186217
2026-03-22T22:18:26.066841,3.498306,-3.900300,10.341779,-4.410446,0.359188,7.627261
2026-03-22T22:18:26.075841,5.560919,-0.339780,10.868200,-5.607741,-0.017104,7.993780
2026-03-22T22:18:26.085841,7.996813,1.904686,11.868400,-6.893001,-0.513126,7.997446
2026-03-22T22:18:26.095841,9.590432,2.048256,13.160524,-7.423232,-1.196073,7.555179
2026-03-22T22:18:26.104841,11.227123,1.694118,13.318450,-6.371323,-1.910786,6.844132
2026-03-22T22:18:26.114841,12.437891,2.402393,13.634303,-3.853337,-2.320065,5.761679
2026-03-22T22:18:26.123841,15.285350,6.580262,15.199209,-0.927293,-2.511877,4.598592
2026-03-22T22:18:26.133841,14.663216,12.064611,18.568302,1.362229,-2.278526,3.172833
2026-03-22T22:18:26.143841,14.706287,13.672588,17.831314,1.955990,-1.986533,1.849699
2026-03-22T22:18:26.152841,13.634303,10.518848,16.079767,1.736078,-1.582140,1.056796
2026-03-22T22:18:26.162841,13.447663,8.666803,16.390835,1.457524,-0.834441,0.679282
2026-03-22T22:18:26.172841,12.739387,7.465606,15.979269,1.260825,0.289550,0.690277
2026-03-22T22:18:26.181841,11.370692,7.561319,16.161123,1.242499,1.275486,0.638964
2026-03-22T22:18:26.191841,9.853643,7.690531,13.969298,1.612683,1.816712,0.188146
2026-03-22T22:18:26.200841,6.800401,11.806186,13.734801,1.902233,1.679879,-1.018923
2026-03-22T22:18:26.210841,8.776873,13.021740,13.026526,0.852767,1.231504,-2.695136
2026-03-22T22:18:26.220841,9.566504,6.685546,11.495119,0.012217,1.032362,-4.003609
2026-03-22T22:18:26.229841,7.944171,2.775674,12.035897,0.233350,1.003040,-4.559497
2026-03-22T22:18:26.239841,6.297909,1.517049,12.878171,0.669508,1.045801,-4.765969
2026-03-22T22:18:26.248841,5.412564,0.741775,12.289536,1.055574,1.172861,-4.968776
2026-03-22T22:18:26.258841,5.063212,0.354137,11.586047,1.347568,1.319468,-5.172805
2026-03-22T22:18:26.268841,4.134797,0.014356,11.035697,1.540601,1.446528,-5.349956
2026-03-22T22:18:26.277841,3.718446,-1.191625,10.805986,1.557706,1.521054,-5.542990
2026-03-22T22:18:26.287841,3.326023,-2.833101,10.179067,1.631009,1.551597,-5.560093
2026-03-22T22:18:26.297841,2.770888,-2.986242,9.226723,1.760513,1.602910,-5.483125
2026-03-22T22:18:26.306841,1.416550,-2.014756,7.948956,1.714087,1.551597,-5.530772
2026-03-22T22:18:26.316841,0.660419,-1.598405,7.331608,1.246164,1.314581,-5.877744
2026-03-22T22:18:26.325841,0.440279,-4.570291,7.231109,0.668286,0.816115,-6.185620
2026-03-22T22:18:26.335841,2.780459,-5.948556,5.891129,0.431270,0.244346,-6.244263
2026-03-22T22:18:26.345841,4.603790,-7.594818,5.737988,0.395840,0.140498,-5.977925
2026-03-22T22:18:26.354841,9.600004,-12.011969,0.028713,0.448374,0.647517,-5.516111
2026-03-22T22:18:26.364841,2.167897,-12.557533,0.196211,1.533271,1.535714,-5.337739
2026-03-22T22:18:26.373841,0.200997,-13.969298,3.369094,2.134362,1.082452,-5.386608
2026-03-22T22:18:26.383841,-1.919043,-17.347963,3.488735,2.309070,0.442266,-5.888739
2026-03-22T22:18:26.393841,-5.589633,-22.320250,6.527620,2.831970,-0.021991,-6.302906
2026-03-22T22:18:26.402841,-8.494520,-30.111279,9.394221,3.679851,-0.416610,-5.855753
2026-03-22T22:18:26.412841,-10.523633,-34.729427,11.308479,4.240625,-0.443488,-4.164878
2026-03-22T22:18:26.422841,-7.623532,-28.771297,10.628917,3.888767,0.245567,-1.326799
2026-03-22T22:18:26.431841,-9.389435,-30.283562,14.663216,2.613280,1.350011,1.751961
2026-03-22T22:18:26.441841,-1.986042,-23.554945,11.897113,0.730594,1.150869,4.214969
2026-03-22T22:18:26.450841,2.522035,-18.142380,9.480363,-0.425162,0.950506,5.783670
2026-03-22T22:18:26.460841,2.818745,-12.782458,8.867800,-0.795346,0.954171,6.444626
2026-03-22T22:18:26.470841,3.249453,-9.523433,8.092526,-1.122770,0.889419,6.514265
2026-03-22T22:18:26.479841,4.264009,-7.446463,7.475177,-1.462411,0.697607,6.449513
2026-03-22T22:18:26.489841,4.144368,-5.120640,6.838686,-1.699426,0.564439,6.321232
2026-03-22T22:18:26.498841,3.488735,-2.924029,5.776273,-1.838703,0.492357,6.153855
2026-03-22T22:18:26.508841,5.469992,-3.536591,7.025327,-1.751961,0.553443,5.932721
2026-03-22T22:18:26.518841,4.436293,-1.942971,8.848657,-1.297477,0.911410,5.567424
2026-03-22T22:18:26.527841,4.771288,1.220339,11.686545,-0.959058,1.145982,5.068959
2026-03-22T22:18:26.537841,5.575276,4.474578,13.849657,-0.648738,1.176526,4.517958
2026-03-22T22:18:26.547841,5.771488,8.030312,13.634303,-0.180816,1.248608,3.903428
2026-03-22T22:18:26.556841,5.331208,11.126625,14.524433,0.224798,1.236390,3.390301
2026-03-22T22:18:26.566841,5.355136,12.811172,14.366506,0.549778,1.150869,2.899165
2026-03-22T22:18:26.575841,5.154139,14.873785,15.270993,0.805120,1.152091,2.313957
2026-03-22T22:18:26.585841,4.407579,16.768900,14.849857,1.112996,1.163087,1.541823
2026-03-22T22:18:26.595841,4.110869,18.166309,13.787443,1.660331,1.119104,0.624304
2026-03-22T22:18:26.604841,4.153940,19.156937,11.787044,2.163684,1.163087,-0.332310
2026-03-22T22:18:26.614841,4.699503,19.606789,10.772487,2.464229,1.345124,-1.529606
2026-03-22T22:18:26.623841,3.445664,21.568901,11.026126,2.334726,1.270599,-2.900387
2026-03-22T22:18:26.633841,2.502892,22.286749,9.265009,1.760513,0.759916,-4.140443
2026-03-22T22:18:26.643841,1.684547,21.511475,7.867600,1.172861,0.340862,-4.871038
2026-03-22T22:18:26.652841,0.555134,19.319649,8.336593,0.742811,0.058643,-4.988324
2026-03-22T22:18:26.662841,0.162711,16.113268,9.322436,0.695164,-0.054977,-5.012758
2026-03-22T22:18:26.672841,-0.602991,14.337793,9.911071,0.871093,-0.145385,-5.181358
2026-03-22T22:18:26.681841,-0.684347,13.567304,9.982855,0.756251,-0.291993,-5.345069
2026-03-22T22:18:26.691841,-0.545563,11.385049,10.403992,0.364075,-0.432492,-5.412264
2026-03-22T22:18:26.700841,0.588634,8.173882,10.528419,0.048869,-0.504574,-5.499008
2026-03-22T22:18:26.710841,1.363908,4.704289,10.183852,0.145385,-0.431270,-5.841092
2026-03-22T22:18:26.720841,0.622133,3.215953,9.714859,0.621860,-0.199142,-6.346888
2026-03-22T22:18:26.729841,0.636490,1.818545,9.537790,1.087339,0.070860,-6.680420
2026-03-22T22:18:26.739841,0.583848,0.803988,9.198010,1.495397,0.206472,-6.925988
2026-03-22T22:18:26.748841,0.866201,-0.258424,9.001798,1.952324,-0.030543,-7.117800
2026-03-22T22:18:26.758841,0.803988,-2.029113,9.178867,2.415360,-0.191811,-7.182551
2026-03-22T22:18:26.768841,1.182054,-3.440878,9.279366,2.882061,-0.235793,-6.963862
2026-03-22T22:18:26.777841,1.320838,-4.378865,9.231509,3.447722,-0.410501,-6.839245
2026-03-22T22:18:26.787841,1.588834,-4.800002,9.226723,4.043927,-0.774576,-7.243638
2026-03-22T22:18:26.797841,2.129612,-5.111069,9.360722,4.511849,-1.236390,-8.114732
2026-03-22T22:18:26.806841,2.067398,-4.670789,8.867800,4.773299,-1.477071,-8.436047
2026-03-22T22:18:26.816841,3.665804,-4.622933,7.738388,4.548501,-1.519832,-7.874051
2026-03-22T22:18:26.825841,6.494120,-5.886343,8.408378,4.244290,-1.654222,-7.776312
2026-03-22T22:18:26.835841,8.551947,-8.049455,10.073783,4.455650,-1.952324,-8.783018
2026-03-22T22:18:26.845841,9.714859,-8.906085,10.801201,4.703661,-2.172236,-9.798276
2026-03-22T22:18:26.854841,10.571490,-9.528219,12.155538,4.476419,-2.206444,-9.832484
2026-03-22T22:18:26.864841,12.605389,-10.638489,13.682159,3.599217,-1.809382,-8.607089
2026-03-22T22:18:26.873841,13.974083,-11.308479,15.682559,2.333504,-1.100778,-6.400644
2026-03-22T22:18:26.883841,14.103296,-10.820343,16.697117,1.154535,-0.346971,-3.718946
2026-03-22T22:18:26.893841,13.040883,-8.729016,16.510475,0.201585,0.092851,-0.941954
2026-03-22T22:18:26.902841,12.275179,-6.187839,15.199209,-0.482583,0.118507,1.429424
2026-03-22T22:18:26.912841,11.346764,-4.599005,13.289736,-0.928514,-0.222354,3.161837
2026-03-22T22:18:26.922841,9.930213,-3.177668,11.533404,-1.257160,-0.728151,4.412889
2026-03-22T22:18:26.931841,8.872586,-1.885544,10.447063,-1.554040,-1.098335,5.475794
2026-03-22T22:18:26.941841,8.030312,-0.693918,9.714859,-1.707978,-1.276708,6.267476
2026-03-22T22:18:26.950841,7.092326,0.000000,8.513662,-1.733635,-1.343903,6.774494
2026-03-22T22:18:26.960841,6.245266,1.244267,7.958527,-1.836260,-1.313359,7.197212
2026-03-22T22:18:26.970841,5.297709,2.426322,8.350950,-2.078163,-1.365894,7.694456
2026-03-22T22:18:26.979841,4.053441,4.847858,8.106882,-2.502103,-1.868025,8.177040
2026-03-22T22:18:26.989841,4.067798,5.139782,9.269794,-2.902831,-2.817309,7.832512
2026-03-22T22:18:26.998841,4.436293,6.135197,11.093125,-2.825862,-3.306001,7.925363
2026-03-22T22:18:27.008841,4.890929,7.479963,13.385449,-2.327396,-3.150842,8.400617
2026-03-22T22:18:27.018841,4.622933,10.174281,16.845470,-1.447750,-2.266309,8.851435
2026-03-22T22:18:27.027841,1.282552,14.299507,18.587444,-0.682947,-1.071457,8.935734
2026-03-22T22:18:27.037841,-3.603590,18.338593,19.812571,-0.245567,-0.057421,8.254009
2026-03-22T22:18:27.047841,-8.145168,20.602201,20.018353,-0.167377,0.594982,7.013953
2026-03-22T22:18:27.056841,-9.647860,21.229122,18.735800,-0.357966,0.853989,5.617515
2026-03-22T22:18:27.066841,-8.346165,20.650059,16.931612,-0.565661,1.093448,4.315151
2026-03-22T22:18:27.075841,-6.915257,19.893927,16.146767,-0.491135,1.530827,3.264463
2026-03-22T22:18:27.085841,-6.513263,19.764713,15.294922,-0.105068,2.098932,2.500881
2026-03-22T22:18:27.095841,-6.680760,19.817356,14.452648,0.307876,2.723236,1.947437
2026-03-22T22:18:27.104841,-7.537391,19.841284,13.782658,0.605978,3.297449,1.382998
2026-03-22T22:18:27.114841,-8.547162,20.037497,12.873385,0.764803,3.682294,0.739146
2026-03-22T22:18:27.123841,-9.198010,19.606789,11.681759,0.740368,3.754376,0.073303
2026-03-22T22:18:27.133841,-9.427721,18.721443,10.901699,0.563217,3.404962,-0.682947
2026-03-22T22:18:27.143841,-8.791230,17.070396,10.892128,0.238237,2.745227,-1.372003
2026-03-22T22:18:27.152841,-7.791030,14.610574,11.188838,-0.001221,2.118480,-1.988976
2026-03-22T22:18:27.162841,-6.226124,11.653046,11.298908,-0.056199,1.772730,-2.559524
2026-03-22T22:18:27.172841,-4.029513,9.068797,11.294122,0.068416,1.777617,-3.172833
2026-03-22T22:18:27.181841,-2.143969,6.800401,11.681759,0.414166,2.223549,-3.678629
2026-03-22T22:18:27.191841,-1.636690,5.737988,10.844272,0.889419,2.820975,-3.976731
2026-03-22T22:18:27.200841,-1.703689,5.053641,9.968498,1.222951,3.089755,-4.051257
2026-03-22T22:18:27.210841,-1.646261,4.455435,9.193224,1.296255,2.939482,-4.058587
2026-03-22T22:18:27.220841,-1.110269,3.689732,8.556733,1.148426,2.542420,-4.168543
2026-03-22T22:18:27.229841,-0.990628,2.861815,7.819744,0.862541,2.189340,-4.263838
2026-03-22T22:18:27.239841,-0.674775,2.464607,7.499106,0.514348,1.729969,-4.469089
2026-03-22T22:18:27.248841,-0.023928,2.153540,7.116254,0.128281,1.199739,-4.621805
2026-03-22T22:18:27.258841,0.550349,1.741974,6.762116,-0.254119,0.756251,-4.725652
2026-03-22T22:18:27.268841,0.861416,1.459621,6.130411,-0.641408,0.367740,-4.910133
2026-03-22T22:18:27.277841,1.560120,0.837487,5.316851,-1.064127,-0.086742,-5.253439
2026-03-22T22:18:27.287841,2.483749,0.674775,4.225724,-1.486845,-0.564439,-5.855753
2026-03-22T22:18:27.297841,4.168296,0.282353,2.660818,-2.001194,-1.253495,-6.483722
2026-03-22T22:18:27.306841,6.498906,-1.124626,0.545563,-2.653598,-2.070832,-6.971192
2026-03-22T22:18:27.316841,9.686145,-4.431507,-1.923829,-3.304780,-2.759888,-7.165447
2026-03-22T22:18:27.325841,13.653445,-7.920242,-4.522434,-3.838676,-3.060434,-6.962640
2026-03-22T22:18:27.335841,16.922041,-11.724830,-6.886543,-4.067139,-3.143511,-6.023129
2026-03-22T22:18:27.345841,17.587246,-15.275779,-9.164510,-3.645642,-3.200933,-4.361576
2026-03-22T22:18:27.354841,16.491333,-15.979269,-11.107482,-2.624276,-3.123964,-2.455677
2026-03-22T22:18:27.364841,14.553147,-13.801800,-7.264609,-1.197295,-2.886948,-0.624304
2026-03-22T22:18:27.373841,12.222537,-11.107482,-7.728816,0.288328,-2.517985,0.781907
2026-03-22T22:18:27.383841,10.025926,-7.575676,-6.733402,1.546710,-2.056171,1.407433
2026-03-22T22:18:27.393841,7.786244,-4.733003,-6.709474,2.583959,-1.772730,1.523497
2026-03-22T22:18:27.402841,7.484749,-2.656033,-5.283352,3.645642,-1.882686,1.415985
2026-03-22T22:18:27.412841,8.207381,-0.985842,-3.938585,4.658457,-2.449569,1.396437
2026-03-22T22:18:27.422841,8.829515,0.593420,-0.722632,5.499008,-3.459939,1.646892
2026-03-22T22:18:27.431841,10.174281,2.656033,3.469592,6.087881,-4.753751,2.124588
2026-03-22T22:18:27.441841,12.390035,3.680161,8.982656,6.357884,-6.221050,2.910161
2026-03-22T22:18:27.450841,13.342378,3.287738,14.859428,6.456844,-7.627261,4.013383
2026-03-22T22:18:27.460841,14.840285,0.081355,18.582661,6.871010,-8.238126,5.059185
2026-03-22T22:18:27.470841,15.156138,0.253639,25.162922,7.740882,-6.912549,5.673715
2026-03-22T22:18:27.479841,14.127224,3.019742,34.518860,8.385956,-3.710394,5.954713
2026-03-22T22:18:27.489841,4.259224,9.312865,43.616371,7.788530,-0.193033,5.948604
2026-03-22T22:18:27.498841,-0.579063,12.758530,45.406200,5.588194,2.095267,5.688375
2026-03-22T22:18:27.508841,-0.138783,14.620146,41.290546,2.871066,2.577850,5.764123
2026-03-22T22:18:27.518841,2.407179,14.179866,34.222149,0.965166,2.324952,6.282136
2026-03-22T22:18:27.527841,5.374279,13.313664,28.378876,0.367740,2.032959,6.889336
2026-03-22T22:18:27.537841,6.106483,12.969098,23.234306,0.675616,2.524094,7.202099
2026-03-22T22:18:27.547841,4.919643,13.849657,19.252649,1.158200,3.685960,7.023727
2026-03-22T22:18:27.556841,2.708675,15.079568,16.199409,1.523497,4.689000,6.494717
2026-03-22T22:18:27.566841,1.004985,15.744772,14.969498,1.745852,5.222896,5.814213
2026-03-22T22:18:27.575841,0.813559,15.974483,13.600803,2.013411,5.685932,5.158144
2026-03-22T22:18:27.585841,0.239282,17.788242,11.930613,2.302961,6.214941,4.466645
2026-03-22T22:18:27.595841,-1.579262,19.123438,11.538190,2.448347,6.759833,3.633425
2026-03-22T22:18:27.604841,-2.952743,19.865213,11.169695,2.434908,7.318164,2.591289
2026-03-22T22:18:27.614841,-3.991228,20.640488,10.815558,1.990198,7.827625,1.132543
2026-03-22T22:18:27.623841,-4.728217,20.664415,9.690931,1.139874,7.856947,-0.504574
2026-03-22T22:18:27.633841,-4.015156,19.602001,7.891528,0.065973,7.224090,-1.949881
2026-03-22T22:18:27.643841,-2.928814,17.769100,5.828915,-0.968832,6.087881,-3.034777
2026-03-22T22:18:27.652841,-1.856830,16.141981,3.699303,-1.830151,4.674339,-3.817906
2026-03-22T22:18:27.662841,-1.019342,13.978869,1.531406,-2.450790,3.219259,-4.354246
2026-03-22T22:18:27.672841,0.186640,11.815757,-0.512064,-2.739119,2.026850,-4.775743
2026-03-22T22:18:27.681841,1.191625,9.485148,-1.962114,-2.664593,1.314581,-5.193574
2026-03-22T22:18:27.691841,1.957328,7.460820,-2.440679,-2.271196,0.940732,-5.552764
2026-03-22T22:18:27.700841,2.651247,6.001199,-2.689532,-1.704313,0.796568,-5.843535
2026-03-22T22:18:27.710841,2.522035,4.656432,-2.617747,-1.087339,0.687834,-6.030460
2026-03-22T22:18:27.720841,2.522035,3.742374,-2.732603,-0.554665,0.515570,-6.230824
2026-03-22T22:18:27.729841,2.397608,3.153740,-2.378465,-0.078190,0.311541,-6.471504
2026-03-22T22:18:27.739841,2.282752,2.713460,-1.875972,0.386066,0.134390,-6.740285
2026-03-22T22:18:27.748841,1.727617,2.699103,-1.320838,0.786794,-0.048869,-7.054270
2026-03-22T22:18:27.758841,1.617548,2.397608,-1.124626,1.080009,-0.387288,-7.462328
2026-03-22T22:18:27.768841,2.627319,1.880758,-0.842273,1.219286,-0.823446,-8.107401
2026-03-22T22:18:27.777841,4.766502,0.181854,-0.942772,1.197295,-1.188743,-8.938178
2026-03-22T22:18:27.787841,7.475177,-1.459621,-0.674775,1.216843,-1.579697,-9.623568
2026-03-22T22:18:27.797841,11.260623,-4.522434,-0.827916,1.435533,-2.123367,-9.761623
2026-03-22T22:18:27.806841,16.677973,-8.748159,-0.564706,1.880242,-2.741562,-9.254606
2026-03-22T22:18:27.816841,18.324236,-11.475977,0.177068,2.605950,-3.345097,-8.189257
2026-03-22T22:18:27.825841,18.888941,-12.725030,5.010570,3.687181,-3.677407,-6.783046
2026-03-22T22:18:27.835841,17.831314,-12.605389,3.555734,4.901581,-3.742159,-5.347513
2026-03-22T22:18:27.845841,17.036896,-11.968898,5.565705,5.976704,-3.591886,-4.184426
2026-03-22T22:18:27.854841,16.668402,-11.887542,7.489534,6.787933,-3.382970,-3.326771
2026-03-22T22:18:27.864841,17.936598,-11.772687,12.088539,7.271738,-3.064099,-2.531425
2026-03-22T22:18:27.873841,18.094524,-11.877971,15.060425,7.294951,-2.580294,-1.587027
2026-03-22T22:18:27.883841,17.477177,-11.581261,18.534803,6.871010,-2.107484,-0.245567
2026-03-22T22:18:27.893841,15.811771,-11.940184,22.870598,6.030460,-1.723861,1.262047
2026-03-22T22:18:27.902841,14.352149,-10.676774,27.120251,4.537506,-1.246164,2.893057
2026-03-22T22:18:27.912841,12.169895,-7.393821,28.096521,2.516764,-0.830776,4.524067
2026-03-22T22:18:27.922841,10.332207,-3.785445,26.196621,0.290771,-0.861319,5.869191
2026-03-22T22:18:27.931841,10.116853,-2.139183,22.588245,-1.583362,-1.372003,6.873454
2026-03-22T22:18:27.941841,10.380064,-1.071984,19.305292,-2.665815,-1.732413,7.442780
2026-03-22T22:18:27.950841,10.346564,-0.210568,16.773685,-2.897944,-1.593136,7.739660
2026-03-22T22:18:27.960841,9.829715,0.660419,15.768700,-2.541198,-1.120326,7.925363
2026-03-22T22:18:27.970841,9.379864,1.842473,15.414563,-1.882686,-0.551000,8.111066
2026-03-22T22:18:27.979841,8.973084,3.527020,15.873985,-1.105665,0.136833,8.349304
2026-03-22T22:18:27.989841,8.451449,5.340780,17.218752,-0.332310,0.952949,8.630302
2026-03-22T22:18:27.998841,6.848258,8.087740,17.338392,0.359188,1.890016,8.866096
2026-03-22T22:18:28.008841,4.962714,10.983055,16.845470,0.791681,2.717128,8.933291
2026-03-22T22:18:28.018841,2.943171,13.581661,16.429119,0.905302,3.359758,8.658402
2026-03-22T22:18:28.027841,0.363709,17.103895,17.931812,0.759916,3.988949,7.817851
2026-03-22T22:18:28.037841,-2.258824,20.913269,17.314465,0.365297,4.361576,6.693859
2026-03-22T22:18:28.047841,-6.168696,23.176880,16.165909,-0.106290,4.312707,5.451360
2026-03-22T22:18:28.056841,-7.393821,23.827726,14.012369,-0.664621,4.101348,4.364020
2026-03-22T22:18:28.066841,-7.566105,23.258236,11.557333,-1.110552,3.816685,3.262019
2026-03-22T22:18:28.075841,-6.853043,21.736401,9.097511,-1.319468,3.563787,2.098932
2026-03-22T22:18:28.085841,-5.919843,20.152351,7.087540,-1.480737,3.434283,1.026253
2026-03-22T22:18:28.095841,-5.163711,18.247665,5.580062,-1.671326,3.282789,0.089186
2026-03-22T22:18:28.104841,-5.201996,16.094124,4.594219,-1.832595,3.050660,-0.680503
2026-03-22T22:18:28.114841,-5.479563,14.184652,3.474378,-1.820378,2.550972,-1.330464
2026-03-22T22:18:28.123841,-5.249852,12.634103,2.579462,-1.715309,1.864360,-1.959655
2026-03-22T22:18:28.133841,-4.704289,10.738987,2.057827,-1.547932,1.251051,-2.588846
2026-03-22T22:18:28.143841,-4.302295,8.920442,2.081755,-1.330464,0.862541,-3.280345
2026-03-22T22:18:28.152841,-3.373879,7.680960,2.139183,-0.968832,0.593760,-3.962071
2026-03-22T22:18:28.162841,-2.512463,6.522834,2.335394,-0.605978,0.445931,-4.598592
2026-03-22T22:18:28.172841,-1.990828,5.422136,2.828316,-0.335975,0.322536,-5.198461
2026-03-22T22:18:28.181841,-1.186840,4.742574,3.278166,-0.112399,0.171042,-5.788557
2026-03-22T22:18:28.191841,0.004785,4.230510,3.393022,0.059864,0.059864,-6.387205
2026-03-22T22:18:28.200841,1.100698,3.641875,3.369094,0.156381,-0.051312,-6.935762
2026-03-22T22:18:28.210841,1.301695,2.699103,3.048455,0.197920,-0.344527,-7.422011
2026-03-22T22:18:28.220841,2.493321,2.057827,2.191825,0.201585,-0.827111,-7.938802
2026-03-22T22:18:28.229841,4.101297,1.167697,1.646261,0.195476,-1.403768,-8.493468
2026-03-22T22:18:28.239841,6.599404,0.095712,1.028913,0.246789,-1.953546,-9.137320
2026-03-22T22:18:28.248841,9.614361,-2.000399,-0.090927,0.274889,-2.500881,-9.762846
2026-03-22T22:18:28.258841,12.236894,-4.785645,-1.526620,0.218689,-3.012786,-10.135473
2026-03-22T22:18:28.268841,19.334005,-7.738388,-0.713061,0.409279,-3.453831,-10.029183
2026-03-22T22:18:28.277841,21.138193,-10.375278,-0.842273,1.189965,-3.802024,-9.349901
2026-03-22T22:18:28.287841,22.224537,-11.901899,0.650847,2.693915,-3.813020,-8.260118
2026-03-22T22:18:28.297841,22.636101,-13.055240,2.641676,4.432437,-3.392744,-7.149565
2026-03-22T22:18:28.306841,22.612173,-13.146167,5.608776,6.006025,-2.834414,-5.964486
2026-03-22T22:18:28.316841,22.832314,-12.839886,9.260223,7.092143,-2.409251,-4.549723
2026-03-22T22:18:28.325841,22.009182,-13.203595,13.907084,7.490427,-2.046398,-2.866179
2026-03-22T22:18:28.335841,19.884356,-12.878171,18.644873,6.995627,-1.698205,-1.103222
2026-03-22T22:18:28.345841,17.371893,-12.141181,22.669601,5.469686,-1.554040,0.590095
2026-03-22T22:18:28.354841,16.328621,-11.676974,25.205994,3.299893,-1.650557,2.229657
2026-03-22T22:18:28.364841,16.352549,-10.045069,25.048065,1.106887,-1.726304,3.889989
2026-03-22T22:18:28.373841,16.936398,-8.212167,22.301105,-0.640186,-1.820378,5.511224
2026-03-22T22:18:28.383841,16.548761,-7.393821,18.711872,-1.574810,-1.715309,6.868567
2026-03-22T22:18:28.393841,16.266409,-6.628118,15.850056,-1.596801,-1.150869,7.782421
2026-03-22T22:18:28.402841,15.677773,-4.450650,14.471791,-0.962723,-0.217467,8.350526
2026-03-22T22:18:28.412841,14.873785,-1.067198,14.797214,-0.140498,0.823446,8.632745
2026-03-22T22:18:28.422841,12.547961,1.167697,15.668202,0.636521,1.738522,8.944286
2026-03-22T22:18:28.431841,10.748559,3.694518,15.754343,1.244943,2.564411,9.169085
2026-03-22T22:18:28.441841,9.131011,6.039484,15.964912,1.574810,3.417179,9.204515
2026-03-22T22:18:28.450841,7.599604,9.059226,16.170694,1.772730,4.177095,8.979717
2026-03-22T22:18:28.460841,5.245067,11.676974,14.864213,1.740965,4.774521,8.621750
2026-03-22T22:18:28.470841,2.426322,14.797214,16.888540,1.400102,5.147149,8.091519
2026-03-22T22:18:28.479841,-0.531206,17.649460,17.587246,0.613308,5.444029,7.123908
2026-03-22T22:18:28.489841,-3.263810,18.218950,16.074982,-0.263893,5.374390,5.820322
2026-03-22T22:18:28.498841,-5.527420,19.893927,14.103296,-1.037248,4.991989,4.453206
2026-03-22T22:18:28.508841,-5.800201,19.702501,11.552547,-1.546710,4.522845,3.437948
2026-03-22T22:18:28.518841,-5.709274,18.281164,9.121439,-1.769065,4.222299,2.526538
2026-03-22T22:18:28.527841,-5.934200,16.476976,7.255038,-1.698205,4.047592,1.558927
2026-03-22T22:18:28.537841,-5.752345,15.136995,5.249852,-1.425759,3.954740,0.597426
2026-03-22T22:18:28.547841,-6.116054,13.462019,4.039084,-1.177747,3.831345,-0.417831
2026-03-22T22:18:28.556841,-6.058626,12.241680,3.326023,-1.018923,3.478265,-1.413541
2026-03-22T22:18:28.566841,-5.426921,10.451849,2.589034,-0.907745,2.889391,-2.257757
2026-03-22T22:18:28.575841,-4.436293,8.647660,1.756331,-0.801455,2.236988,-2.966360
2026-03-22T22:18:28.585841,-3.574876,7.006184,1.392622,-0.620638,1.643227,-3.522248
2026-03-22T22:18:28.595841,-3.163311,5.800201,1.325623,-0.320093,1.127656,-3.963292
2026-03-22T22:18:28.604841,-2.684746,5.039284,1.138983,-0.046425,0.676838,-4.362798
2026-03-22T22:18:28.614841,-2.038684,4.177868,1.210768,0.120951,0.322536,-4.745200
2026-03-22T22:18:28.623841,-1.359123,3.527020,1.162911,0.227241,-0.006108,-5.119049
2026-03-22T22:18:28.633841,-0.870987,2.971885,1.138983,0.240680,-0.299323,-5.473351
2026-03-22T22:18:28.643841,-0.014356,2.206182,1.076770,0.266337,-0.625525,-5.816657
2026-03-22T22:18:28.652841,0.971485,1.004985,0.866201,0.411723,-1.104444,-6.179511
2026-03-22T22:18:28.662841,2.277967,-0.148355,0.464207,0.763581,-1.590692,-6.547252
2026-03-22T22:18:28.672841,4.335794,-1.282552,0.205782,1.259603,-1.955990,-6.973636
2026-03-22T22:18:28.681841,6.757331,-3.421736,-0.071784,1.789834,-2.177123,-7.301059
2026-03-22T22:18:28.691841,10.341779,-5.331208,0.473778,2.335948,-2.174679,-7.430563
2026-03-22T22:18:28.700841,13.763515,-7.657032,1.244267,3.130072,-2.085493,-7.246081
2026-03-22T22:18:28.710841,14.811571,-9.231509,2.737389,4.181982,-2.018298,-6.809924
2026-03-22T22:18:28.720841,16.261621,-11.686545,4.795216,5.257104,-1.997528,-5.970595
2026-03-22T22:18:28.729841,18.242880,-12.543176,6.814758,6.029238,-1.957211,-4.715878
2026-03-22T22:18:28.739841,18.491734,-12.825529,9.891928,6.669425,-1.930333,-3.130072
2026-03-22T22:18:28.748841,17.721245,-11.490334,12.634103,6.979744,-1.714087,-1.434311
2026-03-22T22:18:28.758841,15.577275,-9.389435,15.304493,6.754946,-1.552819,0.125838
2026-03-22T22:18:28.768841,13.261022,-7.570890,17.936598,5.915617,-1.497841,1.350011
2026-03-22T22:18:28.777841,10.810772,-6.092126,20.922840,4.500854,-1.461189,2.149023
2026-03-22T22:18:28.787841,9.288937,-5.369493,22.779671,2.718349,-1.583362,2.722014
2026-03-22T22:18:28.797841,9.633503,-5.106283,23.081165,0.968832,-1.737300,3.258354
2026-03-22T22:18:28.806841,10.451849,-4.972285,21.990040,-0.342084,-1.628566,3.836232
2026-03-22T22:18:28.816841,10.844272,-4.441078,19.841284,-1.040914,-1.347568,4.504519
2026-03-22T22:18:28.825841,10.997412,-4.149154,18.037096,-1.105665,-0.888197,5.128823
2026-03-22T22:18:28.835841,10.796415,-2.770888,16.950754,-0.719599,-0.252898,5.632176
2026-03-22T22:18:28.845841,9.633503,-1.081555,16.816757,-0.138055,0.516791,6.095212
2026-03-22T22:18:28.854841,7.915457,1.081555,16.907684,0.466700,1.271821,6.322453
2026-03-22T22:18:28.864841,5.292923,3.761517,17.271393,0.943175,1.932777,6.218606
2026-03-22T22:18:28.873841,3.483949,6.340979,17.769100,1.147204,2.615724,6.144081
2026-03-22T22:18:28.883841,1.622333,8.293523,18.702301,1.081231,3.314554,5.833761
2026-03-22T22:18:28.893841,-0.234496,11.284551,20.061424,0.753807,3.985283,5.225340
2026-03-22T22:18:28.902841,-2.569891,12.940384,20.214565,0.157603,4.467867,4.492302
2026-03-22T22:18:28.912841,-3.225524,16.113268,21.128622,-0.713490,4.536284,3.874106
2026-03-22T22:18:28.922841,-3.043670,14.873785,17.577675,-1.618792,4.362798,3.381749
2026-03-22T22:18:28.931841,-2.474178,14.285150,14.438291,-2.028072,4.298046,2.998125
2026-03-22T22:18:28.941841,-1.799402,12.969098,10.604989,-2.064724,4.408002,2.459342
2026-03-22T22:18:28.950841,-2.325823,13.404592,9.040083,-2.025628,4.517958,1.828930
2026-03-22T22:18:28.960841,-3.818944,13.021740,6.484549,-2.074497,4.448319,1.298699
2026-03-22T22:18:28.970841,-4.699503,12.638888,5.345565,-2.131919,4.279720,0.784350
2026-03-22T22:18:28.979841,-5.977270,12.303893,4.713860,-2.036624,4.089131,0.057421
2026-03-22T22:18:28.989841,-7.015755,11.901899,3.751945,-1.837482,3.800802,-0.755029
2026-03-22T22:18:28.998841,-7.326822,11.136196,2.603390,-1.563814,3.357314,-1.544267
2026-03-22T22:18:29.008841,-6.795616,10.394421,1.148554,-1.221730,2.894278,-2.300518
2026-03-22T22:18:29.018841,-5.967699,8.886943,0.306281,-0.941954,2.629163,-3.027447
2026-03-22T22:18:29.027841,-4.862215,7.436892,-0.401994,-0.736703,2.328617,-3.792250
2026-03-22T22:18:29.037841,-3.646661,5.752345,-1.052841,-0.657290,1.836260,-4.541171
2026-03-22T22:18:29.047841,-2.210968,4.656432,-1.459621,-0.636521,1.141096,-5.244888
2026-03-22T22:18:29.056841,-0.918843,3.943371,-1.473978,-0.715933,0.388510,-5.692040
2026-03-22T22:18:29.066841,0.253639,2.517249,-1.186840,-0.737925,-0.298102,-5.876522
2026-03-22T22:18:29.075841,1.028913,1.268195,-1.225125,-0.564439,-0.932180,-5.986478
2026-03-22T22:18:29.085841,2.057827,-0.114855,-1.359123,-0.260228,-1.508836,-6.113538
2026-03-22T22:18:29.095841,3.230310,-1.517049,-3.010170,0.207694,-1.974316,-6.334671
2026-03-22T22:18:29.104841,5.690132,-3.627519,-3.134597,0.764803,-2.223549,-6.635216
2026-03-22T22:18:29.114841,6.757331,-6.522834,-2.474178,1.444085,-2.180788,-6.820919
2026-03-22T22:18:29.123841,11.992826,-7.451249,-1.842473,2.382373,-2.052506,-6.653542
2026-03-22T22:18:29.133841,13.677373,-8.719445,-1.076770,3.659082,-1.930333,-6.195393
2026-03-22T22:18:29.143841,13.883156,-7.781459,-3.503092,5.158144,-1.841147,-5.485568
2026-03-22T22:18:29.152841,14.557932,-8.221738,2.498106,6.622999,-1.820378,-4.649905
2026-03-22T22:18:29.162841,15.529418,-6.025127,5.020141,7.693235,-1.830151,-3.878993
2026-03-22T22:18:29.172841,15.787843,-4.666004,8.288737,8.244235,-1.985311,-3.071429
2026-03-22T22:18:29.181841,15.515061,-3.637090,13.002598,8.186814,-2.361604,-2.197892
2026-03-22T22:18:29.191841,15.218351,-3.991228,16.969896,7.616266,-2.939482,-1.237612
2026-03-22T22:18:29.200841,14.830714,-5.618347,21.329620,6.680420,-3.392744,-0.166155
2026-03-22T22:18:29.210841,14.553147,-7.743173,26.273191,5.335295,-3.479487,1.043357
2026-03-22T22:18:29.220841,13.777872,-10.083354,31.527830,3.613877,-3.078760,2.317622
2026-03-22T22:18:29.229841,13.959727,-9.341579,33.011379,1.682322,-2.160019,3.799580
2026-03-22T22:18:29.239841,13.840085,-6.250052,29.666214,-0.034208,-1.147204,5.230227
2026-03-22T22:18:29.248841,12.997812,-3.010170,24.770498,-1.207069,-0.508239,6.388427
2026-03-22T22:18:29.258841,11.973684,-0.574277,20.109282,-1.754404,-0.151494,7.132461
2026-03-22T22:18:29.268841,10.638489,0.669990,16.792830,-1.650557,0.294436,7.439115
2026-03-22T22:18:29.277841,9.781858,1.651047,14.744572,-1.095892,0.897971,7.481875
2026-03-22T22:18:29.287841,8.135596,3.455235,13.557732,-0.312762,1.583362,7.520971
2026-03-22T22:18:29.297841,6.412764,5.077569,13.007383,0.388510,2.239431,7.694456
2026-03-22T22:18:29.306841,5.053641,6.642475,12.988241,0.885754,2.846631,7.755543
2026-03-22T22:18:29.316841,4.426721,8.633303,13.639088,1.112996,3.390301,7.629705
2026-03-22T22:18:29.325841,3.139383,11.389835,15.290136,1.020144,4.045148,7.338933
2026-03-22T22:18:29.335841,0.478564,14.490933,16.931612,0.596204,4.673118,6.734176
2026-03-22T22:18:29.345841,-2.225325,18.175880,17.692530,-0.156381,5.027419,5.854531
2026-03-22T22:18:29.354841,-6.034698,21.367905,20.171494,-0.818559,5.073845,4.707326
2026-03-22T22:18:29.364841,-8.886943,22.171894,17.079967,-1.200960,4.889364,3.413514
2026-03-22T22:18:29.373841,-9.102297,21.238693,13.820943,-1.725083,4.453206,2.282192
2026-03-22T22:18:29.383841,-7.647461,19.515862,10.231709,-2.193005,3.969401,1.138652
2026-03-22T22:18:29.393841,-6.264409,17.472389,7.417750,-2.246761,3.578447,0.340862
2026-03-22T22:18:29.402841,-4.929214,15.055639,5.489135,-2.254092,3.287676,-0.316428
2026-03-22T22:18:29.412841,-4.498506,12.926027,4.393222,-2.174679,2.996904,-0.863763
2026-03-22T22:18:29.422841,-4.307080,11.045269,3.402593,-1.901012,2.625498,-1.255938
2026-03-22T22:18:29.431841,-4.058227,9.432506,2.651247,-1.478293,2.210109,-1.576031
2026-03-22T22:18:29.441841,-3.943371,8.001598,2.067398,-1.006705,1.863138,-1.908342
2026-03-22T22:18:29.450841,-3.895515,6.958328,1.880758,-0.537561,1.580918,-2.267531
2026-03-22T22:18:29.460841,-3.560520,6.111268,1.923829,-0.131946,1.336572,-2.648711
2026-03-22T22:18:29.470841,-3.153740,5.235495,2.210968,0.161268,1.183856,-3.037221
2026-03-22T22:18:29.479841,-2.790031,4.378865,2.555534,0.436157,1.103222,-3.475822
2026-03-22T22:18:29.489841,-2.392822,3.617947,2.766102,0.724486,1.065348,-3.911980
2026-03-22T22:18:29.498841,-1.718046,2.928814,2.675175,0.944397,0.981049,-4.255286
2026-03-22T22:18:29.508841,-0.823130,2.210968,2.459821,1.029918,0.773355,-4.467867
2026-03-22T22:18:29.518841,-0.105284,1.560120,2.033899,1.020144,0.472809,-4.579044
2026-03-22T22:18:29.527841,0.928415,0.899701,1.282552,1.007927,0.118507,-4.621805
2026-03-22T22:18:29.537841,1.785045,0.258424,0.382851,0.978605,-0.272445,-4.603479
2026-03-22T22:18:29.547841,2.450250,-0.660419,-0.497707,1.025031,-0.720820,-4.548501
2026-03-22T22:18:29.556841,3.570091,-1.770688,-1.196411,1.290147,-1.171639,-4.486193
2026-03-22T22:18:29.566841,1.646261,-2.268395,-2.110469,1.822821,-1.492954,-4.422663
2026-03-22T22:18:29.575841,5.307280,-3.072384,-1.952543,2.629163,-1.704313,-4.331033
2026-03-22T22:18:29.585841,5.848058,-3.220739,-1.665404,3.643199,-1.919338,-4.401893
2026-03-22T22:18:29.595841,7.389036,-3.761517,-1.191625,4.856377,-2.111149,-4.554610
2026-03-22T22:18:29.604841,9.064012,-3.029313,0.129212,6.036569,-2.255313,-4.735426
2026-03-22T22:18:29.614841,11.385049,-2.478964,1.938186,6.979744,-2.425134,-4.775743
2026-03-22T22:18:29.623841,13.854442,-2.407179,4.828716,7.634592,-2.463008,-4.597370
2026-03-22T22:18:29.633841,16.027124,-2.660818,6.537191,8.186814,-2.362826,-4.096461
2026-03-22T22:18:29.643841,16.917255,-3.091526,13.337593,8.476364,-2.147801,-3.105638
2026-03-22T22:18:29.652841,17.027325,-3.287738,18.271593,8.345639,-2.144136,-1.578475
2026-03-22T22:18:29.662841,15.558132,-2.938386,24.674786,7.618709,-2.337169,0.309097
2026-03-22T22:18:29.672841,12.035897,-1.674975,31.350761,5.838648,-2.723236,2.317622
2026-03-22T22:18:29.681841,7.757530,-0.866201,36.136406,2.981021,-3.447722,4.003609
2026-03-22T22:18:29.691841,6.723831,-0.751346,36.902111,-0.175929,-4.120896,4.834386
2026-03-22T22:18:29.700841,9.073583,-0.669990,33.322449,-2.607172,-4.170986,5.426925
2026-03-22T22:18:29.710841,11.815757,-0.354137,27.780670,-3.468492,-3.661525,6.089103
2026-03-22T22:18:29.720841,12.926027,2.048256,22.439890,-2.818531,-2.480112,6.764720
2026-03-22T22:18:29.729841,12.318250,4.723431,18.778872,-1.601688,-0.470366,7.316942
2026-03-22T22:18:29.739841,10.585847,7.891528,17.635101,-0.417831,1.770287,7.467215
2026-03-22T22:18:29.748841,7.633104,11.241480,18.027525,0.456927,3.601660,7.292507
2026-03-22T22:18:29.758841,4.579862,13.610374,20.099709,0.839328,4.795291,6.950423
2026-03-22T22:18:29.768841,1.100698,18.582661,17.395821,0.702494,5.727471,6.311458
2026-03-22T22:18:29.777841,-1.952543,19.324434,19.726429,0.161268,6.365214,5.392717
2026-03-22T22:18:29.787841,-4.005585,21.195621,18.472589,-0.544891,6.406753,4.389676
2026-03-22T22:18:29.797841,-5.867201,21.836899,15.912270,-1.268155,5.910730,3.622430
2026-03-22T22:18:29.806841,-6.254838,20.779270,12.457034,-2.185675,4.938233,2.998125
2026-03-22T22:18:29.816841,-5.905486,18.821941,9.891928,-3.040886,3.926640,2.492329
2026-03-22T22:18:29.825841,-4.828716,16.716257,7.934599,-3.367088,3.255911,1.923003
2026-03-22T22:18:29.835841,-4.283152,15.132210,6.192624,-3.235141,3.076316,1.240056
2026-03-22T22:18:29.845841,-4.359722,13.978869,4.627718,-2.901609,3.128851,0.585208
2026-03-22T22:18:29.854841,-4.086941,12.433106,3.938585,-2.493551,3.247358,-0.046425
2026-03-22T22:18:29.864841,-3.976871,10.930413,2.689532,-2.001194,3.264463,-0.621860
2026-03-22T22:18:29.873841,-3.574876,9.681360,1.584048,-1.561371,3.127629,-1.097113
2026-03-22T22:18:29.883841,-3.306880,8.312665,0.985842,-1.144761,2.912604,-1.540601
2026-03-22T22:18:29.893841,-3.010170,7.235895,0.133998,-0.792902,2.702467,-1.944994
2026-03-22T22:18:29.902841,-2.550748,6.106483,-0.473778,-0.532674,2.495994,-2.317622
2026-03-22T22:18:29.912841,-2.172682,5.158925,-1.129412,-0.299323,2.232101,-2.640159
2026-03-22T22:18:29.922841,-2.201396,4.570291,-1.899901,-0.091629,1.881464,-2.951700
2026-03-22T22:18:29.931841,-2.053041,3.986442,-2.823530,-0.053756,1.367116,-3.226589
2026-03-22T22:18:29.941841,-1.713260,3.139383,-3.469592,-0.174707,0.722042,-3.440392
2026-03-22T22:18:29.950841,-1.129412,2.493321,-4.733003,-0.260228,0.070860,-3.600438
2026-03-22T22:18:29.960841,-0.215354,1.272981,-4.651647,-0.315206,-0.529009,-3.652973
2026-03-22T22:18:29.970841,0.435493,0.153140,-4.321437,-0.260228,-0.944397,-3.674964
2026-03-22T22:18:29.979841,0.957129,-0.090927,-4.718646,-0.035430,-1.345124,-3.720168
2026-03-22T22:18:29.989841,1.938186,-0.890130,-4.675575,0.368962,-1.547932,-3.643199
2026-03-22T22:18:29.998841,4.431507,-3.158525,-2.158325,0.983492,-1.188743,-3.222924
2026-03-22T22:18:30.008841,2.713460,-1.048056,-3.469592,1.971872,-0.910189,-3.126407
2026-03-22T22:18:30.018841,3.062812,-0.636490,-3.656232,2.625498,-1.698205,-3.602882
2026-03-22T22:18:30.027841,4.943571,-0.440279,-2.732603,2.915048,-2.949256,-4.107457
2026-03-22T22:18:30.037841,7.977670,-0.722632,-0.832702,3.196046,-3.905871,-4.393341
2026-03-22T22:18:30.047841,11.619546,-1.531406,1.770688,3.872884,-4.280942,-4.448319
2026-03-22T22:18:30.056841,14.514861,-2.167897,5.178068,4.796512,-4.318816,-4.467867
2026-03-22T22:18:30.066841,17.395821,-2.124826,8.690731,5.767788,-4.168543,-4.305377
2026-03-22T22:18:30.075841,19.405790,-1.603191,11.739187,6.734176,-3.681073,-3.594330
2026-03-22T22:18:30.085841,19.802999,-1.909472,19.850857,7.490427,-3.218037,-2.194227
2026-03-22T22:18:30.095841,18.204594,-1.957328,23.042881,7.778756,-3.174055,-0.444709
2026-03-22T22:18:30.104841,14.500504,-1.909472,29.001009,6.936984,-3.258354,1.138652
2026-03-22T22:18:30.114841,9.906285,-2.134397,34.528431,4.790404,-3.154507,2.332282
2026-03-22T22:18:30.123841,7.743173,-3.182454,37.835312,2.029293,-2.940704,3.342653
2026-03-22T22:18:30.133841,8.829515,-2.517249,35.509487,-0.481361,-2.715906,4.399450
2026-03-22T22:18:30.143841,10.088140,-0.870987,30.149565,-2.172236,-2.475225,5.599189
2026-03-22T22:18:30.152841,11.136196,2.445464,24.741785,-2.768440,-2.041511,6.923545
2026-03-22T22:18:30.162841,11.739187,5.417350,21.262621,-2.648711,-1.037248,8.021880
2026-03-22T22:18:30.172841,11.365907,7.570890,19.587645,-1.918116,0.808785,8.862431
2026-03-22T22:18:30.181841,9.212367,10.911271,18.319448,-0.783129,2.537533,8.900304
2026-03-22T22:18:30.191841,6.034698,14.524433,16.878969,0.065973,3.756820,8.566772
2026-03-22T22:18:30.200841,3.531806,16.491333,17.563316,0.421496,4.660900,8.098849
2026-03-22T22:18:30.210841,-0.004785,18.075380,17.879169,0.671951,5.373169,7.310833
2026-03-22T22:18:30.220841,-2.268395,19.788643,17.113466,0.685390,5.847200,6.317566
2026-03-22T22:18:30.229841,-3.751945,21.004196,16.634901,0.311541,5.911952,5.286426
2026-03-22T22:18:30.239841,-5.134997,21.487547,15.567703,-0.405614,5.597967,4.179539
2026-03-22T22:18:30.248841,-5.455635,21.372690,13.088739,-1.243721,5.007871,3.130072
2026-03-22T22:18:30.258841,-5.139782,20.008781,10.241280,-2.240653,4.315151,2.301739
2026-03-22T22:18:30.268841,-3.742374,18.908085,7.733602,-2.928487,3.662747,1.633453
2026-03-22T22:18:30.277841,-3.196810,17.070396,5.603990,-3.326771,3.097086,0.709825
2026-03-22T22:18:30.287841,-3.048455,15.285350,4.106083,-3.309667,2.808757,-0.129503
2026-03-22T22:18:30.297841,-3.201596,13.581661,2.641676,-2.814866,2.717128,-0.772133
2026-03-22T22:18:30.306841,-3.172882,12.667602,1.048056,-2.114815,2.500881,-1.365894
2026-03-22T22:18:30.316841,-3.058027,11.284551,0.244067,-1.501506,2.234544,-2.074497
2026-03-22T22:18:30.325841,-2.392822,9.944570,-0.062213,-0.952949,2.018298,-2.847853
2026-03-22T22:18:30.335841,-1.162911,8.571090,-0.153140,-0.531452,1.858251,-3.627317
2026-03-22T22:18:30.345841,-0.574277,7.795816,-0.282353,-0.310319,1.733635,-4.334698
2026-03-22T22:18:30.354841,0.028713,6.862615,-0.301495,-0.301767,1.536936,-4.937012
2026-03-22T22:18:30.364841,0.708275,6.044269,-0.516849,-0.404392,1.323133,-5.453803
2026-03-22T22:18:30.373841,1.540977,5.187639,-0.794417,-0.607199,1.026253,-5.860639
2026-03-22T22:18:30.383841,2.316252,4.125226,-0.784845,-0.828333,0.610865,-6.045121
2026-03-22T22:18:30.393841,3.168097,2.694318,-0.966700,-0.850324,0.149051,-5.998695
2026-03-22T22:18:30.402841,3.455235,1.689332,-1.435693,-0.621860,-0.342084,-5.914396
2026-03-22T22:18:30.412841,3.608376,0.885344,-2.723032,-0.293215,-0.871093,-5.853309
2026-03-22T22:18:30.422841,3.986442,0.344566,-4.225724,-0.026878,-1.499062,-5.860639
2026-03-22T22:18:30.431841,5.345565,-0.981057,-4.728217,0.245567,-2.109928,-5.922948
2026-03-22T22:18:30.441841,7.211967,-2.837887,-5.072783,0.967610,-2.570520,-6.064668
2026-03-22T22:18:30.450841,8.968299,-3.756731,-3.962514,2.025628,-2.640159,-6.238154
2026-03-22T22:18:30.460841,11.179267,-4.819144,-2.129612,3.459939,-2.570520,-6.357884
2026-03-22T22:18:30.470841,13.136596,-5.254638,0.114855,5.194796,-2.414138,-6.487387
2026-03-22T22:18:30.479841,14.419148,-4.555934,2.526820,6.786711,-2.174679,-6.410418
2026-03-22T22:18:30.489841,16.376476,-3.967299,4.938785,7.799525,-2.043954,-5.887517
2026-03-22T22:18:30.498841,18.013168,-5.398207,10.944770,8.183149,-2.301739,-4.979772
2026-03-22T22:18:30.508841,19.429720,-6.608976,14.165509,7.959572,-2.987130,-3.464826
2026-03-22T22:18:30.518841,19.578074,-9.284151,19.506289,7.198434,-4.020714,-1.618792
2026-03-22T22:18:30.527841,18.434305,-12.212966,28.441090,5.764123,-4.702439,0.322536
2026-03-22T22:18:30.537841,17.123037,-14.337793,34.432716,3.554013,-4.676783,2.201557
2026-03-22T22:18:30.547841,15.649059,-13.629517,36.653255,1.159421,-4.129448,3.865554
2026-03-22T22:18:30.556841,15.337992,-9.700502,33.260235,-0.786794,-3.292562,5.397604
2026-03-22T22:18:30.566841,15.763915,-5.804987,27.541388,-1.743409,-2.659706,6.685307
2026-03-22T22:18:30.575841,15.653845,-1.512263,21.339191,-1.643227,-2.002415,7.523414
2026-03-22T22:18:30.585841,14.194223,1.454836,18.137594,-0.952949,-0.774576,8.130614
2026-03-22T22:18:30.595841,12.452248,4.924428,17.237894,0.070860,0.825889,8.513016
2026-03-22T22:18:30.604841,9.647860,9.312865,18.013168,1.117883,2.395812,8.510572
2026-03-22T22:18:30.614841,5.675775,13.399806,19.582861,1.858251,3.738494,8.067084
2026-03-22T22:18:30.623841,2.311466,16.476976,18.625731,2.249205,4.691444,7.391467
2026-03-22T22:18:30.633841,0.607776,17.252251,19.453648,2.185675,5.336517,6.558247
2026-03-22T22:18:30.643841,-2.076970,20.133209,19.707287,1.865582,6.103764,5.567424
2026-03-22T22:18:30.652841,-4.953142,21.410976,19.281364,1.386663,6.824585,4.161213
2026-03-22T22:18:30.662841,-6.647261,21.875183,17.166109,0.447153,6.869789,2.632828
2026-03-22T22:18:30.672841,-6.025127,21.487547,14.246865,-0.885754,6.050008,1.358564
2026-03-22T22:18:30.681841,-4.292723,19.664215,11.207981,-2.186897,4.853934,0.403170
2026-03-22T22:18:30.691841,-2.746960,17.376677,8.963513,-3.144733,3.826459,-0.276111
2026-03-22T22:18:30.700841,-1.440479,15.716058,7.202396,-3.632203,3.166724,-0.810007
2026-03-22T22:18:30.710841,-1.062413,13.916656,5.402993,-3.656638,2.809979,-1.100778
2026-03-22T22:18:30.720841,-1.225125,12.370892,3.795016,-3.323106,2.574185,-1.323133
2026-03-22T22:18:30.729841,-1.636690,11.413763,2.263610,-2.825862,2.296852,-1.585805
2026-03-22T22:18:30.739841,-1.981257,10.226923,1.191625,-2.317622,1.987755,-1.913229
2026-03-22T22:18:30.748841,-2.153540,9.212367,0.473778,-1.813047,1.751961,-2.382373
2026-03-22T22:18:30.758841,-2.000399,8.279166,0.153140,-1.342681,1.582140,-2.950478
2026-03-22T22:18:30.768841,-1.497906,7.326822,-0.157926,-0.961501,1.441641,-3.535687
2026-03-22T22:18:30.777841,-0.847059,6.226124,-0.215354,-0.714712,1.293812,-4.105013
2026-03-22T22:18:30.787841,-0.129212,5.082355,-0.483350,-0.557108,1.099557,-4.609588
2026-03-22T22:18:30.797841,0.574277,3.981656,-0.823130,-0.482583,0.861319,-5.024976
2026-03-22T22:18:30.806841,1.009771,2.751745,-1.086341,-0.510683,0.524122,-5.318192
2026-03-22T22:18:30.816841,1.138983,1.708475,-1.770688,-0.559552,0.072082,-5.507559
2026-03-22T22:18:30.825841,1.579262,0.708275,-2.751745,-0.516791,-0.582765,-5.710367
2026-03-22T22:18:30.835841,2.799602,-0.315852,-3.847658,-0.373849,-1.265712,-5.993808
2026-03-22T22:18:30.845841,5.580062,-2.148754,-3.742374,0.094073,-1.738522,-6.302906
2026-03-22T22:18:30.854841,7.609175,-3.450450,-4.302295,0.897971,-1.847256,-6.696303
2026-03-22T22:18:30.864841,9.552147,-4.957928,-3.751945,2.015854,-1.885129,-7.001735
2026-03-22T22:18:30.873841,11.590832,-5.771488,-1.990828,3.352427,-1.816712,-7.089700
2026-03-22T22:18:30.883841,13.399806,-6.144768,-0.234496,4.725652,-1.681100,-6.930875
2026-03-22T22:18:30.893841,14.993426,-6.541976,2.177468,5.898513,-1.561371,-6.483722
2026-03-22T22:18:30.902841,15.763915,-7.365107,5.134997,6.712185,-1.492954,-5.817879
2026-03-22T22:18:30.912841,16.912470,-7.197610,8.752945,7.224090,-1.478293,-4.980994
2026-03-22T22:18:30.922841,16.376476,-7.231109,12.935598,7.249747,-1.533271,-3.874106
2026-03-22T22:18:30.931841,15.816557,-7.886743,17.300106,6.775715,-2.075719,-2.557081
2026-03-22T22:18:30.941841,15.160923,-8.776873,22.698315,5.596746,-2.972469,-1.066570
2026-03-22T22:18:30.950841,14.945569,-10.509276,25.938196,3.930306,-3.767816,0.426383
2026-03-22T22:18:30.960841,14.663216,-12.050254,29.312077,1.923003,-4.189312,1.907120
2026-03-22T22:18:30.970841,15.562918,-12.643674,29.522646,-0.106290,-4.438545,3.502700
2026-03-22T22:18:30.979841,16.855042,-11.064411,26.325834,-1.535714,-4.373794,5.229005
2026-03-22T22:18:30.989841,17.089539,-8.389236,22.200607,-1.927890,-3.743381,6.685307
2026-03-22T22:18:30.998841,16.094124,-4.790430,19.415361,-1.527162,-2.722014,7.541740
2026-03-22T22:18:31.008841,15.098710,-1.263410,17.716457,-0.764803,-1.549153,7.866720
2026-03-22T22:18:31.018841,13.155738,1.435693,16.649260,0.062308,-0.196698,7.991337
2026-03-22T22:18:31.027841,11.428120,3.177668,16.634901,0.873537,1.048244,8.123284
2026-03-22T22:18:31.037841,10.064211,5.422136,17.032110,1.514945,1.987755,8.274778
2026-03-22T22:18:31.047841,9.288937,8.097311,17.864813,1.836260,2.794097,8.373738
2026-03-22T22:18:31.056841,7.125825,10.829915,18.975082,1.813047,3.601660,8.200253
2026-03-22T22:18:31.066841,4.058227,13.686945,19.836498,1.523497,4.415333,7.725000
2026-03-22T22:18:31.075841,0.866201,16.677973,19.683357,1.040914,5.161810,6.863680
2026-03-22T22:18:31.085841,-2.799602,19.936996,19.180864,0.443488,5.767788,5.542990
2026-03-22T22:18:31.095841,-5.096712,20.889341,18.324236,-0.157603,6.030460,4.172208
2026-03-22T22:18:31.104841,-4.713860,19.960926,13.217952,-0.950506,5.794666,3.004234
2026-03-22T22:18:31.114841,-3.881158,18.778872,11.160124,-1.648114,5.235114,2.040289
2026-03-22T22:18:31.123841,-3.412165,17.501104,8.049455,-2.185675,4.613253,1.198517
2026-03-22T22:18:31.133841,-3.531806,16.237694,6.273980,-2.691471,4.040261,0.481361
2026-03-22T22:18:31.143841,-3.948157,14.591432,4.838287,-3.029890,3.459939,-0.113620
2026-03-22T22:18:31.152841,-4.110869,13.442877,3.488735,-3.166724,2.849074,-0.662177
2026-03-22T22:18:31.162841,-3.962514,12.155538,2.589034,-3.121520,2.287078,-1.165530
2026-03-22T22:18:31.172841,-3.689732,10.662417,1.737189,-2.863735,1.938885,-1.692096
2026-03-22T22:18:31.181841,-3.000599,9.178867,1.138983,-2.474003,1.838703,-2.309070
2026-03-22T22:18:31.191841,-2.378465,8.039883,0.851844,-1.980424,1.843590,-3.032334
2026-03-22T22:18:31.200841,-1.789831,6.977470,0.827916,-1.488067,1.780060,-3.727498
2026-03-22T22:18:31.210841,-1.182054,5.938985,0.952343,-1.066570,1.617570,-4.342029
2026-03-22T22:18:31.220841,-0.512064,4.991427,0.847059,-0.740368,1.343903,-4.852712
2026-03-22T22:18:31.229841,0.378065,3.871586,0.861416,-0.499687,1.001818,-5.277874
2026-03-22T22:18:31.239841,1.378265,3.101098,0.794417,-0.279776,0.590095,-5.641950
2026-03-22T22:18:31.248841,2.282752,2.158325,0.693918,-0.107512,0.212581,-5.920504
2026-03-22T22:18:31.258841,2.608176,1.450050,0.100498,0.039095,-0.194255,-6.126977
2026-03-22T22:18:31.268841,3.192025,0.583848,0.148355,0.206472,-0.667064,-6.194172
2026-03-22T22:18:31.277841,3.991228,0.081355,-0.914058,0.458148,-1.127656,-6.279693
2026-03-22T22:18:31.287841,5.752345,-1.105484,-1.296909,0.856432,-1.512502,-6.477613
2026-03-22T22:18:31.297841,7.680960,-2.110469,-2.187039,1.533271,-1.717752,-6.842910
2026-03-22T22:18:31.306841,9.762716,-3.005385,-2.201396,2.430021,-1.881464,-7.371920
2026-03-22T22:18:31.316841,13.050454,-4.776073,-1.272981,3.524691,-2.069610,-7.883825
2026-03-22T22:18:31.325841,16.831114,-5.982056,0.349352,4.830721,-2.247983,-8.232018
2026-03-22T22:18:31.335841,20.482561,-7.848458,3.603590,6.043899,-2.463008,-8.036541
2026-03-22T22:18:31.345841,22.631315,-9.198010,7.934599,6.934540,-2.701245,-7.037166
2026-03-22T22:18:31.354841,23.181665,-11.763115,12.801600,7.415902,-2.918713,-5.315747
2026-03-22T22:18:31.364841,23.286949,-12.308679,19.525433,7.467215,-3.010343,-3.485596
2026-03-22T22:18:31.373841,20.554346,-13.179666,21.028126,6.774494,-2.671923,-1.760513
2026-03-22T22:18:31.383841,17.343178,-13.447663,26.871397,5.062850,-2.207666,-0.235793
2026-03-22T22:18:31.393841,15.141781,-13.270594,30.427132,2.505768,-2.367713,1.282816
2026-03-22T22:18:31.402841,15.558132,-12.394821,28.421946,-0.178372,-2.897944,2.781879
2026-03-22T22:18:31.412841,16.711473,-11.691331,23.574087,-1.982868,-3.121520,4.166100
2026-03-22T22:18:31.422841,18.491734,-11.011769,18.917656,-2.516764,-2.908939,5.524664
2026-03-22T22:18:31.431841,19.396219,-10.174281,15.754343,-1.902233,-2.289522,6.811145
2026-03-22T22:18:31.441841,18.582661,-8.015955,13.572089,-0.574213,-1.285260,7.772647
2026-03-22T22:18:31.450841,17.123037,-4.589433,12.102896,0.579100,0.017104,8.351747
2026-03-22T22:18:31.460841,15.735201,-1.469193,12.174681,1.353677,1.005483,8.680393
2026-03-22T22:18:31.470841,13.739587,1.201196,12.854243,1.846034,1.601688,8.955282
2026-03-22T22:18:31.479841,11.437692,3.421736,13.208380,1.987755,2.057393,9.222841
2026-03-22T22:18:31.489841,9.652646,5.402993,13.624731,1.775174,2.321287,9.384109
2026-03-22T22:18:31.498841,8.044669,6.939185,13.395020,1.374446,2.460564,9.370670
2026-03-22T22:18:31.508841,7.030112,9.020941,13.462019,0.985936,2.636493,9.231393
2026-03-22T22:18:31.518841,5.972485,11.365907,13.538590,0.757472,2.935817,8.936956
2026-03-22T22:18:31.527841,4.153940,13.634303,13.753944,0.586430,3.367088,8.297991
2026-03-22T22:18:31.537841,1.990828,16.228123,14.175081,0.498465,3.704286,7.424454
2026-03-22T22:18:31.547841,-1.191625,19.759930,14.199009,0.610865,3.971844,6.313901
2026-03-22T22:18:31.556841,-5.178068,21.903898,13.380663,0.725707,4.293160,4.978550
2026-03-22T22:18:31.566841,-6.312266,21.535402,11.777472,0.591317,4.467867,3.541795
2026-03-22T22:18:31.575841,-6.015556,21.138193,8.982656,-0.013439,4.326146,2.006081
2026-03-22T22:18:31.585841,-5.809773,20.094925,8.097311,-0.713490,3.954740,0.586430
2026-03-22T22:18:31.595841,-5.292923,19.042082,6.829115,-1.337794,3.369531,-0.524122
2026-03-22T22:18:31.604841,-4.407579,17.448462,5.340780,-1.874134,2.642602,-1.321912
2026-03-22T22:18:31.614841,-3.780659,15.629917,3.531806,-2.186897,1.825264,-1.938885
2026-03-22T22:18:31.623841,-3.282952,13.931013,1.828116,-2.232101,1.058018,-2.502103
2026-03-22T22:18:31.633841,-3.000599,12.078968,0.981057,-2.050063,0.551000,-3.122742
2026-03-22T22:18:31.643841,-3.005385,10.743773,0.512064,-1.717752,0.234572,-3.833789
2026-03-22T22:18:31.652841,-2.416750,9.499505,0.847059,-1.319468,0.003665,-4.597370
2026-03-22T22:18:31.662841,-1.426122,8.494520,1.363908,-0.929736,-0.166155,-5.378056
2026-03-22T22:18:31.672841,-0.598205,7.771887,1.933400,-0.662177,-0.360410,-6.180733
2026-03-22T22:18:31.681841,1.249053,6.738188,1.986042,-0.519235,-0.488692,-6.802593
2026-03-22T22:18:31.691841,3.019742,5.345565,2.249253,-0.212581,-0.542448,-7.334046
2026-03-22T22:18:31.700841,4.948357,3.852444,2.115255,0.266337,-0.553443,-7.753099
2026-03-22T22:18:31.710841,6.733402,2.153540,1.952543,0.921184,-0.591317,-8.030432
2026-03-22T22:18:31.720841,8.231309,0.660419,2.014756,1.709200,-0.605978,-8.244235
2026-03-22T22:18:31.729841,9.580861,-0.856630,2.694318,2.627941,-0.713490,-8.417721
2026-03-22T22:18:31.739841,10.604989,-1.756331,2.924029,3.563787,-0.886976,-8.622971
2026-03-22T22:18:31.748841,13.548161,-2.770888,3.369094,4.469089,-1.127656,-8.785462
2026-03-22T22:18:31.758841,16.055840,-4.345365,5.929414,5.312083,-1.356120,-8.884422
2026-03-22T22:18:31.768841,19.123438,-5.848058,8.370093,6.030460,-1.442863,-8.743923
2026-03-22T22:18:31.777841,21.257835,-7.647461,10.944770,6.622999,-1.584584,-8.126949
2026-03-22T22:18:31.787841,22.325033,-10.284351,14.041083,6.835580,-1.793499,-6.945536
2026-03-22T22:18:31.797841,22.028324,-13.457234,17.692530,6.582682,-1.890016,-5.480681
2026-03-22T22:18:31.806841,20.597416,-16.323835,22.363319,5.742132,-1.761734,-3.900984
2026-03-22T22:18:31.816841,20.003996,-18.376877,26.660830,4.296825,-1.536936,-2.189340
2026-03-22T22:18:31.825841,20.898912,-18.108881,28.493731,2.081828,-1.382998,0.012217
2026-03-22T22:18:31.835841,20.874985,-17.515461,25.861626,-0.096516,-1.390328,2.627941
2026-03-22T22:18:31.845841,20.640488,-16.338192,21.573689,-1.404989,-1.222951,4.877147
2026-03-22T22:18:31.854841,20.865414,-14.323436,17.587246,-1.764178,-0.713490,6.548473
2026-03-22T22:18:31.864841,20.171494,-11.322836,14.892927,-1.474628,0.120951,7.794638
2026-03-22T22:18:31.873841,18.903297,-8.197810,12.078968,-0.863763,0.935845,8.692610
2026-03-22T22:18:31.883841,16.658831,-5.694917,10.346564,-0.168598,1.617570,9.241167
2026-03-22T22:18:31.893841,15.108281,-2.335394,9.523433,0.529009,1.930333,9.518500
2026-03-22T22:18:31.902841,14.687145,1.239482,9.217152,0.745255,2.299296,9.589360
2026-03-22T22:18:31.912841,12.978669,3.962514,9.212367,0.745255,2.591289,9.663885
2026-03-22T22:18:31.922841,12.011969,6.125625,9.284151,0.552222,2.700023,9.836150
2026-03-22T22:18:31.931841,11.054840,7.872386,9.513862,0.356745,2.602285,10.063391
2026-03-22T22:18:31.941841,10.049854,9.576076,9.446863,0.256563,2.532646,10.169682
2026-03-22T22:18:31.950841,8.839086,10.877771,9.700502,0.200363,2.494773,9.970540
2026-03-22T22:18:31.960841,7.322037,12.969098,10.059426,0.194255,2.571742,9.458634
2026-03-22T22:18:31.970841,5.541777,14.457434,10.581061,0.156381,2.789210,8.654736
2026-03-22T22:18:31.979841,4.436293,16.046268,10.949556,0.024434,3.076316,7.704230
2026-03-22T22:18:31.989841,3.005385,18.664017,11.763115,0.007330,3.423288,6.622999
2026-03-22T22:18:31.998841,-0.325423,21.889542,12.557533,0.250454,3.891210,5.356065
2026-03-22T22:18:32.008841,-4.359722,24.689142,12.490533,0.733038,4.383568,3.937636
2026-03-22T22:18:32.018841,-7.566105,26.354548,10.667203,1.230282,4.693887,2.511877
2026-03-22T22:18:32.027841,-9.623932,24.899712,8.212167,1.400102,4.566827,1.028696
2026-03-22T22:18:32.037841,-9.513862,24.751356,4.043870,1.001818,3.951075,-0.298102
2026-03-22T22:18:32.047841,-8.173882,23.583658,0.847059,0.322536,2.470338,-1.557706
2026-03-22T22:18:32.056841,-7.039684,20.324635,-0.464207,-0.906523,0.719599,-2.563190
2026-03-22T22:18:32.066841,-5.029713,16.548761,-0.449850,-1.865582,-0.817337,-3.351205
2026-03-22T22:18:32.075841,-2.651247,12.787243,-0.196211,-2.169792,-1.770287,-4.034153
2026-03-22T22:18:32.085841,-0.478564,10.226923,0.440279,-1.930333,-2.168571,-4.594927
2026-03-22T22:18:32.095841,0.301495,7.465606,0.679561,-1.563814,-2.146580,-4.969998
2026-03-22T22:18:32.104841,1.024128,5.948556,1.311266,-1.165530,-2.028072,-5.313305
2026-03-22T22:18:32.114841,1.679761,4.465006,2.574677,-0.841772,-1.935220,-5.638284
2026-03-22T22:18:32.123841,2.368894,3.651447,3.416950,-0.469144,-1.866803,-5.922948
2026-03-22T22:18:32.133841,2.756531,2.684746,4.029513,-0.021991,-1.788613,-6.102542
2026-03-22T22:18:32.143841,3.048455,2.191825,3.766302,0.447153,-1.731191,-6.273584
2026-03-22T22:18:32.152841,3.460021,1.229910,1.263410,0.900415,-1.780060,-6.460509
2026-03-22T22:18:32.162841,5.111069,0.339780,4.488935,1.428202,-1.879021,-6.633995
2026-03-22T22:18:32.172841,6.441478,-0.612562,4.752145,2.020741,-1.995085,-6.875897
2026-03-22T22:18:32.181841,8.063812,-0.861416,5.446064,2.697580,-2.228435,-7.252190
2026-03-22T22:18:32.191841,10.983055,-1.708475,6.388836,3.340210,-2.614502,-7.799525
2026-03-22T22:18:32.200841,14.883356,-3.450450,7.824529,3.976731,-2.899165,-8.442155
2026-03-22T22:18:32.210841,19.180864,-6.034698,9.944570,4.564384,-2.856405,-8.938178
2026-03-22T22:18:32.220841,22.329821,-9.394221,13.141381,5.121493,-2.421469,-8.856322
2026-03-22T22:18:32.229841,23.550159,-12.930813,17.032110,5.481903,-1.794721,-7.968124
2026-03-22T22:18:32.239841,23.219950,-16.228123,22.023539,5.259548,-1.251051,-6.262589
2026-03-22T22:18:32.248841,21.655045,-18.955940,25.406990,4.211304,-0.753807,-3.944966
2026-03-22T22:18:32.258841,20.243279,-17.898314,26.679972,2.415360,-0.338419,-1.264490
2026-03-22T22:18:32.268841,19.592430,-16.199409,25.134209,0.411723,-0.105068,1.519832
2026-03-22T22:18:32.277841,19.716858,-11.988041,20.712273,-1.088561,-0.013439,3.861889
2026-03-22T22:18:32.287841,19.444077,-8.614161,16.625332,-1.816712,0.056199,5.539324
2026-03-22T22:18:32.297841,18.472589,-5.838487,13.677373,-1.800830,0.273667,6.604673
2026-03-22T22:18:32.306841,17.127825,-3.641875,11.595618,-1.328020,0.614530,7.139791
2026-03-22T22:18:32.316841,16.185053,-2.258824,10.356136,-0.646295,1.040914,7.365811
2026-03-22T22:18:32.325841,14.682359,-0.775274,9.418149,0.026878,1.543045,7.441558
2026-03-22T22:18:32.335841,12.552747,0.880558,8.365307,0.474031,1.953546,7.464771
2026-03-22T22:18:32.345841,11.715259,1.856830,9.207581,0.663399,2.218662,7.379250
2026-03-22T22:18:32.354841,9.686145,4.374079,8.896514,0.527787,2.455677,7.457441
2026-03-22T22:18:32.364841,9.513862,7.188039,9.346365,-0.062308,2.623054,7.728665
2026-03-22T22:18:32.373841,8.216952,11.155338,9.781858,-0.574213,2.803870,7.817851
2026-03-22T22:18:32.383841,4.646861,15.893127,9.614361,-0.698829,3.049438,7.628483
2026-03-22T22:18:32.393841,0.799202,19.324434,9.221938,-0.311541,3.286454,7.325494
2026-03-22T22:18:32.402841,-4.197010,21.999611,8.255237,0.579100,3.479487,6.338336
2026-03-22T22:18:32.412841,-9.116654,23.234306,4.948357,1.357342,3.423288,4.732982
2026-03-22T22:18:32.422841,-10.442277,22.372890,1.071984,1.154535,3.017673,3.044551
2026-03-22T22:18:32.431841,-8.408378,19.142580,-0.440279,-0.072082,2.390926,1.499062
2026-03-22T22:18:32.441841,-5.637490,15.299707,0.224925,-1.304807,1.567479,0.200363
2026-03-22T22:18:32.450841,-3.148954,12.763315,0.861416,-1.789834,0.559552,-0.597426
2026-03-22T22:18:32.460841,-1.899901,11.609975,1.076770,-1.811825,-0.326201,-0.907745
2026-03-22T22:18:32.470841,-1.823330,10.954341,1.311266,-1.701870,-1.010370,-1.026253
2026-03-22T22:18:32.479841,-2.766102,10.877771,1.201196,-1.601688,-1.556484,-1.290147
2026-03-22T22:18:32.489841,-2.928814,11.241480,1.071984,-1.574810,-2.024406,-1.825264
2026-03-22T22:18:32.498841,-2.469392,11.274980,1.703689,-1.665218,-2.365269,-2.538755
2026-03-22T22:18:32.508841,-1.564905,10.710273,2.311466,-1.668883,-2.525316,-3.295006
2026-03-22T22:18:32.518841,0.459421,8.762516,4.819144,-1.155756,-2.278526,-4.021935
2026-03-22T22:18:32.527841,-0.038285,8.226524,4.488935,0.047647,-1.629788,-4.563162
2026-03-22T22:18:32.537841,0.780060,8.575876,3.665804,0.900415,-1.626122,-5.131266
2026-03-22T22:18:32.547841,1.727617,8.834301,4.910071,1.067792,-1.655444,-5.480681
2026-03-22T22:18:32.556841,2.713460,8.145168,7.101897,1.105665,-1.452637,-5.706701
2026-03-22T22:18:32.566841,3.751945,7.049255,9.107082,1.326799,-1.062905,-5.892404
2026-03-22T22:18:32.575841,4.182653,5.000999,9.590432,1.943772,-0.476474,-5.910730
2026-03-22T22:18:32.585841,4.278366,5.814558,8.987441,2.484999,-0.427605,-6.109872
2026-03-22T22:18:32.595841,4.412364,6.087340,9.087940,2.495994,-0.645073,-6.203946
2026-03-22T22:18:32.604841,5.331208,5.321637,12.021540,2.433686,-1.097113,-6.030460
2026-03-22T22:18:32.614841,6.652046,4.311866,12.729816,2.530203,-1.508836,-5.842313
2026-03-22T22:18:32.623841,8.480163,3.043670,14.270793,2.825862,-1.543045,-5.650502
2026-03-22T22:18:32.633841,9.576076,1.737189,15.984054,3.475822,-1.031140,-5.563759
2026-03-22T22:18:32.643841,10.963913,0.239282,16.883757,4.251621,-0.272445,-5.436699
2026-03-22T22:18:32.652841,12.428320,-1.694118,17.903097,4.775743,0.522900,-5.154479
2026-03-22T22:18:32.662841,13.629517,-3.924229,19.243078,4.971220,1.255938,-4.740313
2026-03-22T22:18:32.672841,14.117653,-5.996413,20.492132,4.790404,1.838703,-4.211304
2026-03-22T22:18:32.681841,14.065011,-7.489534,22.028324,4.274834,2.114815,-3.517361
2026-03-22T22:18:32.691841,14.041083,-7.977670,24.043081,3.409849,2.193005,-2.604728
2026-03-22T22:18:32.700841,13.385449,-6.824330,24.641287,2.408030,1.973094,-1.406211
2026-03-22T22:18:32.710841,12.634103,-5.307280,25.550558,1.089783,1.407433,0.321315
2026-03-22T22:18:32.720841,11.739187,-3.909872,24.693930,-0.395840,0.503352,2.195449
2026-03-22T22:18:32.729841,10.384850,-3.263810,23.148165,-1.761734,-0.609643,3.938858
2026-03-22T22:18:32.739841,10.935199,-4.555934,20.669201,-2.715906,-1.532049,5.426925
2026-03-22T22:18:32.748841,12.184252,-5.623133,18.041882,-2.654819,-1.938885,6.396979
2026-03-22T22:18:32.758841,13.418949,-4.905286,14.940784,-2.135584,-1.287703,6.993183
2026-03-22T22:18:32.768841,13.777872,-3.799802,12.275179,-1.684765,0.142942,7.533188
2026-03-22T22:18:32.777841,13.653445,-1.899901,10.734202,-1.404989,1.767843,8.043871
2026-03-22T22:18:32.787841,12.772887,1.301695,9.949356,-1.189965,2.963917,8.409169
2026-03-22T22:18:32.797841,11.595618,4.977071,9.877571,-1.221730,3.560121,8.715823
2026-03-22T22:18:32.806841,10.279565,7.829315,9.652646,-1.466076,3.670077,8.969943
2026-03-22T22:18:32.816841,9.556933,10.174281,10.092925,-1.775174,3.605325,9.128768
2026-03-22T22:18:32.825841,8.327022,12.418749,11.054840,-1.908342,3.605325,9.054242
2026-03-22T22:18:32.835841,7.044469,13.533804,11.562118,-1.732413,3.672521,8.864874
2026-03-22T22:18:32.845841,6.149554,15.160923,11.480762,-1.458745,3.946188,8.454373
2026-03-22T22:18:32.854841,4.053441,16.936398,11.456834,-1.167974,4.382346,7.676130
2026-03-22T22:18:32.864841,1.636690,17.716457,10.820343,-0.735481,4.630357,6.763498
2026-03-22T22:18:32.873841,0.765703,17.749958,9.011369,-0.223576,4.566827,5.910730
2026-03-22T22:18:32.883841,0.679561,17.577675,7.034898,0.290771,4.426328,5.026198
2026-03-22T22:18:32.893841,0.588634,17.424534,5.120640,0.586430,4.382346,4.167321
2026-03-22T22:18:32.902841,0.181854,17.544174,3.536591,0.656069,4.279720,3.330436
2026-03-22T22:18:32.912841,-0.110069,17.797813,2.435893,0.508239,3.925419,2.513099
2026-03-22T22:18:32.922841,-0.315852,17.745173,1.914258,0.244346,3.499035,1.720196
2026-03-22T22:18:32.931841,-0.894915,18.003597,1.507478,0.080634,3.109303,0.910189
2026-03-22T22:18:32.941841,-1.770688,18.439091,0.698704,-0.037873,2.756223,0.160046
2026-03-22T22:18:32.950841,-2.349751,17.391033,-0.430708,0.109955,2.211331,-0.616973
2026-03-22T22:18:32.960841,-2.163111,16.290337,-1.947757,0.175929,1.525941,-1.467297
2026-03-22T22:18:32.970841,-1.191625,14.601003,-2.904886,-0.043982,0.729372,-2.236988
2026-03-22T22:18:32.979841,-0.215354,12.830314,-3.359522,-0.323758,-0.103847,-2.776992
2026-03-22T22:18:32.989841,0.976271,11.184052,-3.354737,-0.423940,-0.836885,-3.045773
2026-03-22T22:18:32.998841,1.775474,10.016355,-2.861815,-0.334754,-1.332907,-3.163059
2026-03-22T22:18:33.008841,2.100898,9.786644,-1.229910,-0.036651,-1.546710,-3.276680
2026-03-22T22:18:33.018841,1.239482,10.356136,-0.722632,0.442266,-1.513723,-3.497813
2026-03-22T22:18:33.027841,-0.430708,11.849257,0.459421,1.132543,-1.347568,-3.911980
2026-03-22T22:18:33.037841,-1.622333,13.083953,1.411765,1.732413,-1.174082,-4.561940
2026-03-22T22:18:33.047841,-2.522035,13.524233,2.043470,2.139249,-1.147204,-5.382943
2026-03-22T22:18:33.056841,-1.655833,12.945170,2.364108,2.299296,-1.429424,-6.112316
2026-03-22T22:18:33.066841,0.899701,11.720045,2.656033,2.295631,-2.056171,-6.680420
2026-03-22T22:18:33.075841,3.043670,10.317851,3.603590,2.258979,-2.741562,-7.044496
2026-03-22T22:18:33.085841,4.632504,9.121439,5.082355,2.294409,-3.312110,-7.170334
2026-03-22T22:18:33.095841,5.632704,8.044669,6.733402,2.452012,-3.759263,-7.177665
2026-03-22T22:18:33.104841,6.738188,7.221538,8.216952,2.674367,-4.139221,-7.150786
2026-03-22T22:18:33.114841,8.484948,6.044269,9.561719,2.891835,-4.412889,-7.083591
2026-03-22T22:18:33.123841,9.915856,4.991427,10.461420,3.187494,-4.370129,-6.978523
2026-03-22T22:18:33.133841,11.662617,3.665804,13.438091,3.648086,-4.029266,-6.943092
2026-03-22T22:18:33.143841,13.289736,2.153540,15.524633,4.078135,-3.670077,-6.949201
2026-03-22T22:18:33.152841,15.988840,0.248853,16.606188,4.428772,-3.477044,-6.968749
2026-03-22T22:18:33.162841,18.601803,-2.718246,18.836300,4.526510,-3.060434,-6.708520
2026-03-22T22:18:33.172841,21.224337,-7.661817,20.563917,4.527732,-2.351830,-6.139194
2026-03-22T22:18:33.181841,21.521046,-12.940384,26.478973,4.505741,-1.249830,-5.276652
2026-03-22T22:18:33.191841,20.511274,-13.418949,29.560930,4.091574,-0.271224,-3.936414
2026-03-22T22:18:33.200841,18.821941,-11.753544,34.155148,2.878396,0.146607,-1.754404
2026-03-22T22:18:33.210841,16.788042,-7.867600,31.901110,0.878424,-0.293215,0.899193
2026-03-22T22:18:33.220841,14.840285,-5.225924,30.082565,-1.326799,-1.200960,3.134959
2026-03-22T22:18:33.229841,13.572089,-2.656033,27.321247,-3.028669,-2.225992,4.956559
2026-03-22T22:18:33.239841,13.816157,-2.292324,24.459433,-3.661525,-3.112968,6.126977
2026-03-22T22:18:33.248841,15.223137,-1.785045,19.817356,-3.577226,-3.185050,6.861236
2026-03-22T22:18:33.258841,16.280764,-1.808973,15.538989,-3.060434,-2.127032,7.323050
2026-03-22T22:18:33.268841,16.539188,-1.631905,11.873185,-2.287078,-0.334754,7.652918
2026-03-22T22:18:33.277841,15.414563,-1.182054,9.647860,-1.569923,1.538158,8.052423
2026-03-22T22:18:33.287841,13.825728,0.803988,8.231309,-0.992044,2.649932,8.503242
2026-03-22T22:18:33.297841,12.557533,3.809373,7.178467,-0.806341,2.902831,9.029808
2026-03-22T22:18:33.306841,11.073982,6.628118,7.259823,-1.070235,2.623054,9.667551
2026-03-22T22:18:33.316841,10.049854,8.882157,7.097111,-1.637118,2.146580,10.197782
2026-03-22T22:18:33.325841,9.580861,11.198409,7.245466,-2.210109,1.848477,10.376154
2026-03-22T22:18:33.335841,7.771887,13.457234,9.097511,-2.524094,2.037846,9.878909
2026-03-22T22:18:33.345841,4.594219,14.735001,9.891928,-2.276083,2.362826,9.054242
2026-03-22T22:18:33.354841,3.885943,14.500504,9.293722,-1.709200,2.580294,8.357856
2026-03-22T22:18:33.364841,3.541377,14.639288,9.083154,-1.073900,2.769662,7.513640
2026-03-22T22:18:33.373841,2.081755,14.935998,8.843872,-0.367740,2.924822,6.531369
2026-03-22T22:18:33.383841,2.603390,15.203994,7.776673,0.241902,3.065321,5.716475
2026-03-22T22:18:33.393841,3.139383,16.046268,7.570890,0.575434,3.296228,4.976107
2026-03-22T22:18:33.402841,2.522035,18.094524,7.996813,0.775798,3.500257,4.196643
2026-03-22T22:18:33.412841,0.674775,20.999411,8.446663,1.042135,3.480709,3.417179
2026-03-22T22:18:33.422841,-1.694118,24.134008,7.743173,1.334129,3.385414,2.652376
2026-03-22T22:18:33.431841,-4.484149,26.359333,6.068198,1.645670,3.374418,1.701870
2026-03-22T22:18:33.441841,-6.494120,27.086752,4.082155,1.696983,3.200933,0.477696
2026-03-22T22:18:33.450841,-7.475177,26.890539,1.804188,1.320690,2.673145,-0.996931
2026-03-22T22:18:33.460841,-6.680760,24.402004,0.655633,0.571769,1.792278,-2.495994
2026-03-22T22:18:33.470841,-4.264009,21.300905,0.344566,-0.127059,0.665842,-3.775146
2026-03-22T22:18:33.479841,-1.957328,18.558731,0.071784,-0.503352,-0.381179,-4.758638
2026-03-22T22:18:33.489841,-0.143569,15.672988,0.440279,-0.604756,-1.161865,-5.507559
2026-03-22T22:18:33.498841,1.483550,13.131810,1.258624,-0.472809,-1.569923,-6.068334
2026-03-22T22:18:33.508841,2.871387,11.073982,2.187039,-0.163711,-1.604131,-6.483722
2026-03-22T22:18:33.518841,3.627519,9.595218,3.005385,0.211359,-1.401324,-6.763498
2026-03-22T22:18:33.527841,4.316651,8.551947,3.689732,0.544891,-1.142317,-6.961418
2026-03-22T22:18:33.537841,4.536791,7.446463,4.249652,0.730594,-0.960279,-7.143456
2026-03-22T22:18:33.547841,5.182853,6.168696,4.603790,0.933401,-0.979827,-7.312055
2026-03-22T22:18:33.556841,6.101697,4.867001,4.709074,1.156978,-1.209512,-7.462328
2026-03-22T22:18:33.566841,7.298108,3.383451,4.704289,1.422093,-1.557706,-7.564953
2026-03-22T22:18:33.575841,8.796015,1.923829,4.536791,1.701870,-1.913229,-7.577170
2026-03-22T22:18:33.585841,10.308279,0.311066,4.450650,2.043954,-2.302961,-7.535632
2026-03-22T22:18:33.595841,11.949756,-1.153340,4.278366,2.546085,-2.770884,-7.458663
2026-03-22T22:18:33.604841,14.060225,-2.679961,4.618147,3.175276,-3.293784,-7.379250
2026-03-22T22:18:33.614841,16.888540,-5.034498,5.259424,3.743381,-3.668855,-7.219203
2026-03-22T22:18:33.623841,20.425133,-9.413364,7.719245,4.260173,-3.681073,-6.779381
2026-03-22T22:18:33.633841,22.487745,-13.921441,9.327222,4.812394,-3.356092,-5.861861
2026-03-22T22:18:33.643841,24.665215,-18.199808,14.577075,5.194796,-2.686584,-4.398228
2026-03-22T22:18:33.652841,22.865812,-20.099709,17.883957,4.996876,-1.913229,-2.702467
2026-03-22T22:18:33.662841,21.071196,-18.329021,21.095123,4.102570,-1.315803,-0.806341
2026-03-22T22:18:33.672841,19.391434,-15.797414,24.234507,2.582737,-1.021366,1.037248
2026-03-22T22:18:33.681841,18.654444,-12.160324,24.717857,0.857654,-1.086118,2.630385
2026-03-22T22:18:33.691841,18.223736,-9.513862,23.119452,-0.518013,-1.213178,3.908314
2026-03-22T22:18:33.700841,18.257236,-8.145168,21.114265,-1.148426,-1.193630,4.979772
2026-03-22T22:18:33.710841,18.089739,-7.360322,19.200008,-0.996931,-0.864984,5.755570
2026-03-22T22:18:33.720841,17.099110,-5.340780,17.903097,-0.395840,-0.042760,6.470283
2026-03-22T22:18:33.729841,14.974283,-2.694318,17.036896,0.223576,1.039692,7.066487
2026-03-22T22:18:33.739841,13.591232,0.344566,16.534405,0.557108,2.019520,7.623596
2026-03-22T22:18:33.748841,12.638888,4.106083,16.883757,0.593760,2.811201,8.170931
2026-03-22T22:18:33.758841,11.605189,8.915657,17.424534,0.381179,3.455053,8.571659
2026-03-22T22:18:33.768841,10.217352,13.844871,18.080168,-0.152716,3.977953,8.735371
2026-03-22T22:18:33.777841,7.838886,18.094524,18.223736,-0.635299,4.238182,8.509350
2026-03-22T22:18:33.787841,3.220739,21.401405,18.573090,-0.825889,4.421441,7.641922
2026-03-22T22:18:33.797841,-1.253839,25.076780,16.735401,-0.513126,4.626692,6.422635
2026-03-22T22:18:33.806841,-3.512663,25.071995,13.246665,-0.277332,4.629135,5.149592
2026-03-22T22:18:33.816841,-2.316252,23.789442,9.494720,-0.570548,4.361576,3.947410
2026-03-22T22:18:33.825841,-0.540777,21.908684,7.436892,-1.269377,4.050035,3.050660
2026-03-22T22:18:33.835841,0.870987,21.023338,6.541976,-1.791056,3.786141,2.459342
2026-03-22T22:18:33.845841,0.679561,20.630917,6.336194,-1.890016,3.712838,2.106262
2026-03-22T22:18:33.854841,-0.081355,21.937397,5.532205,-1.374446,3.673742,1.842369
2026-03-22T22:18:33.864841,-1.316052,23.454447,3.747160,-0.460592,3.662747,1.503949
2026-03-22T22:18:33.873841,-3.326023,24.698713,1.780260,0.305432,3.635869,0.807563
2026-03-22T22:18:33.883841,-5.560919,25.454845,-0.019142,0.706160,3.357314,-0.230907
2026-03-22T22:18:33.893841,-6.288337,24.732214,-1.588834,0.537561,2.656041,-1.448972
2026-03-22T22:18:33.902841,-5.388636,22.286749,-2.301895,-0.081855,1.711644,-2.739119
2026-03-22T22:18:33.912841,-3.024527,19.343576,-2.483749,-0.762359,0.799011,-3.918088
2026-03-22T22:18:33.922841,-0.780060,16.371693,-2.057827,-1.319468,0.001221,-4.894251
2026-03-22T22:18:33.931841,0.875773,13.600803,-1.665404,-1.602910,-0.691499,-5.682266
2026-03-22T22:18:33.941841,2.354537,10.901699,-1.143769,-1.607796,-1.110552,-6.250371
2026-03-22T22:18:33.950841,3.393022,8.858229,-0.468993,-1.444085,-1.253495,-6.652321
2026-03-22T22:18:33.960841,4.072584,6.862615,-0.248853,-1.102000,-1.210734,-6.958975
2026-03-22T22:18:33.970841,4.278366,5.575276,-0.344566,-0.580321,-1.141096,-7.244860
2026-03-22T22:18:33.979841,4.747360,4.670789,-0.363709,-0.064751,-1.214399,-7.476988
2026-03-22T22:18:33.989841,5.307280,3.881158,-0.401994,0.350636,-1.478293,-7.640700
2026-03-22T22:18:33.998841,5.637490,3.000599,-0.641276,0.824667,-1.996307,-7.854503
2026-03-22T22:18:34.008841,7.570890,1.684547,-0.239282,1.532049,-2.613280,-8.230796
2026-03-22T22:18:34.018841,10.207781,0.545563,0.990628,2.419025,-3.166724,-8.844105
2026-03-22T22:18:34.027841,14.050654,-0.344566,2.766102,3.194824,-3.630982,-9.608908
2026-03-22T22:18:34.037841,18.726229,-1.469193,4.977071,3.769037,-3.974288,-10.261312
2026-03-22T22:18:34.047841,23.909082,-4.077369,7.226324,4.164878,-4.117230,-10.466562
2026-03-22T22:18:34.056841,28.565516,-8.547162,12.136396,4.803843,-4.101348,-9.971762
2026-03-22T22:18:34.066841,30.216562,-13.663017,17.711672,5.348734,-3.567452,-8.726818
2026-03-22T22:18:34.075841,29.154150,-20.315063,26.421547,5.038415,-2.665815,-6.647434
2026-03-22T22:18:34.085841,26.120050,-27.613173,35.504700,3.314554,-1.714087,-3.931527
2026-03-22T22:18:34.095841,26.431118,-28.474588,34.241291,0.657290,-1.321912,-0.640186
2026-03-22T22:18:34.104841,27.775885,-23.674585,25.483561,-1.474628,-1.182634,2.839301
2026-03-22T22:18:34.114841,26.785255,-17.879169,18.453447,-2.045176,-0.858876,5.668828
2026-03-22T22:18:34.123841,24.469004,-11.992826,13.289736,-1.282816,-0.615752,7.476988
2026-03-22T22:18:34.133841,21.698114,-8.068597,10.126425,-0.290771,-0.069638,8.480029
2026-03-22T22:18:34.143841,18.745373,-5.651846,8.685946,0.561995,0.580321,9.051799
2026-03-22T22:18:34.152841,15.936198,-2.828316,8.662017,1.139874,1.056796,9.345014
2026-03-22T22:18:34.162841,14.323436,0.028713,9.346365,1.165530,1.247386,9.523387
2026-03-22T22:18:34.172841,13.476376,2.249253,11.102696,0.764803,1.345124,9.897236
2026-03-22T22:18:34.181841,14.060225,5.168496,13.141381,0.186924,1.347568,10.522762
2026-03-22T22:18:34.191841,14.017154,10.820343,16.778473,-0.212581,1.545488,11.142179
2026-03-22T22:18:34.200841,11.002198,17.984453,21.233908,-0.084299,2.313957,11.122631
2026-03-22T22:18:34.210841,4.948357,25.713270,24.047867,0.690277,3.395188,10.071943
2026-03-22T22:18:34.220841,-2.804388,31.240690,23.296520,1.689652,4.477641,8.294326
2026-03-22T22:18:34.229841,-6.805187,32.365318,18.429520,1.909564,5.121493,6.268697
2026-03-22T22:18:34.239841,-6.900900,30.063423,13.045668,1.007927,4.919907,4.410446
2026-03-22T22:18:34.248841,-4.043870,25.986053,9.891928,-0.530230,4.245512,2.996904
2026-03-22T22:18:34.258841,-0.990628,22.272392,9.183653,-1.996307,3.681073,2.144136
2026-03-22T22:18:34.268841,0.124426,21.272192,9.729216,-2.436130,3.468492,1.710422
2026-03-22T22:18:34.277841,-0.023928,22.253250,9.604789,-2.127032,3.656638,1.385442
2026-03-22T22:18:34.287841,-0.918843,23.167309,9.011369,-1.605353,4.164878,0.983492
2026-03-22T22:18:34.297841,-2.287538,23.650658,7.666603,-1.014036,4.543614,0.421496
2026-03-22T22:18:34.306841,-3.957728,23.961725,4.642075,-0.452040,4.372572,-0.232128
2026-03-22T22:18:34.316841,-5.364708,23.320450,1.531406,-0.249232,3.656638,-0.993266
2026-03-22T22:18:34.325841,-5.781059,20.985054,-0.272781,-0.477696,2.662150,-1.969429
2026-03-22T22:18:34.335841,-4.268795,17.711672,-1.071984,-0.735481,1.676213,-3.086090
2026-03-22T22:18:34.345841,-2.043470,14.529218,-1.067198,-0.802676,0.951727,-4.135556
2026-03-22T22:18:34.354841,-0.181854,11.547761,-1.076770,-0.680503,0.450818,-5.002984
2026-03-22T22:18:34.364841,1.215553,9.250652,-1.028913,-0.458148,0.238237,-5.721362
2026-03-22T22:18:34.373841,1.852044,7.322037,-0.090927,-0.226020,0.197920,-6.196615
2026-03-22T22:18:34.383841,2.670390,5.632704,0.253639,0.031764,0.213802,-6.487387
2026-03-22T22:18:34.393841,3.445664,4.192225,0.062213,0.295658,0.268780,-6.707298
2026-03-22T22:18:34.402841,3.933800,3.187239,-0.378065,0.525343,0.254119,-6.911327
2026-03-22T22:18:34.412841,4.536791,2.000399,-0.890130,0.758694,0.019547,-7.071374
2026-03-22T22:18:34.422841,5.508277,0.827916,-1.263410,1.154535,-0.433714,-7.215538
2026-03-22T22:18:34.431841,6.857829,-0.397208,-1.253839,1.825264,-0.956614,-7.381694
2026-03-22T22:18:34.441841,7.776673,-1.148554,-0.636490,2.820975,-1.492954,-7.698122
2026-03-22T22:18:34.450841,10.834700,-1.770688,0.406779,3.866776,-2.024406,-8.159936
2026-03-22T22:18:34.460841,14.299507,-3.086741,2.201396,4.786739,-2.463008,-8.692610
2026-03-22T22:18:34.470841,18.467804,-4.302295,4.173082,5.764123,-2.780657,-9.206958
2026-03-22T22:18:34.479841,22.779671,-6.250052,6.345765,6.719516,-2.781879,-9.266823
2026-03-22T22:18:34.489841,25.674986,-10.107282,10.021141,7.337711,-2.663371,-8.574102
2026-03-22T22:18:34.498841,26.402405,-14.725430,15.859628,7.302281,-2.871066,-7.233864
2026-03-22T22:18:34.508841,25.330420,-19.893927,22.674385,6.417748,-3.210707,-5.175249
2026-03-22T22:18:34.518841,24.349361,-25.512274,28.278378,4.291938,-3.178942,-2.642602
2026-03-22T22:18:34.527841,25.239492,-26.292334,30.144779,1.554040,-2.946813,0.438601
2026-03-22T22:18:34.537841,25.856840,-22.138393,25.660629,-0.638964,-2.741562,3.806911
2026-03-22T22:18:34.547841,25.483561,-16.548761,20.305492,-1.513723,-2.568076,6.652321
2026-03-22T22:18:34.556841,24.526430,-11.557333,17.539389,-1.375668,-2.244318,8.586320
2026-03-22T22:18:34.566841,23.023739,-7.862815,16.663616,-0.604756,-1.733635,9.695651
2026-03-22T22:18:34.575841,21.080767,-4.034298,16.606188,0.386066,-0.845437,10.423802
2026-03-22T22:18:34.585841,18.419949,0.732203,16.840685,1.290147,0.178372,10.796429
2026-03-22T22:18:34.595841,16.998611,3.656232,18.463018,1.841147,1.199739,11.079871
2026-03-22T22:18:34.604841,16.419548,6.920042,20.032709,2.123367,2.119701,11.318108
2026-03-22T22:18:34.614841,15.390634,12.375678,22.559530,2.065945,2.983465,11.393855
2026-03-22T22:18:34.623841,11.696116,21.229122,26.431118,1.727526,4.074470,10.829416
2026-03-22T22:18:34.633841,2.411965,31.140194,27.952953,1.547932,5.280318,9.285149
2026-03-22T22:18:34.643841,-7.020541,36.811180,23.899511,1.651779,5.979147,7.281512
2026-03-22T22:18:34.652841,-9.293722,36.356544,16.960325,1.237612,5.871635,5.319413
2026-03-22T22:18:34.662841,-6.809973,33.552158,10.786844,-0.149051,5.582085,3.540574
2026-03-22T22:18:34.672841,-4.283152,28.867010,8.322237,-1.483180,5.321856,1.951103
2026-03-22T22:18:34.681841,-2.751745,25.004995,7.197610,-2.338391,5.244888,0.849102
2026-03-22T22:18:34.691841,-2.043470,23.196022,5.953342,-2.616946,5.094615,0.193033
2026-03-22T22:18:34.700841,-2.790031,22.420748,4.173082,-2.594954,4.806286,-0.320093
2026-03-22T22:18:34.710841,-4.043870,21.410976,1.832902,-2.510655,4.342029,-0.789237
2026-03-22T22:18:34.720841,-4.890929,20.568703,-0.631705,-2.310291,3.632203,-1.343903
2026-03-22T22:18:34.729841,-5.608776,19.085154,-2.325823,-2.041511,2.808757,-2.079384
2026-03-22T22:18:34.739841,-5.163711,16.735401,-3.254238,-1.854586,2.063502,-3.055547
2026-03-22T22:18:34.748841,-3.235096,14.041083,-3.287738,-1.693318,1.508836,-4.063474
2026-03-22T22:18:34.758841,-1.014556,12.279965,-5.044070,-1.426980,1.105665,-4.917464
2026-03-22T22:18:34.768841,-0.129212,9.891928,-2.900100,-1.105665,0.901636,-5.593080
2026-03-22T22:18:34.777841,0.555134,8.389236,-2.545963,-0.642630,0.706160,-6.101320
2026-03-22T22:18:34.787841,1.339980,7.058826,-2.086541,-0.210137,0.532674,-6.425079
2026-03-22T22:18:34.797841,2.019542,5.608776,-1.923829,0.128281,0.340862,-6.615669
2026-03-22T22:18:34.806841,2.498106,4.192225,-2.033899,0.442266,0.086742,-6.720737
2026-03-22T22:18:34.816841,2.947957,3.196810,-2.435893,0.690277,-0.283441,-6.791598
2026-03-22T22:18:34.825841,3.527020,1.808973,-2.756531,0.851545,-0.824667,-6.847797
2026-03-22T22:18:34.835841,5.015356,0.287138,-2.909672,1.054353,-1.555262,-6.934540
2026-03-22T22:18:34.845841,7.039684,-1.406979,-2.603390,1.529606,-2.258979,-7.100696
2026-03-22T22:18:34.854841,9.040083,-2.746960,-1.464407,2.371378,-2.774549,-7.357259
2026-03-22T22:18:34.864841,12.691531,-4.689932,0.545563,3.711616,-2.971247,-7.970567
2026-03-22T22:18:34.873841,17.146967,-5.369493,2.598605,5.219231,-2.811201,-8.737814
2026-03-22T22:18:34.883841,21.008982,-6.723831,5.642275,6.594899,-2.298074,-8.929626
2026-03-22T22:18:34.893841,23.310877,-9.226723,10.231709,7.948576,-1.685987,-8.265004
2026-03-22T22:18:34.902841,24.564716,-11.442477,16.065411,9.073790,-1.119104,-6.743950
2026-03-22T22:18:34.912841,22.358534,-13.462019,21.181265,9.308362,-0.724486,-4.506962
2026-03-22T22:18:34.922841,19.984854,-15.156138,29.881569,7.907037,-0.733038,-1.897347
2026-03-22T22:18:34.931841,16.572689,-16.601402,35.729626,4.612031,-1.386663,0.847880
2026-03-22T22:18:34.941841,17.769100,-16.323835,35.715271,0.703716,-2.356717,3.527135
2026-03-22T22:18:34.950841,20.295921,-14.744572,27.852455,-1.827708,-2.790431,5.943717
2026-03-22T22:18:34.960841,21.176479,-12.279965,21.856041,-2.239431,-2.613280,7.817851
2026-03-22T22:18:34.970841,19.980068,-8.236095,17.166109,-1.260825,-1.759291,9.068903
2026-03-22T22:18:34.979841,16.338192,-4.522434,14.457434,-0.057421,-0.403170,9.671216
2026-03-22T22:18:34.989841,13.505090,-1.138983,13.615160,0.753807,0.770911,9.797054
2026-03-22T22:18:34.998841,12.289536,1.799402,14.500504,1.159421,1.573588,9.872801
2026-03-22T22:18:35.008841,11.992826,5.426921,16.386049,1.251051,2.184453,10.247873
2026-03-22T22:18:35.018841,12.279965,10.901699,19.161722,0.993266,2.939482,10.613170
2026-03-22T22:18:35.027841,10.336993,19.654644,23.459232,0.510683,3.926640,10.514209
2026-03-22T22:18:35.037841,3.019742,29.814569,27.976881,0.394618,5.192353,9.387775
2026-03-22T22:18:35.047841,-9.667003,39.730427,26.009981,0.685390,6.063447,7.230199
2026-03-22T22:18:35.056841,-15.285350,40.615768,17.529818,0.844215,6.023129,5.155701
2026-03-22T22:18:35.066841,-13.438091,36.796825,9.681360,-0.419053,5.424482,3.120298
2026-03-22T22:18:35.075841,-9.054440,29.718857,7.676174,-1.913229,4.742756,1.161865
2026-03-22T22:18:35.085841,-5.608776,23.684158,7.202396,-2.949256,4.222299,-0.205250
2026-03-22T22:18:35.095841,-3.799802,20.066210,5.728417,-3.295006,3.639534,-0.824667
2026-03-22T22:18:35.104841,-3.641875,17.649460,4.244867,-3.426953,2.966360,-1.236390
2026-03-22T22:18:35.114841,-3.938585,15.878770,3.215953,-3.463605,2.400699,-1.584584
2026-03-22T22:18:35.123841,-3.852444,14.227723,2.344966,-3.325549,2.028072,-1.992641
2026-03-22T22:18:35.133841,-3.340380,12.533604,1.775474,-3.040886,1.789834,-2.508212
2026-03-22T22:18:35.143841,-2.383251,10.853843,1.392622,-2.751336,1.618792,-3.061655
2026-03-22T22:18:35.152841,-1.775474,9.284151,1.354337,-2.568076,1.532049,-3.656638
2026-03-22T22:18:35.162841,-1.478764,7.747959,1.387837,-2.474003,1.459967,-4.221077
2026-03-22T22:18:35.172841,-0.555134,6.163911,0.995414,-2.313957,1.396437,-4.721987
2026-03-22T22:18:35.181841,0.138783,4.962714,0.454636,-2.023185,1.336572,-5.105610
2026-03-22T22:18:35.191841,0.488135,3.909872,-0.038285,-1.677435,1.285260,-5.303531
2026-03-22T22:18:35.200841,0.507278,3.335594,-0.602991,-1.378111,1.164308,-5.440365
2026-03-22T22:18:35.210841,0.540777,2.746960,-1.416550,-1.197295,0.951727,-5.564980
2026-03-22T22:18:35.220841,1.186840,1.761117,-2.196611,-1.082452,0.684168,-5.676158
2026-03-22T22:18:35.229841,2.014756,0.885344,-3.062812,-0.893084,0.375071,-5.812992
2026-03-22T22:18:35.239841,2.904886,0.344566,-3.656232,-0.613308,-0.007330,-5.979147
2026-03-22T22:18:35.248841,4.225724,-0.641276,-3.871586,-0.179594,-0.602312,-6.178289
2026-03-22T22:18:35.258841,6.786044,-1.426122,-3.354737,0.280997,-1.185078,-6.504491
2026-03-22T22:18:35.268841,8.867800,-3.321237,-3.259024,1.004262,-1.729969,-6.900332
2026-03-22T22:18:35.277841,12.299108,-5.350351,-2.775674,2.106262,-1.952324,-7.370698
2026-03-22T22:18:35.287841,15.089139,-7.776673,-1.177268,3.692068,-1.849699,-7.855725
2026-03-22T22:18:35.297841,19.807785,-9.049655,-0.153140,5.687153,-1.442863,-8.101293
2026-03-22T22:18:35.306841,22.521246,-11.174481,2.526820,7.833734,-0.774576,-7.652918
2026-03-22T22:18:35.316841,24.052652,-12.098111,6.666403,9.972983,0.144164,-6.310236
2026-03-22T22:18:35.325841,23.588446,-13.433306,14.993426,11.436616,0.908967,-4.202751
2026-03-22T22:18:35.335841,21.090338,-15.270993,22.047466,11.316887,1.005483,-1.436754
2026-03-22T22:18:35.345841,16.888540,-15.452848,32.054253,9.258271,0.057421,1.629788
2026-03-22T22:18:35.354841,11.782258,-13.122239,36.777683,5.252217,-1.078787,4.246734
2026-03-22T22:18:35.364841,11.743973,-10.767701,36.035908,0.609643,-2.408030,5.973039
2026-03-22T22:18:35.373841,16.438690,-9.934999,30.446274,-2.796540,-3.359758,7.534410
2026-03-22T22:18:35.383841,19.008581,-8.977870,25.186850,-3.852115,-3.539352,9.060351
2026-03-22T22:18:35.393841,18.869799,-5.163711,20.606989,-2.919935,-2.795318,10.273529
2026-03-22T22:18:35.402841,16.816757,-0.583848,18.041882,-1.392772,-1.313359,10.880730
2026-03-22T22:18:35.412841,14.155938,3.254238,17.649460,0.117286,0.439822,11.153175
2026-03-22T22:18:35.422841,12.552747,6.857829,19.262220,1.262047,1.985311,11.288787
2026-03-22T22:18:35.431841,11.705688,11.327622,20.650059,1.894903,3.313332,11.184940
2026-03-22T22:18:35.441841,10.155139,17.223537,23.004597,1.992641,4.729317,10.760999
2026-03-22T22:18:35.450841,4.953142,24.373291,25.225136,1.868025,6.199059,9.869136
2026-03-22T22:18:35.460841,-4.670789,32.384460,26.000410,1.762956,7.198434,8.333421
2026-03-22T22:18:35.470841,-13.462019,35.767914,18.362520,1.740965,7.281512,6.339558
2026-03-22T22:18:35.479841,-14.639288,35.887554,11.930613,1.033583,6.429966,4.213747
2026-03-22T22:18:35.489841,-11.423335,31.843683,6.130411,-0.711046,5.387830,1.966985
2026-03-22T22:18:35.498841,-7.503891,26.368904,4.283152,-2.613280,4.902803,-0.007330
2026-03-22T22:18:35.508841,-4.163511,21.377478,3.297309,-3.817906,4.284607,-1.258382
2026-03-22T22:18:35.518841,-2.076970,17.300106,0.698704,-4.164878,3.378084,-1.816712
2026-03-22T22:18:35.527841,-2.072184,15.792629,-1.976471,-4.003609,2.343278,-2.138027
2026-03-22T22:18:35.537841,-3.225524,14.385649,-2.943171,-3.667634,1.450193,-2.331061
2026-03-22T22:18:35.547841,-2.919243,12.040683,-2.196611,-3.126407,0.895528,-2.692693
2026-03-22T22:18:35.556841,-3.125026,11.030912,-3.416950,-2.519207,0.791681,-3.357314
2026-03-22T22:18:35.566841,-2.512463,9.456434,-2.833101,-1.975537,0.895528,-4.225964
2026-03-22T22:18:35.575841,-1.450050,8.087740,-3.172882,-1.611462,0.872315,-5.090949
2026-03-22T22:18:35.585841,0.028713,6.824330,-2.880958,-1.376889,0.691499,-5.753127
2026-03-22T22:18:35.595841,1.229910,5.359922,-2.938386,-1.188743,0.481361,-6.169737
2026-03-22T22:18:35.604841,2.062613,3.627519,-3.134597,-0.944397,0.235793,-6.382318
2026-03-22T22:18:35.614841,2.852244,2.072184,-3.546163,-0.554665,-0.026878,-6.469061
2026-03-22T22:18:35.623841,3.311666,0.899701,-3.933800,-0.064751,-0.389731,-6.519152
2026-03-22T22:18:35.633841,3.976871,-0.215354,-4.532006,0.437379,-0.960279,-6.561913
2026-03-22T22:18:35.643841,5.111069,-1.957328,-4.718646,1.077566,-1.638340,-6.646212
2026-03-22T22:18:35.652841,6.680760,-3.369094,-4.493720,1.921781,-2.266309,-6.884449
2026-03-22T22:18:35.662841,9.269794,-4.828716,-3.536591,2.918713,-2.828305,-7.303503
2026-03-22T22:18:35.672841,11.217552,-7.125825,-1.497906,4.020714,-3.200933,-7.771425
2026-03-22T22:18:35.681841,17.357534,-8.288737,0.617348,5.171584,-3.211928,-7.916811
2026-03-22T22:18:35.691841,19.367506,-9.494720,4.254438,6.398201,-2.973691,-7.616266
2026-03-22T22:18:35.700841,22.162321,-10.657631,7.814958,7.894820,-2.393369,-6.814811
2026-03-22T22:18:35.710841,22.683958,-11.648260,12.863814,9.132433,-1.470963,-5.692040
2026-03-22T22:18:35.720841,19.975283,-10.619346,20.185850,9.132433,-0.280997,-4.299268
2026-03-22T22:18:35.729841,15.663416,-10.887342,30.120850,7.670022,0.679282,-2.796540
2026-03-22T22:18:35.739841,11.117053,-10.978270,38.467014,5.125157,0.160046,-0.967610
2026-03-22T22:18:35.748841,11.126625,-10.604989,37.950165,1.502728,-1.916894,1.694539
2026-03-22T22:18:35.758841,13.342378,-12.074182,31.690542,-1.576031,-4.153882,4.366463
2026-03-22T22:18:35.768841,16.845470,-14.577075,24.727428,-2.417804,-5.274209,6.406753
2026-03-22T22:18:35.777841,19.003798,-13.466805,16.979469,-1.524719,-4.469089,7.898485
2026-03-22T22:18:35.787841,18.927225,-10.461420,14.246865,0.112399,-2.129475,8.995599
2026-03-22T22:18:35.797841,15.419348,-4.354937,13.744373,1.762956,0.416610,9.776285
2026-03-22T22:18:35.806841,13.610374,1.660618,14.672788,2.765997,2.144136,10.213664
2026-03-22T22:18:35.816841,12.260823,6.876972,17.190037,2.907717,3.240028,10.383485
2026-03-22T22:18:35.825841,11.069197,12.016755,20.472990,2.390926,4.232073,10.338280
2026-03-22T22:18:35.835841,8.121239,18.290735,24.095722,1.748295,5.194796,9.881354
2026-03-22T22:18:35.845841,1.148554,24.090937,22.258036,1.358564,5.984034,8.734149
2026-03-22T22:18:35.854841,-7.144968,28.402803,21.420547,1.561371,6.327340,6.972414
2026-03-22T22:18:35.864841,-12.189038,28.934010,13.194023,1.252273,6.384762,5.110497
2026-03-22T22:18:35.873841,-10.566704,27.192036,6.613761,0.318871,5.937608,3.160616
2026-03-22T22:18:35.883841,-9.542576,23.449661,5.718846,-1.044579,5.093393,1.336572
2026-03-22T22:18:35.893841,-6.881757,18.769300,3.996013,-2.322509,4.213747,-0.032986
2026-03-22T22:18:35.902841,-5.120640,15.046068,2.732603,-3.071429,3.425731,-0.857654
2026-03-22T22:18:35.912841,-4.398007,12.509676,1.555334,-3.269350,2.681697,-1.351233
2026-03-22T22:18:35.922841,-4.206582,10.839486,1.033699,-3.186272,2.047619,-1.665218
2026-03-22T22:18:35.931841,-4.331008,9.710074,0.746560,-2.972469,1.512502,-1.915672
2026-03-22T22:18:35.941841,-3.981656,9.250652,0.780060,-2.614502,1.125213,-2.216218
2026-03-22T22:18:35.950841,-3.627519,8.494520,0.885344,-2.250427,0.974940,-2.637715
2026-03-22T22:18:35.960841,-3.096312,7.819744,1.172483,-1.887573,0.944397,-3.186272
2026-03-22T22:18:35.970841,-1.765903,6.771687,0.856630,-1.591914,0.930958,-3.699399
2026-03-22T22:18:35.979841,0.038285,5.350351,0.507278,-1.363450,0.916297,-4.089131
2026-03-22T22:18:35.989841,1.627119,3.828516,0.157926,-1.109331,0.838106,-4.295603
2026-03-22T22:18:35.998841,2.560320,2.517249,-0.535992,-0.756251,0.664621,-4.296825
2026-03-22T22:18:36.008841,3.527020,1.220339,-1.081555,-0.334754,0.371405,-4.113565
2026-03-22T22:18:36.018841,3.407379,0.110069,-1.540977,0.138055,0.023212,-3.860667
2026-03-22T22:18:36.027841,4.326223,-0.607776,-1.938186,0.627969,-0.443488,-3.595552
2026-03-22T22:18:36.037841,4.436293,-1.162911,-2.445464,1.055574,-1.033583,-3.337766
2026-03-22T22:18:36.047841,4.335794,-1.631905,-1.435693,1.433089,-1.585805,-3.166724
2026-03-22T22:18:36.056841,4.455435,-1.545763,-0.320638,1.800830,-2.128254,-3.115412
2026-03-22T22:18:36.066841,4.704289,-1.718046,0.890130,2.217440,-2.593733,-3.136181
2026-03-22T22:18:36.075841,4.689932,-1.440479,2.402393,2.831970,-2.805092,-3.299893
2026-03-22T22:18:36.085841,4.957928,-0.976271,3.871586,3.430618,-2.785544,-3.512474
2026-03-22T22:18:36.095841,5.345565,-0.684347,5.402993,3.870441,-2.569298,-3.726277
2026-03-22T22:18:36.104841,5.383850,-0.593420,7.015755,4.159991,-2.349387,-3.880215
2026-03-22T22:18:36.114841,5.814558,-1.349551,7.302894,4.322481,-2.233322,-3.881436
2026-03-22T22:18:36.123841,7.063612,-1.861615,7.518248,4.451984,-2.211331,-3.766594
2026-03-22T22:18:36.133841,8.068597,-2.885744,8.762516,4.586375,-2.177123,-3.586999
2026-03-22T22:18:36.143841,9.174081,-3.661018,10.021141,4.767191,-2.146580,-3.356092
2026-03-22T22:18:36.152841,10.710273,-5.230710,10.887342,5.022532,-2.147801,-3.138624
2026-03-22T22:18:36.162841,11.911470,-6.446264,13.131810,5.318192,-2.265087,-2.862513
2026-03-22T22:18:36.172841,12.390035,-7.566105,16.668402,5.420817,-2.305404,-2.425134
2026-03-22T22:18:36.181841,12.308679,-8.752945,20.429918,5.380499,-1.907120,-1.742187
2026-03-22T22:18:36.191841,11.270194,-9.600004,24.148365,5.094615,-1.167974,-0.784350
2026-03-22T22:18:36.200841,10.131210,-9.863214,27.134607,4.344472,-0.497244,0.345749
2026-03-22T22:18:36.210841,9.609575,-8.729016,28.015167,3.141068,-0.127059,1.566258
2026-03-22T22:18:36.220841,10.202995,-7.140182,26.603401,1.728748,-0.111177,2.852740
2026-03-22T22:18:36.229841,10.518848,-6.034698,23.626730,0.543669,-0.322536,4.223521
2026-03-22T22:18:36.239841,11.207981,-5.053641,20.688343,0.012217,-0.520457,5.425704
2026-03-22T22:18:36.248841,11.676974,-2.947957,18.491734,-0.087964,-0.217467,6.513043
2026-03-22T22:18:36.258841,11.590832,-0.081355,17.477177,-0.030543,0.564439,7.387802
2026-03-22T22:18:36.268841,11.949756,3.345165,18.372091,0.141720,1.545488,8.117175
2026-03-22T22:18:36.277841,11.193624,9.332008,20.889341,0.254119,2.838079,8.610754
2026-03-22T22:18:36.287841,7.762316,16.232908,24.057438,0.075747,4.390898,8.605867
2026-03-22T22:18:36.297841,1.804188,23.698515,26.689543,-0.291993,5.792223,7.941246
2026-03-22T22:18:36.306841,-6.139982,27.421745,26.033909,-0.621860,6.438518,6.429966
2026-03-22T22:18:36.316841,-9.408578,29.953354,21.200409,-1.213178,6.019464,4.724430
2026-03-22T22:18:36.325841,-8.255237,26.632114,15.390634,-2.283413,5.187466,3.295006
2026-03-22T22:18:36.335841,-5.245067,25.359133,11.452048,-3.258354,4.623027,2.283413
2026-03-22T22:18:36.345841,-4.034298,22.607388,9.963713,-3.949853,4.287051,1.352455
2026-03-22T22:18:36.354841,-2.287538,20.013569,5.575276,-4.122117,3.874106,0.601091
2026-03-22T22:18:36.364841,-3.421736,18.510876,3.507877,-4.119674,3.367088,0.086742
2026-03-22T22:18:36.373841,-4.465006,17.376677,1.942971,-3.988949,2.709797,-0.324980
2026-03-22T22:18:36.383841,-5.087140,16.232908,0.727418,-3.712838,1.976759,-0.766024
2026-03-22T22:18:36.393841,-4.675575,14.548361,0.186640,-3.314554,1.488067,-1.304807
2026-03-22T22:18:36.402841,-3.929014,12.825529,0.004785,-2.846631,1.297477,-1.988976
2026-03-22T22:18:36.412841,-2.880958,11.126625,0.071784,-2.344500,1.262047,-2.665815
2026-03-22T22:18:36.422841,-2.038684,9.982855,-0.043070,-1.822821,1.196073,-3.286454
2026-03-22T22:18:36.431841,-1.708475,9.054440,-0.172283,-1.387885,1.062905,-3.838676
2026-03-22T22:18:36.441841,-1.205982,8.092526,-0.521635,-1.043357,0.879645,-4.361576
2026-03-22T22:18:36.450841,-0.392422,7.240681,-0.818345,-0.821002,0.656069,-4.846603
2026-03-22T22:18:36.460841,0.531206,6.163911,-0.966700,-0.680503,0.395840,-5.250996
2026-03-22T22:18:36.470841,1.478764,4.886143,-1.311266,-0.488692,0.087964,-5.549098
2026-03-22T22:18:36.479841,2.464607,3.890729,-1.808973,-0.267558,-0.263893,-5.748241
2026-03-22T22:18:36.489841,3.637090,2.359323,-2.024327,-0.025656,-0.640186,-5.837427
2026-03-22T22:18:36.498841,4.809573,1.067198,-2.019542,0.324980,-0.977384,-5.847200
2026-03-22T22:18:36.508841,5.302494,-0.110069,-1.497906,0.825889,-1.315803,-5.808105
2026-03-22T22:18:36.518841,6.805187,-1.684547,-2.062613,1.524719,-1.589471,-5.723806
2026-03-22T22:18:36.527841,5.407779,-2.732603,-0.047856,2.390926,-1.846034,-5.693262
2026-03-22T22:18:36.537841,9.001798,-3.728017,-0.976271,3.430618,-2.083050,-5.804439
2026-03-22T22:18:36.547841,11.452048,-4.498506,0.607776,4.548501,-2.301739,-5.907065
2026-03-22T22:18:36.556841,14.074582,-4.374079,2.651247,5.668828,-2.447125,-5.885074
2026-03-22T22:18:36.566841,16.917255,-4.445864,5.493920,6.652321,-2.471560,-5.650502
2026-03-22T22:18:36.575841,18.884155,-5.862415,9.332008,7.444002,-2.293187,-5.257104
2026-03-22T22:18:36.585841,21.119053,-5.795416,13.174881,8.202696,-1.951103,-4.647461
2026-03-22T22:18:36.595841,20.946770,-6.374479,19.444077,8.524011,-1.253495,-3.652973
2026-03-22T22:18:36.604841,18.027525,-7.073183,28.120451,7.907037,-0.327423,-2.389704
2026-03-22T22:18:36.614841,13.189238,-9.260223,37.935810,6.241819,0.226020,-1.112996
2026-03-22T22:18:36.623841,9.748359,-8.408378,40.453056,3.419622,-0.183259,0.417831
2026-03-22T22:18:36.633841,10.073783,-8.724231,37.739597,-0.063529,-1.643227,2.532646
2026-03-22T22:18:36.643841,13.141381,-9.212367,30.226135,-2.590068,-3.057990,4.746422
2026-03-22T22:18:36.652841,15.854842,-10.159924,22.961525,-2.955365,-3.736051,6.532591
2026-03-22T22:18:36.662841,16.697117,-7.819744,17.003397,-2.163684,-2.695136,7.788530
2026-03-22T22:18:36.672841,15.366706,-4.426721,14.045868,-0.908967,-0.598647,8.731705
2026-03-22T22:18:36.681841,13.959727,0.425922,12.993026,0.199142,1.470963,9.332797
2026-03-22T22:18:36.691841,12.169895,5.072783,13.902299,0.910189,3.104416,9.627234
2026-03-22T22:18:36.700841,10.480562,10.236495,16.161123,1.109331,4.258951,9.701759
2026-03-22T22:18:36.710841,8.532805,15.964912,18.089739,0.805120,5.299865,9.441531
2026-03-22T22:18:36.720841,3.780659,20.659630,21.324835,0.183259,6.445848,8.569215
2026-03-22T22:18:36.729841,-3.019742,26.445475,23.827726,-0.277332,7.123908,6.971192
2026-03-22T22:18:36.739841,-8.977870,28.168306,20.152351,-0.692721,6.978523,5.166697
2026-03-22T22:18:36.748841,-8.341379,28.378876,18.003597,-1.368337,6.316345,3.573560
2026-03-22T22:18:36.758841,-5.910271,24.019154,11.547761,-2.235766,5.666384,2.524094
2026-03-22T22:18:36.768841,-4.005585,21.798613,9.863214,-2.690249,5.101945,1.573588
2026-03-22T22:18:36.777841,-2.799602,19.788643,7.192824,-2.934595,4.682891,0.741590
2026-03-22T22:18:36.787841,-2.857030,18.616159,4.943571,-3.149620,4.262616,0.029321
2026-03-22T22:18:36.797841,-3.871586,17.266607,3.048455,-3.310888,3.687181,-0.547335
2026-03-22T22:18:36.806841,-4.110869,16.046268,1.698904,-3.389079,2.992017,-1.023809
2026-03-22T22:18:36.816841,-4.383651,14.553147,0.598205,-3.279123,2.361604,-1.590692
2026-03-22T22:18:36.825841,-3.713660,12.720244,-0.287138,-2.994460,1.985311,-2.279748
2026-03-22T22:18:36.835841,-2.727817,11.102696,-1.162911,-2.586402,1.787391,-3.106859
2026-03-22T22:18:36.845841,-1.933400,9.762716,-2.096112,-2.112371,1.568701,-3.927862
2026-03-22T22:18:36.854841,-1.545763,8.963513,-3.302095,-1.704313,1.170417,-4.685335
2026-03-22T22:18:36.864841,-0.966700,8.269594,-3.881158,-1.642005,0.569326,-5.345069
2026-03-22T22:18:36.873841,-0.143569,7.307680,-3.881158,-1.879021,-0.185702,-5.929056
2026-03-22T22:18:36.883841,1.818545,6.116054,-3.651447,-2.139249,-0.945619,-6.394535
2026-03-22T22:18:36.893841,3.665804,3.885943,-3.804587,-2.236988,-1.424537,-6.734176
2026-03-22T22:18:36.902841,5.450849,1.445264,-4.153940,-2.001194,-1.649335,-6.921101
2026-03-22T22:18:36.912841,6.848258,-0.684347,-5.843272,-1.469741,-1.674992,-7.062822
2026-03-22T22:18:36.922841,8.039883,-2.732603,-5.316851,-0.678060,-1.744630,-7.056713
2026-03-22T22:18:36.931841,10.265208,-5.254638,-5.374279,0.379958,-1.795943,-6.893001
2026-03-22T22:18:36.941841,10.825129,-6.939185,-5.565705,1.736078,-1.738522,-6.725624
2026-03-22T22:18:36.950841,12.208180,-7.767102,-4.460221,3.213150,-1.672548,-6.566799
2026-03-22T22:18:36.960841,13.715659,-7.719245,-2.110469,4.583931,-1.740965,-6.346888
2026-03-22T22:18:36.970841,15.022140,-8.121239,0.531206,5.780005,-1.916894,-5.959600
2026-03-22T22:18:36.979841,17.764315,-7.570890,3.206382,6.879562,-2.235766,-5.349956
2026-03-22T22:18:36.989841,19.185652,-7.575676,9.934999,7.640700,-2.497216,-4.455650
2026-03-22T22:18:36.998841,20.291136,-7.939385,11.380264,8.042650,-2.823418,-3.210707
2026-03-22T22:18:37.008841,19.946569,-8.652446,16.218552,8.054867,-2.926043,-1.769065
2026-03-22T22:18:37.018841,18.166309,-9.451649,22.937597,7.418345,-2.706132,-0.362853
2026-03-22T22:18:37.027841,15.290136,-10.447063,30.087351,5.765344,-2.474003,1.088561
2026-03-22T22:18:37.037841,12.734601,-11.471191,34.327435,3.290119,-2.558303,2.673145
2026-03-22T22:18:37.047841,13.758729,-10.805986,32.671600,0.773355,-2.634050,4.383568
2026-03-22T22:18:37.056841,14.739787,-9.001798,27.565315,-0.729372,-2.333504,6.052451
2026-03-22T22:18:37.066841,14.835500,-5.790630,22.846670,-0.748920,-1.681100,7.403685
2026-03-22T22:18:37.075841,13.509876,-1.655833,19.558931,-0.083077,-0.376292,8.445821
2026-03-22T22:18:37.085841,11.447263,2.311466,18.266808,0.852767,1.251051,9.002930
2026-03-22T22:18:37.095841,8.590233,6.187839,18.419949,1.661553,2.620611,9.013925
2026-03-22T22:18:37.104841,6.120840,9.303294,18.410378,2.086715,3.517361,8.698719
2026-03-22T22:18:37.114841,4.101297,11.322836,17.970097,2.117258,4.034153,8.206361
2026-03-22T22:18:37.123841,2.933600,12.356535,17.821741,1.786169,4.360355,7.617487
2026-03-22T22:18:37.133841,1.737189,14.524433,17.606388,1.109331,4.698774,6.894223
2026-03-22T22:18:37.143841,0.492921,16.381264,18.740585,0.295658,5.056741,6.054894
2026-03-22T22:18:37.152841,-2.215753,18.008383,18.506088,-0.466700,5.224118,5.110497
2026-03-22T22:18:37.162841,-4.431507,19.008581,16.778473,-1.143539,5.056741,4.109900
2026-03-22T22:18:37.172841,-4.967499,18.774086,14.825928,-1.657887,4.536284,3.165503
2026-03-22T22:18:37.181841,-5.479563,18.037096,11.629117,-1.885129,3.980397,2.150245
2026-03-22T22:18:37.191841,-6.407978,17.883957,9.753144,-1.777617,3.764150,1.000597
2026-03-22T22:18:37.200841,-5.015356,15.926627,7.350751,-1.935220,3.744603,-0.091629
2026-03-22T22:18:37.210841,-3.833301,13.974083,5.469992,-2.168571,3.616321,-1.171639
2026-03-22T22:18:37.220841,-3.053241,12.189038,4.106083,-2.377487,3.252245,-2.004859
2026-03-22T22:18:37.229841,-2.000399,10.356136,2.201396,-2.533868,2.692693,-2.505768
2026-03-22T22:18:37.239841,-1.488335,8.719445,0.894915,-2.576629,2.101375,-2.856405
2026-03-22T22:18:37.248841,-1.138983,7.235895,0.239282,-2.364047,1.651779,-3.216815
2026-03-22T22:18:37.258841,-0.435493,5.819344,-0.267996,-2.035402,1.453858,-3.622430
2026-03-22T22:18:37.268841,-0.210568,4.795216,-0.449850,-1.755626,1.440419,-4.129448
2026-03-22T22:18:37.277841,-0.033499,4.316651,-0.516849,-1.488067,1.372003,-4.647461
2026-03-22T22:18:37.287841,-0.368494,4.316651,-0.861416,-1.306029,1.171639,-5.185023
2026-03-22T22:18:37.297841,0.244067,3.929014,-1.909472,-1.287703,0.808785,-5.638284
2026-03-22T22:18:37.306841,1.387837,2.971885,-3.005385,-1.345124,0.357966,-5.977925
2026-03-22T22:18:37.316841,2.325823,1.966900,-3.929014,-1.393994,-0.072082,-6.269919
2026-03-22T22:18:37.325841,4.311866,-0.019142,-5.364708,-1.298699,-0.510683,-6.539921
2026-03-22T22:18:37.335841,5.958128,-1.871187,-5.048855,-1.009149,-0.770911,-6.828250
2026-03-22T22:18:37.345841,7.953742,-3.570091,-6.025127,-0.470366,-1.080009,-7.077483
2026-03-22T22:18:37.354841,10.236495,-5.699703,-6.187839,0.395840,-1.437976,-7.158117
2026-03-22T22:18:37.364841,12.863814,-7.901100,-5.532205,1.634675,-1.885129,-7.072596
2026-03-22T22:18:37.373841,14.189438,-9.073583,-3.584448,2.983465,-2.240653,-6.940649
2026-03-22T22:18:37.383841,17.257036,-9.475577,-1.081555,4.301712,-2.602285,-6.559469
2026-03-22T22:18:37.393841,17.874384,-11.040483,1.421336,5.505116,-3.237585,-5.842313
2026-03-22T22:18:37.402841,19.606789,-8.355736,5.709274,6.484944,-3.596773,-4.805065
2026-03-22T22:18:37.412841,21.147766,-11.997612,8.183453,7.255855,-3.782476,-3.489261
2026-03-22T22:18:37.422841,20.626129,-12.744173,13.639088,7.676130,-3.594330,-1.929112
2026-03-22T22:18:37.431841,18.530018,-13.074382,20.075781,7.403685,-2.985908,-0.228463
2026-03-22T22:18:37.441841,15.136995,-12.318250,26.163122,6.111094,-2.239431,1.418428
2026-03-22T22:18:37.450841,11.882757,-10.743773,29.230721,3.933971,-1.740965,2.919935
2026-03-22T22:18:37.460841,10.695917,-8.614161,28.220949,1.556484,-1.668883,4.320038
2026-03-22T22:18:37.470841,11.432906,-6.656832,24.402004,-0.260228,-1.815491,5.623623
2026-03-22T22:18:37.479841,11.705688,-4.919643,20.626129,-1.033583,-1.759291,6.761055
2026-03-22T22:18:37.489841,11.054840,-2.411965,18.061024,-0.828333,-1.341459,7.437893
2026-03-22T22:18:37.498841,10.131210,0.401994,16.816757,-0.080634,-0.649960,7.828847
2026-03-22T22:18:37.508841,8.580661,2.799602,17.333607,0.830776,0.217467,8.108623
2026-03-22T22:18:37.518841,7.269395,5.264209,18.295521,1.698205,1.139874,8.119619
2026-03-22T22:18:37.527841,5.297709,7.795816,19.424932,2.326174,2.050063,7.819073
2026-03-22T22:18:37.537841,4.307080,9.944570,20.267206,2.646267,2.896722,7.387802
2026-03-22T22:18:37.547841,3.646661,10.700702,20.386848,2.596176,3.804467,6.858793
2026-03-22T22:18:37.556841,0.401994,13.911870,21.396620,2.118480,4.631579,6.172181
2026-03-22T22:18:37.566841,-0.220139,16.170694,21.276978,1.248608,4.938233,5.362174
2026-03-22T22:18:37.575841,-1.033699,18.037096,17.649460,0.153938,4.921129,4.387233
2026-03-22T22:18:37.585841,-3.330809,18.702301,18.171095,-0.875980,4.565605,3.308445
2026-03-22T22:18:37.595841,-3.192025,17.754744,13.476376,-1.676213,4.046370,2.289522
2026-03-22T22:18:37.604841,-2.723032,15.773486,9.097511,-2.079384,3.571117,1.373224
2026-03-22T22:18:37.614841,-2.478964,14.739787,6.972685,-2.081828,3.233919,0.483805
2026-03-22T22:18:37.623841,-1.416550,12.332607,4.364508,-2.023185,3.055547,-0.284663
2026-03-22T22:18:37.633841,-0.564706,10.829915,5.096712,-1.910786,2.911383,-1.049466
2026-03-22T22:18:37.643841,-1.004985,9.035298,2.177468,-1.624901,2.615724,-1.667661
2026-03-22T22:18:37.652841,-0.751346,7.858029,1.981257,-1.364672,2.377487,-2.183231
2026-03-22T22:18:37.662841,-0.622133,7.326822,2.354537,-1.098335,2.257757,-2.762332
2026-03-22T22:18:37.672841,-1.028913,6.972685,3.115455,-0.800233,2.289522,-3.412292
2026-03-22T22:18:37.681841,-1.378265,6.398407,3.412165,-0.548556,2.458121,-4.089131
2026-03-22T22:18:37.691841,-1.301695,5.761916,3.254238,-0.449596,2.599841,-4.819726
2026-03-22T22:18:37.700841,-0.713061,5.240281,2.000399,-0.492357,2.488664,-5.475794
2026-03-22T22:18:37.710841,0.100498,4.445864,0.306281,-0.697607,2.023185,-5.953491
2026-03-22T22:18:37.720841,0.717846,3.914657,-1.205982,-1.092226,1.180191,-6.256480
2026-03-22T22:18:37.729841,1.416550,3.048455,-2.435893,-1.582140,0.018325,-6.381096
2026-03-22T22:18:37.739841,2.919243,1.445264,-3.584448,-1.905899,-1.153313,-6.438518
2026-03-22T22:18:37.748841,4.618147,-0.478564,-4.297509,-1.855808,-1.946216,-6.569243
2026-03-22T22:18:37.758841,6.757331,-2.187039,-4.512863,-1.392772,-2.373821,-6.803815
2026-03-22T22:18:37.768841,9.006584,-4.192225,-4.029513,-0.580321,-2.541198,-7.054270
2026-03-22T22:18:37.777841,12.457034,-5.441278,-3.842873,0.394618,-2.445903,-7.297394
2026-03-22T22:18:37.787841,11.992826,-7.881957,-2.019542,1.640783,-2.428799,-7.326716
2026-03-22T22:18:37.797841,13.629517,-9.064012,-0.626919,3.012786,-2.436130,-7.188660
2026-03-22T22:18:37.806841,14.868999,-7.862815,1.808973,4.125782,-2.489886,-6.712185
2026-03-22T22:18:37.816841,14.591432,-11.638689,3.187239,4.806286,-2.758666,-5.849644
2026-03-22T22:18:37.825841,15.457633,-11.117053,9.944570,5.147149,-3.050660,-4.477641
2026-03-22T22:18:37.835841,17.692530,-13.605589,9.480363,5.358508,-3.331658,-2.921156
2026-03-22T22:18:37.845841,16.773685,-13.069597,13.265808,5.346291,-3.568673,-1.230282
2026-03-22T22:18:37.854841,15.534204,-11.624332,16.874184,4.885698,-3.630982,0.261450
2026-03-22T22:18:37.864841,14.672788,-11.341979,20.085352,4.052479,-3.534465,1.451415
2026-03-22T22:18:37.873841,14.084153,-10.796415,23.253450,3.150842,-3.222924,2.417804
2026-03-22T22:18:37.883841,14.045868,-9.370293,26.210978,2.362826,-2.860070,3.472157
2026-03-22T22:18:37.893841,12.792029,-6.757331,27.838099,1.762956,-2.389704,4.603479
2026-03-22T22:18:37.902841,9.930213,-4.584648,28.287949,1.339016,-1.714087,5.326743
2026-03-22T22:18:37.912841,7.680960,-1.885544,25.832912,1.192408,-0.831998,5.595524
2026-03-22T22:18:37.922841,6.283552,0.157926,23.263021,1.326799,0.128281,5.597967
2026-03-22T22:18:37.931841,5.297709,1.268195,20.348562,1.546710,1.198517,5.492899
2026-03-22T22:18:37.941841,3.546163,4.776073,19.180864,2.015854,3.109303,4.603479
2026-03-22T22:18:37.950841,4.034298,5.230710,17.927027,2.326174,3.243693,4.553388
2026-03-22T22:18:37.960841,2.555534,6.833901,17.151752,2.400699,3.430618,4.469089
2026-03-22T22:18:37.970841,0.368494,9.068797,15.165709,2.697580,3.595552,3.990170
2026-03-22T22:18:37.979841,-2.555534,11.614760,12.758530,2.961474,3.659082,3.153285
2026-03-22T22:18:37.989841,-3.081955,11.897113,10.638489,3.138624,3.613877,1.894903
2026-03-22T22:18:37.998841,-2.895315,8.786444,9.877571,4.880811,2.789210,-1.142317
2026-03-22T22:18:38.008841,-1.751546,7.484749,9.131011,6.456844,3.174055,-3.825237
2026-03-22T22:18:38.018841,-2.378465,8.480163,8.920442,5.828874,4.669452,-3.645642
2026-03-22T22:18:38.027841,-0.492921,6.010770,12.122039,3.905871,5.477016,-2.612059
2026-03-22T22:18:38.037841,-0.856630,5.938985,11.035697,2.866179,5.161810,-1.974316
2026-03-22T22:18:38.047841,-0.445065,6.786044,9.446863,1.943772,4.443432,-1.490510
2026-03-22T22:18:38.056841,-4.924428,13.792229,8.327022,0.189368,3.379305,-0.863763
2026-03-22T22:18:38.066841,-1.454836,5.115854,7.633104,-0.847880,2.261422,-0.764803
2026-03-22T22:18:38.075841,-1.507478,6.130411,7.685746,-1.417207,1.417207,-0.864984
2026-03-22T22:18:38.085841,-2.364108,6.805187,4.584648,-1.914451,0.860098,-1.186300
2026-03-22T22:18:38.095841,-3.670589,6.556333,1.296909,-2.023185,0.637743,-1.933998
2026-03-22T22:18:38.104841,-3.665804,5.982056,0.698704,-1.750739,0.538783,-2.731788
2026-03-22T22:18:38.114841,-1.148554,6.206981,0.550349,-1.233947,0.658512,-3.406183
2026-03-22T22:18:38.123841,-0.181854,6.934399,3.460021,-0.908967,1.125213,-3.744603
2026-03-22T22:18:38.133841,-0.526420,5.532205,3.637090,-0.910189,1.434311,-3.820350
2026-03-22T22:18:38.143841,-0.066999,3.397808,2.699103,-0.896749,1.677435,-3.886323
2026-03-22T22:18:38.152841,-2.589034,2.818745,2.038684,-0.858876,1.618792,-4.013383
2026-03-22T22:18:38.162841,-2.316252,2.383251,1.253839,-1.099557,0.800233,-4.166100
