Timestamp,Acceleration_X,Acceleration_Y,Acceleration_Z,Gyro_X,Gyro_Y,Gyro_Z
2026-03-04T18:50:17.078016,10.370493,-5.599204,5.915057,1.544267,-4.669452,0.917519
2026-03-04T18:50:17.088016,10.954341,-5.426921,9.020941,1.794721,-4.192978,0.660956
2026-03-04T18:50:17.097016,10.700702,-5.402993,10.777272,1.948659,-3.534465,0.516791
2026-03-04T18:50:17.107016,10.480562,-4.733003,12.035897,2.067167,-2.794097,0.365297
2026-03-04T18:50:17.116016,9.475577,-3.637090,12.098111,2.164905,-2.036624,0.201585
2026-03-04T18:50:17.126016,8.757730,-2.962314,13.232308,2.173458,-1.470963,0.013439
2026-03-04T18:50:17.136016,8.714659,-2.866601,14.567503,1.999972,-1.004262,-0.146607
2026-03-04T18:50:17.145016,8.973084,-2.857030,15.036497,1.770287,-0.426383,-0.304210
2026-03-04T18:50:17.155016,8.853443,-3.129811,14.500504,1.451415,0.289550,-0.466700
2026-03-04T18:50:17.165016,8.365307,-3.747160,13.639088,1.116661,0.985936,-0.635299
2026-03-04T18:50:17.174016,8.025527,-4.637290,12.753744,0.855211,1.613905,-0.803898
2026-03-04T18:50:17.184016,7.499106,-5.288137,11.763115,0.697607,2.217440,-0.977384
2026-03-04T18:50:17.193016,6.719045,-5.584847,10.059426,0.615752,2.783101,-1.154535
2026-03-04T18:50:17.203016,6.135197,-6.163911,8.561519,0.561995,3.238806,-1.358564
2026-03-04T18:50:17.213016,5.460421,-5.967699,7.580461,0.561995,3.578447,-1.525941
2026-03-04T18:50:17.222016,5.039284,-5.948556,6.723831,0.481361,3.842341,-1.649335
2026-03-04T18:50:17.232016,4.689932,-5.905486,5.436492,0.273667,4.076913,-1.696983
2026-03-04T18:50:17.241016,4.230510,-5.661418,3.742374,-0.029321,4.263838,-1.671326
2026-03-04T18:50:17.251016,3.785445,-5.388636,2.301895,-0.456927,4.343250,-1.643227
2026-03-04T18:50:17.261016,3.728017,-6.039484,0.981057,-1.003040,4.384789,-1.638340
2026-03-04T18:50:17.270016,4.168296,-7.456035,-0.287138,-1.480737,4.510627,-1.673770
2026-03-04T18:50:17.280016,3.938585,-9.466006,-2.857030,-1.805717,4.681670,-1.656666
2026-03-04T18:50:17.290016,3.828516,-12.404392,-5.915057,-2.061058,4.735426,-1.604131
2026-03-04T18:50:17.299016,3.972085,-15.041282,-9.839286,-2.174679,4.619361,-1.345124
2026-03-04T18:50:17.309016,3.718446,-16.960325,-14.897713,-2.067167,4.376237,-0.934623
2026-03-04T18:50:17.318016,3.335594,-18.266808,-17.678173,-1.546710,3.860667,-0.614530
2026-03-04T18:50:17.328016,3.670589,-18.577873,-18.161524,-0.928514,3.115412,-0.230907
2026-03-04T18:50:17.338016,4.402793,-16.357334,-17.998812,-0.518013,2.359161,0.226020
2026-03-04T18:50:17.347016,4.465006,-14.888142,-19.137794,-0.168598,1.656666,0.580321
2026-03-04T18:50:17.357016,3.943371,-12.208180,-17.127825,0.047647,0.853989,0.833220
2026-03-04T18:50:17.366016,4.622933,-11.255837,-15.089139,0.103847,0.122173,0.924849
2026-03-04T18:50:17.376016,4.220939,-10.753344,-16.888540,-0.201585,-0.312762,1.081231
2026-03-04T18:50:17.386016,1.899901,-10.179067,-18.721443,-0.430049,-0.763581,1.034805
2026-03-04T18:50:17.395016,-0.301495,-10.514062,-17.343178,-0.572991,-1.429424,0.886976
2026-03-04T18:50:17.405016,-1.421336,-10.997412,-15.280565,-0.636521,-2.169792,0.790459
2026-03-04T18:50:17.415016,-1.689332,-11.231909,-14.457434,-0.620638,-2.910161,0.730594
2026-03-04T18:50:17.424016,-0.382851,-11.471191,-12.930813,-0.459370,-3.644421,0.609643
2026-03-04T18:50:17.434016,0.157926,-9.724431,-12.294322,-0.241902,-4.284607,0.610865
2026-03-04T18:50:17.443016,1.919043,-9.279366,-9.930213,-0.119729,-4.874703,0.518013
2026-03-04T18:50:17.453016,3.862015,-9.346365,-7.886743,0.040317,-5.242444,0.406836
2026-03-04T18:50:17.463016,5.221138,-8.695517,-5.905486,0.199142,-5.379277,0.322536
2026-03-04T18:50:17.472016,5.910271,-8.484948,-4.149154,0.322536,-5.367061,0.241902
2026-03-04T18:50:17.482016,6.077769,-8.551947,-1.847259,0.353080,-5.340182,0.228463
2026-03-04T18:50:17.491016,6.393621,-8.886943,0.607776,0.348193,-5.326743,0.250454
2026-03-04T18:50:17.501016,6.843472,-9.308079,3.259024,0.335975,-5.297422,0.306654
2026-03-04T18:50:17.511016,7.618747,-9.533005,5.647061,0.394618,-5.170362,0.328645
2026-03-04T18:50:17.520016,8.585447,-9.662217,8.695517,0.577878,-4.915020,0.304210
2026-03-04T18:50:17.530016,9.183653,-9.489934,11.844471,0.856432,-4.514293,0.309097
2026-03-04T18:50:17.540016,10.116853,-9.198010,14.835500,1.115439,-3.903428,0.215024
2026-03-04T18:50:17.549016,10.370493,-8.781658,16.031912,1.310916,-2.977356,0.152716
2026-03-04T18:50:17.559016,9.370293,-7.929814,15.945769,1.479515,-1.927890,0.155159
2026-03-04T18:50:17.568016,8.551947,-7.633104,17.831314,1.637118,-1.054353,0.101403
2026-03-04T18:50:17.578016,8.130811,-8.949156,19.573288,1.613905,-0.251676,0.130725
2026-03-04T18:50:17.588016,6.838686,-8.982656,16.094124,1.578475,0.640186,0.221133
2026-03-04T18:50:17.597016,5.273781,-7.350751,9.255437,1.635896,1.207069,0.190589
2026-03-04T18:50:17.607016,4.771288,-5.929414,6.211767,1.682322,1.320690,0.069638
2026-03-04T18:50:17.616016,5.699703,-5.489135,6.833901,1.437976,1.285260,-0.163711
2026-03-04T18:50:17.626016,7.628318,-6.101697,9.341579,1.109331,1.545488,-0.383623
2026-03-04T18:50:17.636016,7.791030,-6.159125,9.719645,0.802676,2.243096,-0.530230
2026-03-04T18:50:17.645016,6.072983,-5.905486,7.489534,0.530230,2.944369,-0.660956
2026-03-04T18:50:17.655016,4.388436,-5.584847,5.584847,0.376292,3.349984,-0.806341
2026-03-04T18:50:17.665016,3.517449,-5.565705,4.618147,0.260228,3.544239,-0.927293
2026-03-04T18:50:17.674016,2.809173,-4.986642,3.900300,0.080634,3.667634,-1.021366
2026-03-04T18:50:17.684016,2.158325,-4.426721,2.947957,-0.163711,3.742159,-1.133765
2026-03-04T18:50:17.693016,1.895115,-4.297509,2.483749,-0.393397,3.766594,-1.240056
2026-03-04T18:50:17.703016,1.885544,-4.240081,1.947757,-0.641408,3.798359,-1.348790
2026-03-04T18:50:17.713016,2.254038,-5.819344,0.473778,-1.018923,3.897319,-1.448972
2026-03-04T18:50:17.722016,2.478964,-8.843872,-2.670390,-1.436754,4.041483,-1.461189
2026-03-04T18:50:17.732016,2.206182,-12.375678,-7.054041,-1.816712,4.065918,-1.379333
2026-03-04T18:50:17.741016,1.914258,-15.826128,-12.332607,-2.108706,3.810576,-1.103222
2026-03-04T18:50:17.751016,1.402194,-18.640087,-17.883957,-2.084271,3.401296,-0.833220
2026-03-04T18:50:17.761016,0.229710,-20.659630,-20.367704,-1.663996,2.669480,-0.621860
2026-03-04T18:50:17.770016,0.129212,-19.290936,-16.524832,-0.805120,1.576031,-0.395840
2026-03-04T18:50:17.780016,2.244467,-14.825928,-9.992427,0.074525,0.604756,-0.266337
2026-03-04T18:50:17.790016,4.718646,-10.949556,-5.982056,0.665842,0.105068,-0.146607
2026-03-04T18:50:17.799016,6.398407,-8.417949,-4.953142,1.000597,-0.171042,-0.103847
2026-03-04T18:50:17.809016,8.307880,-8.499305,-5.862415,1.006705,-0.379958,0.015882
2026-03-04T18:50:17.818016,8.719445,-11.088339,-11.016555,0.607199,-0.428827,0.268780
2026-03-04T18:50:17.828016,6.125625,-12.662817,-16.567904,0.153938,-0.565661,0.498465
2026-03-04T18:50:17.838016,2.134397,-11.921042,-16.840685,-0.257785,-1.155756,0.625525
2026-03-04T18:50:17.847016,-0.004785,-11.475977,-12.887742,-0.619417,-1.904677,0.561995
2026-03-04T18:50:17.857016,-0.373280,-11.566904,-10.595418,-0.845437,-2.464229,0.477696
2026-03-04T18:50:17.866016,-0.057427,-10.925627,-10.097711,-0.864984,-2.883283,0.431270
2026-03-04T18:50:17.876016,0.258424,-10.145567,-9.145367,-0.758694,-3.332880,0.354301
2026-03-04T18:50:17.886016,1.186840,-9.690931,-7.460820,-0.609643,-3.777589,0.290771
2026-03-04T18:50:17.895016,2.402393,-8.824729,-5.580062,-0.425162,-4.156326,0.273667
2026-03-04T18:50:17.905016,3.579662,-7.934599,-3.723231,-0.335975,-4.409224,0.270002
2026-03-04T18:50:17.915016,4.469792,-7.523034,-2.134397,-0.376292,-4.519180,0.273667
2026-03-04T18:50:17.924016,4.857429,-7.010970,-0.861416,-0.452040,-4.488636,0.285884
2026-03-04T18:50:17.934016,4.977071,-6.537191,0.287138,-0.608421,-4.367685,0.260228
2026-03-04T18:50:17.943016,5.015356,-6.690331,1.282552,-0.791681,-4.205195,0.171042
2026-03-04T18:50:17.953016,5.288137,-8.145168,2.627319,-0.981049,-4.037818,0.075747
2026-03-04T18:50:17.963016,5.833701,-9.829715,4.421936,-1.026253,-3.898541,0.035430
2026-03-04T18:50:17.972016,6.608976,-10.705488,7.173682,-0.900415,-3.800802,0.073303
2026-03-04T18:50:17.982016,7.575676,-10.222138,10.748559,-0.591317,-3.594330,0.100181
2026-03-04T18:50:17.991016,8.944370,-9.528219,14.380863,-0.205250,-3.077538,0.041538
2026-03-04T18:50:18.001016,9.662217,-9.628718,16.596617,-0.091629,-2.074497,0.057421
2026-03-04T18:50:18.011016,8.647660,-11.093125,14.859428,-0.185702,-0.788015,0.101403
2026-03-04T18:50:18.020016,6.278766,-13.174881,10.815558,-0.058643,0.166155,0.168598
2026-03-04T18:50:18.030016,4.350151,-13.270594,7.456035,0.327423,0.596204,0.323758
2026-03-04T18:50:18.040016,3.522234,-10.997412,6.125625,0.915075,0.742811,0.350636
2026-03-04T18:50:18.049016,4.388436,-9.466006,8.767302,1.367116,0.830776,0.118507
2026-03-04T18:50:18.059016,5.618347,-8.126025,8.106882,1.456302,1.141096,-0.067195
2026-03-04T18:50:18.068016,5.848058,-6.360122,6.541976,1.356120,1.551597,-0.177150
2026-03-04T18:50:18.078016,5.570491,-5.666203,6.412764,1.055574,1.925446,-0.343306
2026-03-04T18:50:18.088016,5.508277,-5.934200,7.403393,0.648738,2.238209,-0.507018
2026-03-04T18:50:18.097016,5.594419,-6.192624,8.049455,0.300545,2.581515,-0.631634
2026-03-04T18:50:18.107016,5.613561,-6.192624,7.671389,0.029321,2.970026,-0.746477
2026-03-04T18:50:18.116016,5.441278,-6.364908,6.589833,-0.169820,3.340210,-0.841772
2026-03-04T18:50:18.126016,5.134997,-6.642475,5.024927,-0.405614,3.633425,-0.852767
2026-03-04T18:50:18.136016,4.752145,-7.054041,2.555534,-0.740368,3.858224,-0.751364
2026-03-04T18:50:18.145016,4.039084,-7.178467,-0.512064,-1.011592,3.970623,-0.645073
2026-03-04T18:50:18.155016,3.536591,-7.996813,-3.182454,-1.315803,3.936414,-0.626747
2026-03-04T18:50:18.165016,3.292523,-10.121639,-5.321637,-1.690874,3.899762,-0.627969
2026-03-04T18:50:18.174016,2.713460,-12.098111,-8.183453,-1.871690,3.904649,-0.608421
2026-03-04T18:50:18.184016,1.612762,-13.122239,-9.083154,-1.621236,3.728720,-0.648738
2026-03-04T18:50:18.193016,1.598405,-15.203994,-9.748359,-1.485623,3.434283,-0.638964
2026-03-04T18:50:18.203016,1.392622,-17.548960,-12.222537,-1.282816,3.199711,-0.498465
2026-03-04T18:50:18.213016,0.813559,-18.147165,-14.974283,-0.659734,2.784323,-0.364075
2026-03-04T18:50:18.222016,0.961914,-16.730616,-14.452648,0.092851,2.024406,-0.184481
2026-03-04T18:50:18.232016,2.134397,-14.715858,-12.260823,0.780685,1.225395,0.079412
2026-03-04T18:50:18.241016,3.029313,-12.122039,-11.279765,1.291368,0.647517,0.237015
2026-03-04T18:50:18.251016,4.268795,-9.714859,-11.294122,1.577253,0.100181,0.256563
2026-03-04T18:50:18.261016,5.206781,-9.365507,-12.179467,1.378111,-0.417831,0.405614
2026-03-04T18:50:18.270016,4.900500,-9.643075,-13.998012,0.731816,-0.824667,0.642630
2026-03-04T18:50:18.280016,3.431307,-10.226923,-14.854642,0.004886,-1.149648,0.762359
2026-03-04T18:50:18.290016,1.785045,-11.609975,-13.567304,-0.432492,-1.474628,0.726929
2026-03-04T18:50:18.299016,0.157926,-12.643674,-12.624532,-0.544891,-1.803273,0.670729
2026-03-04T18:50:18.309016,-0.693918,-12.385249,-11.576475,-0.395840,-2.245540,0.640186
2026-03-04T18:50:18.318016,-0.885344,-11.581261,-9.997212,-0.129503,-2.775771,0.619417
2026-03-04T18:50:18.328016,-0.224925,-10.504491,-7.944171,0.125838,-3.331658,0.609643
2026-03-04T18:50:18.338016,1.272981,-9.513862,-5.527420,0.331088,-3.815463,0.613308
2026-03-04T18:50:18.347016,2.775674,-8.461020,-2.967100,0.477696,-4.140443,0.635299
2026-03-04T18:50:18.357016,3.929014,-7.393821,-0.713061,0.524122,-4.261395,0.660956
2026-03-04T18:50:18.366016,4.953142,-6.546762,1.708475,0.487470,-4.245512,0.645073
2026-03-04T18:50:18.376016,5.608776,-6.154339,3.594019,0.410501,-4.018270,0.601091
2026-03-04T18:50:18.386016,5.972485,-6.120840,5.173282,0.227241,-3.661525,0.547335
2026-03-04T18:50:18.395016,6.087340,-6.814758,7.298108,0.030543,-3.292562,0.481361
2026-03-04T18:50:18.405016,6.532405,-8.106882,9.681360,-0.085521,-2.890613,0.422718
2026-03-04T18:50:18.415016,7.154539,-9.681360,11.681759,-0.070860,-2.379930,0.389731
2026-03-04T18:50:18.424016,7.747959,-10.786844,13.466805,0.149051,-1.690874,0.426383
2026-03-04T18:50:18.434016,7.345965,-10.949556,12.600603,0.312762,-0.747698,0.601091
2026-03-04T18:50:18.443016,5.402993,-10.442277,8.867800,0.459370,0.120951,0.789237
2026-03-04T18:50:18.453016,3.818944,-9.801001,8.863014,0.803898,0.561995,0.811228
2026-03-04T18:50:18.463016,3.680161,-9.824929,9.169296,1.067792,0.853989,0.737925
2026-03-04T18:50:18.472016,3.742374,-8.293523,6.096911,1.246164,1.165530,0.659734
2026-03-04T18:50:18.482016,3.847658,-6.163911,3.699303,1.398881,1.362229,0.524122
2026-03-04T18:50:18.491016,4.134797,-4.335794,3.345165,1.275486,1.474628,0.356745
2026-03-04T18:50:18.501016,4.469792,-3.943371,4.311866,0.862541,1.690874,0.113620
2026-03-04T18:50:18.511016,4.508077,-4.474578,5.120640,0.406836,2.014633,-0.091629
2026-03-04T18:50:18.520016,3.962514,-4.685146,5.044070,0.059864,2.362826,-0.244346
2026-03-04T18:50:18.530016,3.345165,-4.910071,4.273581,-0.239459,2.659706,-0.368962
2026-03-04T18:50:18.540016,2.737389,-5.489135,3.067598,-0.536339,2.888170,-0.441044
2026-03-04T18:50:18.549016,2.005185,-6.096911,1.268195,-0.808785,3.054325,-0.485026
2026-03-04T18:50:18.559016,1.383051,-6.886543,-0.885344,-1.040914,3.117855,-0.543669
2026-03-04T18:50:18.568016,0.866201,-8.346165,-3.402593,-1.343903,3.092199,-0.592539
2026-03-04T18:50:18.578016,0.430708,-10.638489,-5.991627,-1.621236,2.952921,-0.612086
2026-03-04T18:50:18.588016,0.124426,-13.146167,-7.714460,-1.736078,2.691471,-0.582765
2026-03-04T18:50:18.597016,0.229710,-15.156138,-10.183852,-1.709200,2.408030,-0.471587
2026-03-04T18:50:18.607016,-0.100498,-16.438690,-11.341979,-1.227838,2.030515,-0.456927
2026-03-04T18:50:18.616016,0.492921,-16.007982,-9.671788,-0.675616,1.457524,-0.382401
2026-03-04T18:50:18.626016,1.904686,-15.232708,-8.341379,-0.210137,0.996931,-0.250454
2026-03-04T18:50:18.636016,2.512463,-13.892728,-9.518648,0.409279,0.849102,-0.140498
2026-03-04T18:50:18.645016,1.957328,-11.466405,-10.088140,0.930958,0.586430,-0.219911
2026-03-04T18:50:18.655016,2.507678,-9.178867,-7.925028,1.440419,-0.018325,-0.323758
2026-03-04T18:50:18.665016,4.637290,-8.508877,-4.962714,1.420872,-0.613308,-0.219911
2026-03-04T18:50:18.674016,6.130411,-9.781858,-6.226124,0.847880,-0.708603,0.076969
2026-03-04T18:50:18.684016,4.436293,-10.624132,-9.992427,0.227241,-0.527787,0.309097
2026-03-04T18:50:18.693016,0.952343,-11.308479,-12.514462,-0.289550,-0.654847,0.346971
2026-03-04T18:50:18.703016,-1.689332,-11.638689,-11.485548,-0.569326,-1.148426,0.271224
2026-03-04T18:50:18.713016,-2.502892,-11.772687,-9.006584,-0.569326,-1.714087,0.183259
2026-03-04T18:50:18.722016,-2.225325,-11.193624,-7.417750,-0.399505,-2.164905,0.155159
2026-03-04T18:50:18.732016,-1.665404,-10.418349,-6.192624,-0.155159,-2.535090,0.111177
2026-03-04T18:50:18.741016,-0.780060,-9.719645,-4.627718,0.102625,-2.886948,0.113620
2026-03-04T18:50:18.751016,0.373280,-8.906085,-2.656033,0.288328,-3.169168,0.086742
2026-03-04T18:50:18.761016,1.478764,-8.044669,-0.985842,0.443488,-3.348762,0.056199
2026-03-04T18:50:18.770016,2.675175,-7.398607,0.770488,0.530230,-3.393966,-0.001221
2026-03-04T18:50:18.780016,3.742374,-7.135396,2.325823,0.511904,-3.296228,-0.065973
2026-03-04T18:50:18.790016,4.551148,-7.101897,3.689732,0.422718,-3.079981,-0.102625
2026-03-04T18:50:18.799016,5.111069,-7.341179,5.120640,0.287106,-2.784323,-0.122173
2026-03-04T18:50:18.809016,5.532205,-7.829315,6.393621,0.100181,-2.439795,-0.119729
2026-03-04T18:50:18.818016,5.785845,-8.374879,7.613961,-0.052534,-2.078163,-0.092851
2026-03-04T18:50:18.828016,6.034698,-8.638089,8.188238,-0.134390,-1.645670,-0.059864
2026-03-04T18:50:18.838016,5.757131,-8.762516,8.015955,-0.131946,-1.188743,-0.058643
2026-03-04T18:50:18.847016,5.335994,-9.049655,7.456035,-0.079412,-0.772133,-0.084299
2026-03-04T18:50:18.857016,5.201996,-9.509077,6.805187,0.030543,-0.395840,-0.109955
2026-03-04T18:50:18.866016,4.986642,-9.930213,5.206781,0.120951,-0.012217,-0.072082
2026-03-04T18:50:18.876016,4.680361,-9.647860,4.594219,0.381179,0.301767,-0.101403
2026-03-04T18:50:18.886016,5.005784,-9.997212,5.747559,0.593760,0.526565,-0.155159
2026-03-04T18:50:18.895016,5.154139,-9.437292,5.551348,0.779463,0.789237,-0.210137
2026-03-04T18:50:18.905016,4.838287,-7.829315,3.775874,0.789237,1.038470,-0.185702
2026-03-04T18:50:18.915016,4.168296,-5.776273,2.239681,0.591317,1.232725,-0.125838
2026-03-04T18:50:18.924016,3.713660,-4.943571,1.741974,0.129503,1.348790,-0.193033
2026-03-04T18:50:18.934016,3.909872,-5.575276,1.751546,-0.496022,1.424537,-0.273667
2026-03-04T18:50:18.943016,4.254438,-6.781259,2.038684,-1.117883,1.541823,-0.272445
2026-03-04T18:50:18.953016,4.292723,-8.097311,1.502692,-1.676213,1.771508,-0.183259
2026-03-04T18:50:18.963016,3.929014,-9.422935,0.497707,-2.070832,1.991420,-0.094073
2026-03-04T18:50:18.972016,3.369094,-10.418349,-0.985842,-2.272418,2.133140,-0.019547
2026-03-04T18:50:18.982016,3.062812,-11.447263,-2.019542,-2.361604,2.196670,0.061086
2026-03-04T18:50:18.991016,3.034099,-12.370892,-3.091526,-2.377487,2.239431,0.183259
2026-03-04T18:50:19.001016,2.852244,-12.691531,-5.216353,-2.263866,2.337169,0.342084
2026-03-04T18:50:19.011016,2.421536,-13.572089,-7.302894,-2.036624,2.392147,0.392175
2026-03-04T18:50:19.020016,1.469193,-14.199009,-9.882357,-1.739743,2.357939,0.432492
2026-03-04T18:50:19.030016,0.325423,-14.227723,-10.681560,-1.353677,2.134362,0.474031
2026-03-04T18:50:19.040016,-0.535992,-13.189238,-10.494919,-0.818559,1.780060,0.463035
2026-03-04T18:50:19.049016,-1.220339,-12.313465,-9.269794,-0.280997,1.346346,0.386066
2026-03-04T18:50:19.059016,-0.885344,-10.346564,-8.264809,0.277332,0.818559,0.355523
2026-03-04T18:50:19.068016,0.076570,-7.561319,-7.590033,0.698829,0.293215,0.388510
2026-03-04T18:50:19.078016,1.584048,-5.766702,-6.369693,0.596204,-0.168598,0.441044
2026-03-04T18:50:19.088016,2.684746,-6.144768,-6.675975,-0.068416,-0.485026,0.634077
2026-03-04T18:50:19.097016,3.646661,-7.441678,-7.479963,-0.806341,-0.647517,0.752585
2026-03-04T18:50:19.107016,3.129811,-10.437492,-9.451649,-1.457524,-0.579100,0.773355
2026-03-04T18:50:19.116016,1.488335,-11.892328,-11.054840,-1.722639,-0.505796,0.746477
2026-03-04T18:50:19.126016,-0.885344,-13.557732,-14.002797,-1.507615,-0.610865,0.588873
2026-03-04T18:50:19.136016,-2.651247,-12.954741,-13.935798,-1.042135,-1.108109,0.458148
2026-03-04T18:50:19.145016,-2.904886,-12.117253,-12.418749,-0.552222,-1.754404,0.416610
2026-03-04T18:50:19.155016,-2.344966,-10.758130,-10.332207,-0.105068,-2.307848,0.406836
2026-03-04T18:50:19.165016,-1.392622,-9.781858,-8.240881,0.217467,-2.720793,0.393397
2026-03-04T18:50:19.174016,-0.229710,-8.939585,-5.929414,0.378736,-3.043329,0.406836
2026-03-04T18:50:19.184016,0.918843,-8.437092,-3.440878,0.368962,-3.281567,0.471587
2026-03-04T18:50:19.193016,2.053041,-8.111668,-1.019342,0.280997,-3.378084,0.521678
2026-03-04T18:50:19.203016,2.885744,-7.580461,0.957129,0.213802,-3.271793,0.531452
2026-03-04T18:50:19.213016,3.340380,-7.456035,2.397608,0.081855,-3.016451,0.509461
2026-03-04T18:50:19.222016,3.570091,-7.925028,3.871586,-0.029321,-2.686584,0.452040
2026-03-04T18:50:19.232016,3.771088,-8.609375,5.388636,-0.051312,-2.306626,0.404392
2026-03-04T18:50:19.241016,3.847658,-9.552147,6.843472,-0.014660,-1.879021,0.364075
2026-03-04T18:50:19.251016,3.761517,-10.753344,8.212167,0.111177,-1.415985,0.339641
2026-03-04T18:50:19.261016,3.938585,-11.777472,9.193224,0.323758,-0.922406,0.376292
2026-03-04T18:50:19.270016,3.646661,-12.007183,8.690731,0.608421,-0.309097,0.420275
2026-03-04T18:50:19.280016,2.986242,-11.504691,7.527819,1.004262,0.234572,0.423940
2026-03-04T18:50:19.290016,2.474178,-10.183852,6.723831,1.387885,0.636521,0.405614
2026-03-04T18:50:19.299016,2.330609,-8.087740,6.455835,1.662774,0.955393,0.365297
2026-03-04T18:50:19.309016,2.258824,-6.336194,6.020341,1.705535,1.274264,0.282219
2026-03-04T18:50:19.318016,2.431107,-5.182853,5.642275,1.558927,1.587027,0.166155
2026-03-04T18:50:19.328016,2.612962,-4.905286,5.737988,1.329242,1.886351,0.019547
2026-03-04T18:50:19.338016,2.857030,-4.766502,5.895914,1.119104,2.199114,-0.135612
2026-03-04T18:50:19.347016,2.976671,-4.527220,5.355136,0.921184,2.552194,-0.295658
2026-03-04T18:50:19.357016,2.656033,-4.244867,3.866801,0.660956,2.890613,-0.428827
2026-03-04T18:50:19.366016,1.962114,-4.249652,1.670190,0.381179,3.112968,-0.535117
2026-03-04T18:50:19.376016,1.258624,-4.493720,-0.440279,0.059864,3.189937,-0.621860
2026-03-04T18:50:19.386016,0.985842,-5.364708,-2.498106,-0.329867,3.218037,-0.778242
2026-03-04T18:50:19.395016,0.679561,-7.781459,-5.962913,-0.747698,3.365866,-0.893084
2026-03-04T18:50:19.405016,-0.320638,-10.475777,-10.346564,-1.065348,3.359758,-0.946840
2026-03-04T18:50:19.415016,-1.210768,-14.127224,-15.012568,-1.329242,3.095864,-0.899193
2026-03-04T18:50:19.424016,-2.885744,-17.927027,-19.616360,-1.594357,2.572963,-0.609643
2026-03-04T18:50:19.434016,-3.823730,-19.726429,-21.300905,-1.321912,1.551597,-0.367740
2026-03-04T18:50:19.443016,-1.674975,-17.682959,-17.568104,-0.555887,0.190589,-0.171042
2026-03-04T18:50:19.453016,2.397608,-11.657831,-12.557533,0.659734,-0.781907,-0.020769
2026-03-04T18:50:19.463016,5.723631,-6.369693,-11.432906,1.406211,-1.317025,0.031764
2026-03-04T18:50:19.472016,9.116654,-7.886743,-11.729616,1.351233,-1.549153,-0.061086
2026-03-04T18:50:19.482016,8.255237,-11.294122,-15.218351,0.999375,-1.192408,-0.037873
2026-03-04T18:50:19.491016,3.397808,-12.160324,-17.036896,0.722042,-0.956614,-0.036651
2026-03-04T18:50:19.501016,-1.450050,-12.093325,-15.213566,0.541226,-1.265712,-0.158824
2026-03-04T18:50:19.511016,-3.943371,-11.322836,-11.581261,0.472809,-1.905899,-0.194255
2026-03-04T18:50:19.520016,-4.441078,-9.791430,-10.289137,0.372627,-2.570520,-0.113620
2026-03-04T18:50:19.530016,-3.847658,-8.164310,-9.494720,0.306654,-3.240028,-0.063529
2026-03-04T18:50:19.540016,-2.316252,-7.331608,-7.958527,0.175929,-3.918088,-0.073303
2026-03-04T18:50:19.549016,-0.028713,-7.666603,-5.029713,0.043982,-4.506962,-0.117286
2026-03-04T18:50:19.559016,2.565105,-7.996813,-1.316052,0.012217,-4.891807,-0.122173
2026-03-04T18:50:19.568016,4.670789,-7.781459,2.967100,0.080634,-5.013980,-0.075747
2026-03-04T18:50:19.578016,6.384050,-7.403393,6.173482,0.158824,-4.787960,-0.080634
2026-03-04T18:50:19.588016,7.733602,-6.508477,9.906285,0.417831,-4.218634,-0.199142
2026-03-04T18:50:19.597016,8.274380,-6.312266,12.638888,0.337197,-3.389079,-0.326201
2026-03-04T18:50:19.607016,8.087740,-7.436892,13.945370,0.229685,-2.410473,-0.406836
2026-03-04T18:50:19.616016,7.144968,-8.595018,13.442877,0.293215,-1.459967,-0.431270
2026-03-04T18:50:19.626016,6.489334,-10.030712,12.193823,0.447153,-0.652403,-0.357966
2026-03-04T18:50:19.636016,5.312066,-9.920642,10.092925,0.663399,-0.024434,-0.183259
2026-03-04T18:50:19.645016,5.168496,-10.518848,10.624132,0.791681,0.427605,-0.138055
2026-03-04T18:50:19.655016,5.331208,-11.069197,9.394221,0.885754,0.886976,-0.091629
2026-03-04T18:50:19.665016,5.163711,-9.384650,6.460621,1.150869,1.346346,-0.084299
2026-03-04T18:50:19.674016,4.910071,-7.489534,4.455435,1.237612,1.695761,-0.142942
2026-03-04T18:50:19.684016,4.895715,-6.235695,4.316651,1.087339,1.953546,-0.299323
2026-03-04T18:50:19.693016,5.297709,-5.943771,5.450849,0.800233,2.269974,-0.467922
2026-03-04T18:50:19.703016,5.130211,-5.632704,5.517848,0.508239,2.720793,-0.594982
2026-03-04T18:50:19.713016,4.536791,-5.465206,4.144368,0.261450,3.154507,-0.709825
2026-03-04T18:50:19.722016,3.694518,-5.225924,2.823530,0.074525,3.455053,-0.835663
2026-03-04T18:50:19.732016,3.115455,-4.996213,2.076970,-0.111177,3.606547,-0.973718
2026-03-04T18:50:19.741016,2.976671,-5.053641,1.579262,-0.411723,3.729942,-1.040914
2026-03-04T18:50:19.751016,2.756531,-5.288137,-0.129212,-0.817337,3.882658,-0.992044
2026-03-04T18:50:19.761016,2.316252,-6.455835,-3.838087,-1.365894,4.034153,-0.916297
2026-03-04T18:50:19.770016,1.631905,-9.217152,-9.198010,-1.969429,4.084244,-0.864984
2026-03-04T18:50:19.780016,0.301495,-12.772887,-13.586446,-2.393369,3.886323,-0.851545
2026-03-04T18:50:19.790016,-0.947557,-15.888342,-15.739987,-2.544864,3.334101,-0.755029
2026-03-04T18:50:19.799016,-1.689332,-17.448462,-17.266607,-2.394591,2.597398,-0.497244
2026-03-04T18:50:19.809016,-0.966700,-17.434105,-13.801800,-1.943772,1.690874,-0.267558
2026-03-04T18:50:19.818016,1.694118,-16.491333,-11.892328,-1.423315,0.702494,-0.063529
2026-03-04T18:50:19.828016,5.924628,-16.271193,-11.222337,-0.482583,0.014660,-0.007330
2026-03-04T18:50:19.838016,8.451449,-14.754144,-14.921641,0.601091,-0.376292,0.091629
2026-03-04T18:50:19.847016,8.901300,-13.150953,-17.692530,1.210734,-0.858876,0.009773
2026-03-04T18:50:19.857016,7.901100,-13.146167,-18.266808,1.491732,-1.340238,-0.020769
2026-03-04T18:50:19.866016,4.264009,-10.399207,-17.793028,1.285260,-1.600466,0.029321
2026-03-04T18:50:19.876016,0.076570,-9.068797,-16.400406,0.659734,-2.018298,-0.122173
2026-03-04T18:50:19.886016,-1.847259,-9.820143,-13.974083,0.095294,-2.755001,-0.345749
2026-03-04T18:50:19.895016,-1.493121,-10.576275,-11.251051,-0.219911,-3.522248,-0.508239
2026-03-04T18:50:19.905016,-0.186640,-10.753344,-8.762516,-0.291993,-4.112343,-0.590095
2026-03-04T18:50:19.915016,1.622333,-11.255837,-5.690132,-0.263893,-4.590040,-0.625525
2026-03-04T18:50:19.924016,3.804587,-12.375678,-2.268395,-0.183259,-4.949228,-0.525343
2026-03-04T18:50:19.934016,5.455635,-12.562318,1.890329,0.113620,-5.120271,-0.322536
2026-03-04T18:50:19.943016,6.857829,-11.428120,5.761916,0.620638,-4.974885,-0.150272
2026-03-04T18:50:19.953016,7.795816,-9.298508,8.571090,1.155756,-4.416554,-0.073303
2026-03-04T18:50:19.963016,8.044669,-7.336394,10.686345,1.429424,-3.574782,-0.084299
2026-03-04T18:50:19.972016,7.867600,-7.613961,13.404592,1.403768,-2.693915,-0.138055
2026-03-04T18:50:19.982016,7.709674,-8.298308,15.567703,1.403768,-1.857029,-0.087964
2026-03-04T18:50:19.991016,7.829315,-7.795816,16.371693,1.627344,-0.965166,-0.008552
2026-03-04T18:50:20.001016,6.881757,-7.312465,13.820943,1.715309,0.078190,0.196698
2026-03-04T18:50:20.011016,5.077569,-6.594619,11.399406,1.716530,0.822224,0.329867
2026-03-04T18:50:20.020016,4.517649,-8.202595,10.829915,1.418428,1.224173,0.393397
2026-03-04T18:50:20.030016,4.460221,-8.216952,8.140382,1.409876,1.595579,0.469144
2026-03-04T18:50:20.040016,4.043870,-6.431907,5.173282,1.555262,1.957211,0.431270
2026-03-04T18:50:20.049016,3.895515,-5.402993,3.426521,1.400102,2.169792,0.272445
2026-03-04T18:50:20.059016,4.211367,-4.852644,3.790230,1.112996,2.340835,0.070860
2026-03-04T18:50:20.068016,4.297509,-4.742574,5.187639,0.845437,2.681697,-0.129503
2026-03-04T18:50:20.078016,3.838087,-4.981856,4.895715,0.588873,3.125185,-0.289550
2026-03-04T18:50:20.088016,2.861815,-4.924428,3.172882,0.367740,3.511252,-0.399505
2026-03-04T18:50:20.097016,1.823330,-4.479363,1.282552,0.135612,3.745824,-0.485026
2026-03-04T18:50:20.107016,0.933200,-3.981656,-0.277567,-0.171042,3.865554,-0.572991
2026-03-04T18:50:20.116016,0.258424,-3.986442,-1.339980,-0.555887,3.819128,-0.690277
2026-03-04T18:50:20.126016,0.416351,-5.312066,-2.799602,-1.071457,3.798359,-0.745255
2026-03-04T18:50:20.136016,0.449850,-7.853243,-6.398407,-1.749517,3.843563,-0.692721
2026-03-04T18:50:20.145016,-0.200997,-11.662617,-11.227123,-2.432464,3.784920,-0.571769
2026-03-04T18:50:20.155016,-0.870987,-16.180265,-16.103697,-2.961474,3.265684,-0.345749
2026-03-04T18:50:20.165016,-1.004985,-18.515661,-20.606989,-3.200933,2.349387,0.120951
2026-03-04T18:50:20.174016,-0.550349,-18.884155,-18.463018,-2.574185,0.983492,0.415388
2026-03-04T18:50:20.184016,3.771088,-16.366905,-12.150753,-1.866803,-0.403170,0.656069
2026-03-04T18:50:20.193016,8.944370,-13.730016,-10.805986,-0.742811,-1.092226,0.526565
2026-03-04T18:50:20.203016,11.911470,-11.016555,-14.084153,0.469144,-1.073900,0.416610
2026-03-04T18:50:20.213016,10.480562,-10.332207,-15.361921,1.164308,-1.001818,0.193033
2026-03-04T18:50:20.222016,7.116254,-11.011769,-17.295321,1.429424,-0.775798,0.041538
2026-03-04T18:50:20.232016,0.899701,-9.552147,-18.530018,1.156978,-0.808785,0.059864
2026-03-04T18:50:20.241016,-3.622733,-9.805787,-17.960526,0.654847,-1.470963,-0.014660
2026-03-04T18:50:20.251016,-5.426921,-10.116853,-15.409777,0.261450,-2.506990,-0.026878
2026-03-04T18:50:20.261016,-4.201796,-9.107082,-12.303893,-0.042760,-3.538130,0.053756
2026-03-04T18:50:20.270016,-1.966900,-8.183453,-9.236295,-0.246789,-4.280942,0.079412
2026-03-04T18:50:20.280016,0.732203,-8.346165,-6.049055,-0.343306,-4.786739,0.024434
2026-03-04T18:50:20.290016,3.067598,-8.666803,-2.574677,-0.313984,-5.055519,-0.002443
2026-03-04T18:50:20.299016,4.823930,-8.456235,0.186640,-0.175929,-5.067736,-0.017104
2026-03-04T18:50:20.309016,5.895914,-8.322237,3.359522,-0.040317,-4.945563,0.021991
2026-03-04T18:50:20.318016,6.829115,-8.135596,6.120840,0.128281,-4.662122,-0.010995
2026-03-04T18:50:20.328016,7.298108,-7.245466,9.044869,0.432492,-4.213747,-0.102625
2026-03-04T18:50:20.338016,7.302894,-6.407978,11.456834,0.685390,-3.611434,-0.217467
2026-03-04T18:50:20.347016,7.513462,-6.135197,13.562518,0.896749,-2.928487,-0.383623
2026-03-04T18:50:20.357016,7.365107,-6.297909,14.821143,0.913854,-2.175901,-0.499687
2026-03-04T18:50:20.366016,7.207181,-8.006384,13.351950,0.652403,-1.357342,-0.405614
2026-03-04T18:50:20.376016,6.082555,-8.542376,12.007183,0.642630,-0.645073,-0.265115
2026-03-04T18:50:20.386016,5.828915,-10.332207,13.557732,0.641408,-0.174707,-0.294436
2026-03-04T18:50:20.395016,6.139982,-11.705688,12.241680,0.742811,0.353080,-0.252898
2026-03-04T18:50:20.405016,5.714060,-10.231709,8.695517,1.080009,0.935845,-0.252898
2026-03-04T18:50:20.415016,5.163711,-8.633303,6.044269,1.318246,1.325577,-0.326201
2026-03-04T18:50:20.424016,5.173282,-7.848458,5.527420,1.273042,1.549153,-0.438601
2026-03-04T18:50:20.434016,5.814558,-8.178667,6.728617,1.102000,1.854586,-0.559552
2026-03-04T18:50:20.443016,5.752345,-8.365307,7.006184,0.974940,2.364047,-0.649960
2026-03-04T18:50:20.453016,4.953142,-8.020741,6.120840,0.851545,2.850296,-0.700051
2026-03-04T18:50:20.463016,4.173082,-7.666603,4.962714,0.742811,3.200933,-0.739146
2026-03-04T18:50:20.472016,3.349951,-7.049255,4.010370,0.524122,3.426953,-0.768468
2026-03-04T18:50:20.482016,2.737389,-6.967899,3.168097,0.119729,3.547904,-0.762359
2026-03-04T18:50:20.491016,2.646461,-8.020741,1.794616,-0.412944,3.623651,-0.689055
2026-03-04T18:50:20.501016,2.885744,-10.260423,-0.813559,-1.039692,3.759263,-0.491135
2026-03-04T18:50:20.511016,2.526820,-13.519447,-6.130411,-1.703091,3.913201,-0.222354
2026-03-04T18:50:20.520016,1.569691,-17.099110,-11.662617,-2.029293,3.883880,0.014660
2026-03-04T18:50:20.530016,0.650847,-20.439489,-16.582260,-1.918116,3.552791,0.210137
2026-03-04T18:50:20.540016,-0.057427,-21.607187,-18.841085,-1.358564,2.846631,0.441044
2026-03-04T18:50:20.549016,0.923629,-18.410378,-13.323236,-0.240680,1.794721,0.805120
2026-03-04T18:50:20.559016,4.259224,-16.682758,-7.992027,0.535117,0.886976,1.072679
2026-03-04T18:50:20.568016,7.154539,-14.495719,-9.930213,1.329242,0.543669,1.236390
2026-03-04T18:50:20.578016,7.872386,-11.748758,-12.562318,1.699426,0.288328,1.242499
2026-03-04T18:50:20.588016,7.106683,-11.188838,-14.845071,1.590692,-0.035430,1.285260
2026-03-04T18:50:20.597016,3.761517,-8.953942,-16.328621,1.169195,-0.357966,1.481958
2026-03-04T18:50:20.607016,-0.449850,-7.408178,-16.965113,0.480139,-0.657290,1.464854
2026-03-04T18:50:20.616016,-3.972085,-7.255038,-16.228123,-0.135612,-1.191186,1.276708
2026-03-04T18:50:20.626016,-4.991427,-9.087940,-13.634303,-0.577878,-1.943772,1.022588
2026-03-04T18:50:20.636016,-4.780859,-9.753144,-12.423534,-0.739146,-2.689028,0.988379
2026-03-04T18:50:20.645016,-3.474378,-8.322237,-10.102497,-0.648738,-3.368310,0.940732
2026-03-04T18:50:20.655016,-1.445264,-6.891329,-7.379464,-0.400727,-3.930306,0.773355
2026-03-04T18:50:20.665016,0.492921,-5.560919,-4.967499,-0.136833,-4.304155,0.577878
2026-03-04T18:50:20.674016,2.033899,-4.670789,-2.828316,0.006108,-4.503297,0.368962
2026-03-04T18:50:20.684016,3.249453,-4.929214,-0.751346,-0.010995,-4.587596,0.169820
2026-03-04T18:50:20.693016,4.192225,-5.345565,1.837687,-0.034208,-4.654792,0.056199
2026-03-04T18:50:20.703016,5.412564,-5.096712,5.091926,0.013439,-4.643796,-0.030543
2026-03-04T18:50:20.713016,6.666403,-4.747360,8.307880,0.035430,-4.415333,-0.134390
2026-03-04T18:50:20.722016,7.417750,-3.909872,9.753144,0.020769,-3.826459,-0.280997
2026-03-04T18:50:20.732016,7.235895,-3.957728,10.868200,-0.086742,-3.098307,-0.481361
2026-03-04T18:50:20.741016,6.953542,-5.383850,11.882757,-0.255341,-2.438573,-0.673173
2026-03-04T18:50:20.751016,6.958328,-7.800601,12.165110,-0.333532,-1.841147,-0.745255
2026-03-04T18:50:20.761016,6.867400,-9.131011,12.839886,-0.098960,-1.262047,-0.758694
2026-03-04T18:50:20.770016,7.044469,-10.327422,14.682359,0.293215,-0.649960,-0.823446
2026-03-04T18:50:20.780016,7.039684,-11.801401,14.175081,0.452040,0.084299,-0.801455
2026-03-04T18:50:20.790016,5.781059,-11.629117,10.289137,0.697607,0.792902,-0.728151
2026-03-04T18:50:20.799016,4.436293,-9.982855,6.680760,1.092226,1.194852,-0.774576
2026-03-04T18:50:20.809016,4.144368,-8.298308,5.513063,1.345124,1.324355,-0.882089
2026-03-04T18:50:20.818016,4.761716,-7.073183,6.283552,1.308473,1.488067,-1.026253
2026-03-04T18:50:20.828016,5.603990,-6.958328,7.106683,1.045801,1.838703,-1.155756
2026-03-04T18:50:20.838016,5.632704,-6.900900,6.723831,0.766024,2.309070,-1.224173
2026-03-04T18:50:20.847016,5.197210,-6.589833,6.025127,0.488692,2.744006,-1.280373
2026-03-04T18:50:20.857016,4.565505,-6.096911,5.154139,0.141720,3.089755,-1.264490
2026-03-04T18:50:20.866016,4.010370,-5.771488,3.665804,-0.355523,3.349984,-1.196073
2026-03-04T18:50:20.876016,3.464807,-5.800201,1.502692,-0.915075,3.522248,-1.094670
2026-03-04T18:50:20.886016,3.230310,-6.178267,-0.468993,-1.560149,3.576004,-0.933401
2026-03-04T18:50:20.895016,2.986242,-7.255038,-3.163311,-2.290744,3.617543,-0.753807
2026-03-04T18:50:20.905016,2.407179,-9.446863,-6.465406,-2.959030,3.677407,-0.630412
2026-03-04T18:50:20.915016,1.426122,-13.663017,-10.380064,-3.507587,3.643199,-0.555887
2026-03-04T18:50:20.924016,0.914058,-17.860027,-14.835500,-3.738494,3.286454,-0.333532
2026-03-04T18:50:20.934016,0.234496,-20.740986,-20.563917,-3.414735,2.658484,0.047647
2026-03-04T18:50:20.943016,-0.076570,-20.678772,-19.496717,-2.422691,1.434311,0.339641
2026-03-04T18:50:20.953016,4.220939,-19.085154,-14.538790,-1.216843,0.032986,0.500909
2026-03-04T18:50:20.963016,8.752945,-16.606188,-13.624731,0.237015,-0.695164,0.491135
2026-03-04T18:50:20.972016,10.671988,-13.883156,-16.390835,1.447750,-0.788015,0.453261
2026-03-04T18:50:20.982016,8.140382,-11.246266,-17.984453,1.826486,-0.701273,0.389731
2026-03-04T18:50:20.991016,3.110669,-9.288937,-17.946169,1.712865,-0.802676,0.398284
2026-03-04T18:50:21.001016,-1.722832,-7.843672,-16.989040,1.145982,-1.214399,0.386066
2026-03-04T18:50:21.011016,-4.843072,-7.599604,-15.802200,0.531452,-1.933998,0.291993
2026-03-04T18:50:21.020016,-5.326423,-7.499106,-13.347164,0.024434,-2.875952,0.233350
2026-03-04T18:50:21.030016,-3.565305,-6.848258,-9.676574,-0.322536,-3.736051,0.224798
2026-03-04T18:50:21.040016,-1.105484,-6.843472,-6.407978,-0.581543,-4.317594,0.194255
2026-03-04T18:50:21.049016,1.287338,-7.944171,-3.531806,-0.768468,-4.702439,0.151494
2026-03-04T18:50:21.059016,3.550948,-9.131011,-0.019142,-0.800233,-4.862486,0.158824
2026-03-04T18:50:21.068016,5.139782,-9.920642,3.646661,-0.692721,-4.779408,0.216246
2026-03-04T18:50:21.078016,6.034698,-9.863214,6.977470,-0.357966,-4.471532,0.230907
2026-03-04T18:50:21.088016,6.446264,-8.054240,9.619146,0.180816,-3.918088,0.188146
2026-03-04T18:50:21.097016,6.135197,-6.355336,10.322636,0.442266,-3.143511,0.063529
2026-03-04T18:50:21.107016,5.536991,-6.044269,10.303494,0.641408,-2.469116,-0.117286
2026-03-04T18:50:21.116016,5.551348,-6.498906,11.533404,0.698829,-1.988976,-0.163711
2026-03-04T18:50:21.126016,6.149554,-6.824330,13.007383,0.762359,-1.506393,-0.155159
2026-03-04T18:50:21.136016,7.106683,-7.441678,15.778272,0.810007,-0.944397,-0.133168
2026-03-04T18:50:21.145016,7.939385,-8.886943,16.266409,0.649960,-0.140498,-0.025656
2026-03-04T18:50:21.155016,7.322037,-8.968299,12.193823,0.551000,0.818559,0.074525
2026-03-04T18:50:21.165016,5.714060,-8.264809,6.972685,0.579100,1.453858,0.106290
2026-03-04T18:50:21.174016,4.704289,-7.561319,4.364508,0.607199,1.698205,0.052534
2026-03-04T18:50:21.184016,4.934000,-7.628318,4.484149,0.469144,1.754404,-0.080634
2026-03-04T18:50:21.193016,6.049055,-7.537391,5.871986,0.342084,1.992641,-0.208915
2026-03-04T18:50:21.203016,6.441478,-7.412964,6.173482,0.202807,2.475225,-0.316428
2026-03-04T18:50:21.213016,5.800201,-7.278966,5.010570,0.057421,2.977356,-0.415388
2026-03-04T18:50:21.222016,4.857429,-7.068397,3.684946,-0.075747,3.327993,-0.502131
2026-03-04T18:50:21.232016,3.962514,-6.498906,2.718246,-0.241902,3.539352,-0.572991
2026-03-04T18:50:21.241016,3.225524,-6.063412,1.804188,-0.455705,3.662747,-0.618195
2026-03-04T18:50:21.251016,2.952743,-5.694917,1.292124,-0.718377,3.731164,-0.669508
2026-03-04T18:50:21.261016,3.038884,-6.498906,-0.277567,-1.194852,3.842341,-0.631634
2026-03-04T18:50:21.270016,2.579462,-8.360522,-4.101297,-1.729969,4.018270,-0.503352
2026-03-04T18:50:21.280016,1.679761,-11.437692,-8.685946,-2.083050,4.062252,-0.471587
2026-03-04T18:50:21.290016,0.703489,-14.931213,-13.294522,-2.393369,3.742159,-0.351858
2026-03-04T18:50:21.299016,0.507278,-17.472389,-19.515862,-2.317622,3.057990,-0.017104
2026-03-04T18:50:21.309016,-0.071784,-18.888941,-21.109480,-1.799608,2.087936,0.322536
2026-03-04T18:50:21.318016,1.952543,-18.855442,-17.721245,-0.998153,0.704938,0.323758
2026-03-04T18:50:21.328016,6.666403,-18.003597,-15.783057,-0.316428,-0.272445,0.420275
2026-03-04T18:50:21.338016,9.399007,-15.783057,-15.510276,0.626747,-0.632856,0.525343
2026-03-04T18:50:21.347016,9.284151,-12.634103,-15.026925,1.489289,-0.734259,0.563217
2026-03-04T18:50:21.357016,6.039484,-10.399207,-15.625131,1.808160,-0.687834,0.531452
2026-03-04T18:50:21.366016,1.550549,-8.819944,-16.744972,1.572366,-0.799011,0.551000
2026-03-04T18:50:21.376016,-2.756531,-8.035098,-17.170895,0.924849,-1.284038,0.613308
2026-03-04T18:50:21.386016,-5.015356,-7.915457,-15.735201,0.298102,-2.136806,0.647517
2026-03-04T18:50:21.395016,-4.771288,-7.465606,-12.629317,-0.185702,-3.123964,0.687834
2026-03-04T18:50:21.405016,-2.421536,-6.766902,-9.288937,-0.472809,-3.858224,0.708603
2026-03-04T18:50:21.415016,-0.119641,-6.125625,-6.977470,-0.609643,-4.254064,0.687834
2026-03-04T18:50:21.424016,1.813759,-5.728417,-5.192425,-0.697607,-4.477641,0.598647
2026-03-04T18:50:21.434016,3.306880,-5.943771,-2.943171,-0.750142,-4.588818,0.503352
2026-03-04T18:50:21.443016,4.292723,-6.675975,-0.540777,-0.783129,-4.588818,0.408057
2026-03-04T18:50:21.453016,5.115854,-7.336394,2.230110,-0.707381,-4.526510,0.312762
2026-03-04T18:50:21.463016,5.843272,-7.422535,5.675775,-0.511904,-4.405559,0.246789
2026-03-04T18:50:21.472016,6.929614,-6.699903,9.159724,-0.175929,-4.138000,0.142942
2026-03-04T18:50:21.482016,7.805387,-5.245067,11.992826,0.218689,-3.554013,-0.032986
2026-03-04T18:50:21.491016,7.987241,-4.264009,12.744173,0.262671,-2.574185,-0.243124
2026-03-04T18:50:21.501016,6.762116,-5.312066,10.432706,0.040317,-1.566258,-0.389731
2026-03-04T18:50:21.511016,5.685346,-6.695117,9.595218,0.086742,-1.017701,-0.426383
2026-03-04T18:50:21.520016,6.317051,-8.015955,11.992826,0.185702,-0.802676,-0.472809
2026-03-04T18:50:21.530016,8.197810,-9.513862,13.639088,0.268780,-0.383623,-0.507018
2026-03-04T18:50:21.540016,8.872586,-9.116654,11.475977,0.419053,0.438601,-0.452040
2026-03-04T18:50:21.549016,8.135596,-8.035098,7.178467,0.472809,1.247386,-0.449596
2026-03-04T18:50:21.559016,6.833901,-7.637889,4.407579,0.323758,1.709200,-0.526565
2026-03-04T18:50:21.568016,6.809973,-8.346165,5.192425,0.076969,1.886351,-0.657290
2026-03-04T18:50:21.578016,7.470392,-8.724231,7.010970,-0.065973,2.235766,-0.759916
2026-03-04T18:50:21.588016,7.398607,-8.666803,6.963113,-0.166155,2.785544,-0.835663
2026-03-04T18:50:21.597016,6.695117,-8.489734,5.393422,-0.255341,3.291341,-0.910189
2026-03-04T18:50:21.607016,5.819344,-8.039883,4.120440,-0.370184,3.630982,-0.940732
2026-03-04T18:50:21.616016,5.441278,-7.657032,3.125026,-0.572991,3.864332,-0.921184
2026-03-04T18:50:21.626016,5.115854,-7.135396,1.593619,-0.844215,4.061031,-0.853989
2026-03-04T18:50:21.636016,5.063212,-7.164110,-0.464207,-1.291368,4.249177,-0.713490
2026-03-04T18:50:21.645016,4.565505,-7.317251,-3.206382,-1.821599,4.439767,-0.530230
2026-03-04T18:50:21.655016,3.919443,-8.628518,-6.072983,-2.383595,4.582710,-0.411723
2026-03-04T18:50:21.665016,3.158525,-10.514062,-8.781658,-2.890613,4.548501,-0.332310
2026-03-04T18:50:21.674016,2.828316,-12.935598,-12.768101,-3.529578,4.340807,0.026878
2026-03-04T18:50:21.684016,3.297309,-14.203794,-17.649460,-4.326146,4.058587,0.807563
2026-03-04T18:50:21.693016,1.904686,-17.295321,-26.416761,-4.924794,3.533243,1.337794
2026-03-04T18:50:21.703016,0.741775,-18.783657,-24.713072,-4.561940,2.258979,1.496619
2026-03-04T18:50:21.713016,2.072184,-19.156937,-19.424932,-3.327993,0.773355,1.740965
2026-03-04T18:50:21.722016,5.326423,-17.199608,-17.438890,-1.728748,-0.141720,1.685987
2026-03-04T18:50:21.732016,7.834101,-14.356935,-19.113867,-0.270002,-0.456927,1.414763
2026-03-04T18:50:21.741016,6.044269,-12.141181,-19.539789,0.537561,-0.645073,1.230282
2026-03-04T18:50:21.751016,2.560320,-11.423335,-17.950954,0.856432,-0.923628,1.066570
2026-03-04T18:50:21.761016,-0.641276,-11.854043,-17.142181,0.729372,-1.271821,1.045801
2026-03-04T18:50:21.770016,-2.632104,-14.084153,-16.070196,0.428827,-1.835038,1.123991
2026-03-04T18:50:21.780016,-2.694318,-15.577275,-13.079168,0.331088,-2.511877,1.314581
2026-03-04T18:50:21.790016,-1.780260,-15.285350,-10.068997,0.455705,-2.978578,1.573588
2026-03-04T18:50:21.799016,-1.196411,-13.318450,-7.858029,0.758694,-3.231476,1.820378
2026-03-04T18:50:21.809016,-0.655633,-10.801201,-5.503491,1.073900,-3.398853,2.013411
2026-03-04T18:50:21.818016,-0.057427,-9.121439,-3.244667,1.265712,-3.474600,2.131919
2026-03-04T18:50:21.828016,0.612562,-8.164310,-1.406979,1.313359,-3.442835,2.205223
2026-03-04T18:50:21.838016,1.234696,-7.661817,0.000000,1.271821,-3.312110,2.263866
2026-03-04T18:50:21.847016,1.636690,-7.389036,1.000199,1.232725,-3.112968,2.313957
2026-03-04T18:50:21.857016,2.076970,-6.781259,1.842473,1.230282,-2.869844,2.344500
2026-03-04T18:50:21.866016,2.359323,-5.656632,2.273181,1.274264,-2.561968,2.355495
2026-03-04T18:50:21.876016,2.435893,-3.996013,2.321037,1.367116,-2.219883,2.310291
2026-03-04T18:50:21.886016,2.641676,-2.612962,2.048256,1.336572,-1.879021,2.211331
2026-03-04T18:50:21.895016,2.641676,-1.134197,1.703689,1.271821,-1.562592,2.074497
2026-03-04T18:50:21.905016,2.746960,0.157926,1.569691,1.170417,-1.299920,1.868025
2026-03-04T18:50:21.915016,2.828316,1.536192,1.493121,1.022588,-1.059240,1.606575
2026-03-04T18:50:21.924016,2.823530,2.928814,0.875773,0.774576,-0.824667,1.291368
2026-03-04T18:50:21.934016,2.742174,3.929014,0.177068,0.376292,-0.676838,0.933401
2026-03-04T18:50:21.943016,2.947957,4.302295,0.516849,-0.076969,-0.632856,0.504574
2026-03-04T18:50:21.953016,3.737588,4.354937,1.641476,-0.547335,-0.575434,0.028099
2026-03-04T18:50:21.963016,4.335794,3.747160,1.938186,-1.037248,-0.386066,-0.513126
2026-03-04T18:50:21.972016,4.972285,2.526820,1.737189,-1.435533,-0.191811,-1.089783
2026-03-04T18:50:21.982016,5.541777,0.976271,1.311266,-1.737300,-0.034208,-1.611462
2026-03-04T18:50:21.991016,6.321837,-0.765703,1.928615,-1.920559,0.091629,-2.124588
2026-03-04T18:50:22.001016,7.168896,-2.670390,2.636890,-1.996307,0.299323,-2.596176
2026-03-04T18:50:22.011016,7.781459,-4.517649,3.412165,-2.012189,0.599869,-2.987130
2026-03-04T18:50:22.020016,8.092526,-6.594619,4.106083,-2.028072,0.977384,-3.275458
2026-03-04T18:50:22.030016,7.853243,-8.489734,4.120440,-1.986533,1.456302,-3.447722
2026-03-04T18:50:22.040016,7.173682,-10.370493,3.455235,-1.953546,1.937664,-3.543017
2026-03-04T18:50:22.049016,6.384050,-12.150753,2.842673,-1.903455,2.315178,-3.540574
2026-03-04T18:50:22.059016,5.900700,-13.050454,2.316252,-1.835038,2.614502,-3.407405
2026-03-04T18:50:22.068016,5.350351,-13.165309,1.095912,-1.797165,2.929709,-3.202154
2026-03-04T18:50:22.078016,4.838287,-13.036097,-0.205782,-1.957211,3.188715,-2.902831
2026-03-04T18:50:22.088016,4.685146,-12.184252,-2.431107,-2.367713,3.474600,-2.394591
2026-03-04T18:50:22.097016,4.728217,-13.074382,-5.575276,-3.365866,3.798359,-1.744630
2026-03-04T18:50:22.107016,4.876572,-15.649059,-8.413164,-5.134931,4.250399,-1.045801
2026-03-04T18:50:22.116016,2.641676,-20.109282,-12.916456,-6.354218,4.618140,-0.301767
2026-03-04T18:50:22.126016,0.899701,-19.257437,-15.476776,-5.976704,4.387233,0.526565
2026-03-04T18:50:22.136016,-1.421336,-15.907484,-20.200209,-5.211901,4.015827,1.149648
2026-03-04T18:50:22.145016,-1.540977,-12.667602,-18.979868,-3.833789,3.122742,1.275486
2026-03-04T18:50:22.155016,0.746560,-10.801201,-19.501505,-2.967582,2.073276,1.440419
2026-03-04T18:50:22.165016,4.637290,-11.040483,-19.831713,-2.107484,1.130100,1.308473
2026-03-04T18:50:22.174016,6.977470,-12.964312,-18.955940,-0.970053,0.564439,1.132543
2026-03-04T18:50:22.184016,8.149953,-15.127424,-17.496319,0.029321,0.393397,0.992044
2026-03-04T18:50:22.193016,6.384050,-13.203595,-17.850456,0.579100,0.507018,1.177747
2026-03-04T18:50:22.203016,2.885744,-11.255837,-20.032709,0.812450,0.331088,1.306029
2026-03-04T18:50:22.213016,0.100498,-8.748159,-18.467804,0.647517,-0.179594,1.442863
2026-03-04T18:50:22.222016,-1.708475,-7.063612,-18.520447,0.340862,-0.703716,1.513723
2026-03-04T18:50:22.232016,-2.732603,-4.938785,-18.257236,0.255341,-1.241277,1.505171
2026-03-04T18:50:22.241016,-3.163311,-4.144368,-18.061024,0.193033,-1.769065,1.403768
2026-03-04T18:50:22.251016,-3.168097,-3.876372,-16.606188,0.299323,-2.324952,1.264490
2026-03-04T18:50:22.261016,-2.210968,-3.732803,-13.998012,0.497244,-2.817309,1.126435
2026-03-04T18:50:22.270016,-0.899701,-3.661018,-11.279765,0.744033,-3.154507,0.992044
2026-03-04T18:50:22.280016,0.277567,-3.723231,-9.059226,0.952949,-3.352427,0.849102
2026-03-04T18:50:22.290016,1.354337,-3.962514,-6.876972,1.141096,-3.455053,0.687834
2026-03-04T18:50:22.299016,2.167897,-3.828516,-4.747360,1.303586,-3.450166,0.568104
2026-03-04T18:50:22.309016,2.565105,-3.235096,-2.866601,1.396437,-3.363423,0.456927
2026-03-04T18:50:22.318016,2.766102,-2.617747,-1.363908,1.372003,-3.231476,0.345749
2026-03-04T18:50:22.328016,2.866601,-2.258824,0.057427,1.269377,-3.090977,0.219911
2026-03-04T18:50:22.338016,3.153740,-1.765903,1.751546,1.119104,-2.952921,0.079412
2026-03-04T18:50:22.347016,3.292523,-1.655833,3.483949,0.906523,-2.767218,-0.090408
2026-03-04T18:50:22.357016,3.522234,-1.588834,5.063212,0.709825,-2.504546,-0.310319
2026-03-04T18:50:22.366016,3.589233,-1.311266,6.096911,0.597426,-2.142914,-0.576656
2026-03-04T18:50:22.376016,3.383451,-1.540977,6.283552,0.583987,-1.704313,-0.884532
2026-03-04T18:50:22.386016,3.239881,-2.081755,5.809773,0.505796,-1.198517,-1.171639
2026-03-04T18:50:22.395016,3.134597,-3.053241,4.211367,0.342084,-0.697607,-1.414763
2026-03-04T18:50:22.405016,3.081955,-5.201996,4.043870,0.180816,-0.335975,-1.582140
2026-03-04T18:50:22.415016,3.469592,-8.556733,3.321237,-0.032986,-0.001221,-1.556484
2026-03-04T18:50:22.424016,3.670589,-10.260423,3.646661,0.058643,0.251676,-1.508836
2026-03-04T18:50:22.434016,4.393222,-11.313265,4.776073,0.212581,0.487470,-1.437976
2026-03-04T18:50:22.443016,4.957928,-10.916056,4.895715,0.445931,0.905302,-1.398881
2026-03-04T18:50:22.453016,5.125426,-10.327422,4.302295,0.580321,1.453858,-1.418428
2026-03-04T18:50:22.463016,4.699503,-9.777073,3.756731,0.619417,2.023185,-1.442863
2026-03-04T18:50:22.472016,4.010370,-9.193224,3.488735,0.608421,2.500881,-1.436754
2026-03-04T18:50:22.482016,3.632304,-8.599804,2.297109,0.481361,2.902831,-1.363450
2026-03-04T18:50:22.491016,3.125026,-7.901100,0.138783,0.266337,3.193602,-1.237612
2026-03-04T18:50:22.501016,2.780459,-7.178467,-1.703689,-0.079412,3.324327,-1.080009
2026-03-04T18:50:22.511016,2.852244,-6.714260,-2.991028,-0.565661,3.407405,-0.888197
2026-03-04T18:50:22.520016,2.723032,-6.278766,-4.488935,-1.148426,3.547904,-0.680503
2026-03-04T18:50:22.530016,3.292523,-5.962913,-5.694917,-1.869247,3.770259,-0.604756
2026-03-04T18:50:22.540016,3.302095,-7.101897,-10.313065,-2.796540,4.161213,-0.368962
2026-03-04T18:50:22.549016,2.818745,-7.905885,-16.639688,-4.076913,4.406780,0.018325
2026-03-04T18:50:22.559016,0.354137,-11.385049,-22.492533,-4.950450,3.991392,0.361632
2026-03-04T18:50:22.568016,-1.359123,-15.510276,-23.124237,-4.855155,2.800205,0.750142
2026-03-04T18:50:22.578016,0.181854,-16.587046,-22.621744,-3.681073,1.601688,1.202182
2026-03-04T18:50:22.588016,2.316252,-12.332607,-22.727030,-1.912007,0.678060,1.402546
2026-03-04T18:50:22.597016,4.532006,-7.527819,-22.152752,-0.239459,-0.267558,1.213178
2026-03-04T18:50:22.607016,8.020741,-4.364508,-19.405790,0.866206,-1.257160,0.900415
2026-03-04T18:50:22.616016,11.341979,-2.962314,-16.146767,1.359785,-1.853364,0.646295
2026-03-04T18:50:22.626016,12.007183,-3.014956,-13.849657,1.323133,-1.772730,0.415388
2026-03-04T18:50:22.636016,9.116654,-4.283152,-14.222937,0.939510,-1.274264,0.233350
2026-03-04T18:50:22.645016,4.369294,-4.402793,-15.366706,0.394618,-1.016479,0.127059
2026-03-04T18:50:22.655016,0.856630,-5.666203,-16.687544,-0.107512,-1.238834,0.013439
2026-03-04T18:50:22.665016,-1.124626,-6.613761,-16.831114,-0.392175,-1.858251,0.014660
2026-03-04T18:50:22.674016,-1.301695,-6.953542,-15.156138,-0.455705,-2.575407,0.018325
2026-03-04T18:50:22.684016,-0.650847,-7.015755,-12.792029,-0.315206,-3.159394,-0.036651
2026-03-04T18:50:22.693016,0.406779,-6.872186,-10.418349,-0.061086,-3.571117,-0.113620
2026-03-04T18:50:22.703016,1.708475,-6.953542,-7.958527,0.233350,-3.825237,-0.196698
2026-03-04T18:50:22.713016,2.861815,-7.010970,-5.417350,0.526565,-3.913201,-0.243124
2026-03-04T18:50:22.722016,3.675375,-6.675975,-3.024527,0.785572,-3.857002,-0.246789
2026-03-04T18:50:22.732016,4.039084,-6.092126,-0.751346,0.959058,-3.681073,-0.221133
2026-03-04T18:50:22.741016,4.297509,-5.379065,1.306481,1.092226,-3.447722,-0.205250
2026-03-04T18:50:22.751016,4.340580,-4.134797,3.766302,1.213178,-3.156950,-0.212581
2026-03-04T18:50:22.761016,4.517649,-2.670390,6.049055,1.303586,-2.770884,-0.283441
2026-03-04T18:50:22.770016,4.388436,-1.775474,7.771887,1.317025,-2.262644,-0.410501
2026-03-04T18:50:22.780016,4.498506,-1.670190,8.652446,1.154535,-1.681100,-0.566882
2026-03-04T18:50:22.790016,4.493720,-2.517249,8.149953,0.869871,-1.036027,-0.712268
2026-03-04T18:50:22.799016,4.364508,-3.574876,7.757530,0.623082,-0.417831,-0.850324
2026-03-04T18:50:22.809016,4.359722,-5.053641,7.010970,0.278554,0.127059,-0.889419
2026-03-04T18:50:22.818016,4.177868,-6.513263,5.216353,0.107512,0.580321,-0.856432
2026-03-04T18:50:22.828016,4.527220,-8.398807,4.292723,-0.040317,0.855211,-0.846659
2026-03-04T18:50:22.838016,5.063212,-9.202795,2.799602,-0.051312,1.137430,-0.818559
2026-03-04T18:50:22.847016,5.517848,-8.762516,1.808973,-0.037873,1.479515,-0.817337
2026-03-04T18:50:22.857016,5.766702,-8.484948,0.655633,-0.069638,1.870468,-0.835663
2026-03-04T18:50:22.866016,5.666203,-7.867600,-0.009571,-0.094073,2.257757,-0.853989
2026-03-04T18:50:22.876016,5.335994,-7.159325,-0.942772,-0.218689,2.594954,-0.882089
2026-03-04T18:50:22.886016,4.895715,-7.130611,-2.244467,-0.485026,2.867400,-0.905302
2026-03-04T18:50:22.895016,4.493720,-7.288537,-3.785445,-0.814894,3.078760,-0.905302
2026-03-04T18:50:22.905016,4.043870,-7.331608,-4.756931,-1.214399,3.221702,-0.846659
2026-03-04T18:50:22.915016,3.881158,-7.580461,-5.594419,-1.744630,3.359758,-0.814894
2026-03-04T18:50:22.924016,4.249652,-9.360722,-8.700302,-2.421469,3.622430,-0.682947
2026-03-04T18:50:22.934016,3.474378,-10.738987,-14.926427,-3.276680,3.885102,-0.322536
2026-03-04T18:50:22.943016,1.545763,-13.179666,-21.363119,-4.404337,3.722611,0.139277
2026-03-04T18:50:22.953016,-0.492921,-16.797613,-24.105293,-4.488636,2.801427,0.525343
2026-03-04T18:50:22.963016,-1.253839,-17.472389,-23.377876,-3.685960,1.617570,0.932180
2026-03-04T18:50:22.972016,0.124426,-14.601003,-24.172293,-2.284635,0.442266,1.244943
2026-03-04T18:50:22.982016,2.991028,-7.719245,-21.037697,-0.130725,-0.773355,1.158200
2026-03-04T18:50:22.991016,7.274180,-2.608176,-16.414762,1.346346,-1.815491,0.835663
2026-03-04T18:50:23.001016,12.088539,-1.856830,-11.653046,1.864360,-2.251648,0.504574
2026-03-04T18:50:23.011016,12.949955,-4.981856,-9.322436,1.433089,-1.665218,0.354301
2026-03-04T18:50:23.020016,8.484948,-8.628518,-11.289337,0.808785,-0.625525,0.372627
2026-03-04T18:50:23.030016,2.847458,-10.045069,-14.093725,0.348193,-0.168598,0.453261
2026-03-04T18:50:23.040016,-1.263410,-11.002198,-15.744772,0.000000,-0.410501,0.671951
2026-03-04T18:50:23.049016,-3.225524,-10.695917,-16.017553,-0.083077,-1.138652,0.989601
2026-03-04T18:50:23.059016,-3.493520,-9.652646,-14.983855,-0.023212,-1.933998,1.247386
2026-03-04T18:50:23.068016,-2.656033,-8.298308,-13.261022,0.212581,-2.579072,1.378111
2026-03-04T18:50:23.078016,-1.225125,-6.915257,-11.169695,0.543669,-3.025004,1.407433
2026-03-04T18:50:23.088016,0.349352,-6.029912,-8.781658,0.901636,-3.266906,1.356120
2026-03-04T18:50:23.097016,1.732403,-5.469992,-6.508477,1.276708,-3.314554,1.270599
2026-03-04T18:50:23.107016,2.818745,-5.015356,-4.268795,1.670105,-3.203376,1.150869
2026-03-04T18:50:23.116016,3.388236,-4.785645,-2.464607,1.975537,-2.966360,1.034805
2026-03-04T18:50:23.126016,3.627519,-4.407579,-0.617348,2.217440,-2.711019,0.959058
2026-03-04T18:50:23.136016,3.694518,-3.909872,1.359123,2.332282,-2.458121,0.902858
2026-03-04T18:50:23.145016,3.818944,-3.326023,3.976871,2.382373,-2.200336,0.835663
2026-03-04T18:50:23.155016,4.005585,-2.445464,7.082754,2.383595,-1.897347,0.739146
2026-03-04T18:50:23.165016,3.962514,-1.306481,9.982855,2.397034,-1.453858,0.621860
2026-03-04T18:50:23.174016,4.125226,0.076570,11.107482,2.186897,-0.831998,0.448374
2026-03-04T18:50:23.184016,4.091726,0.358923,9.844072,1.667661,-0.056199,0.153938
2026-03-04T18:50:23.193016,3.560520,-1.239482,6.915257,1.061683,0.642630,-0.173485
2026-03-04T18:50:23.203016,3.148954,-4.618147,3.976871,0.491135,1.114217,-0.360410
2026-03-04T18:50:23.213016,2.775674,-8.140382,1.708475,0.138055,1.417207,-0.379958
2026-03-04T18:50:23.222016,2.790031,-11.030912,1.751546,0.226020,1.480737,-0.337197
2026-03-04T18:50:23.232016,3.919443,-12.083754,3.302095,0.511904,1.580918,-0.290771
2026-03-04T18:50:23.241016,4.737788,-11.150553,4.378865,1.025031,1.866803,-0.337197
2026-03-04T18:50:23.251016,6.230910,-9.920642,4.493720,1.335351,2.357939,-0.477696
2026-03-04T18:50:23.261016,6.565905,-8.853443,2.325823,1.483180,2.999347,-0.594982
2026-03-04T18:50:23.270016,5.670989,-7.953742,-0.378065,1.461189,3.578447,-0.719599
2026-03-04T18:50:23.280016,4.508077,-7.838886,-2.742174,1.319468,3.933971,-0.822224
2026-03-04T18:50:23.290016,3.512663,-7.953742,-4.331008,1.109331,4.096461,-0.866206
2026-03-04T18:50:23.299016,2.679961,-8.303094,-5.608776,0.824667,4.117230,-0.891863
2026-03-04T18:50:23.309016,2.392822,-9.049655,-7.006184,0.453261,4.035374,-0.842993
2026-03-04T18:50:23.318016,2.072184,-9.466006,-8.417949,0.031764,3.985283,-0.643851
2026-03-04T18:50:23.328016,2.105683,-9.997212,-11.054840,-0.680503,3.982840,-0.378736
2026-03-04T18:50:23.338016,2.268395,-12.485748,-15.534204,-1.678657,4.021935,-0.019547
2026-03-04T18:50:23.347016,1.636690,-14.577075,-17.553745,-2.480112,3.816685,0.180816
2026-03-04T18:50:23.357016,0.808774,-15.912270,-20.042282,-3.120298,3.381749,0.817337
2026-03-04T18:50:23.366016,-0.669990,-15.495919,-20.315063,-2.817309,2.499660,1.347568
2026-03-04T18:50:23.376016,-0.019142,-13.854442,-16.012768,-1.938885,1.345124,1.633453
2026-03-04T18:50:23.386016,2.684746,-9.896714,-12.787243,-0.700051,0.278554,1.943772
2026-03-04T18:50:23.395016,6.905686,-6.053841,-12.859028,0.276111,-0.452040,1.859473
2026-03-04T18:50:23.405016,10.456634,-5.422136,-13.098310,0.603534,-0.845437,1.484402
2026-03-04T18:50:23.415016,11.552547,-6.685546,-12.533604,0.722042,-0.924849,1.191186
2026-03-04T18:50:23.424016,9.992427,-7.523034,-11.471191,0.838106,-0.604756,1.042135
2026-03-04T18:50:23.434016,5.642275,-7.532605,-12.270394,1.011592,-0.175929,0.924849
2026-03-04T18:50:23.443016,1.502692,-6.187839,-13.308879,1.143539,-0.090408,0.747698
2026-03-04T18:50:23.453016,-1.593619,-5.379065,-14.897713,1.147204,-0.370184,0.538783
2026-03-04T18:50:23.463016,-3.436093,-5.589633,-16.199409,1.103222,-0.937067,0.320093
2026-03-04T18:50:23.472016,-4.144368,-5.752345,-16.467405,1.139874,-1.694539,0.153938
2026-03-04T18:50:23.482016,-3.579662,-6.029912,-15.998411,1.330464,-2.486221,-0.018325
2026-03-04T18:50:23.491016,-2.263610,-5.881557,-14.534004,1.661553,-3.175276,-0.153938
2026-03-04T18:50:23.501016,-0.794417,-5.139782,-12.576675,1.952324,-3.745824,-0.200363
2026-03-04T18:50:23.511016,0.401994,-4.086941,-10.557133,2.144136,-4.191756,-0.268780
2026-03-04T18:50:23.520016,1.909472,-3.445664,-8.537591,2.195449,-4.548501,-0.453261
2026-03-04T18:50:23.530016,3.249453,-2.981456,-6.465406,2.240653,-4.761083,-0.676838
2026-03-04T18:50:23.540016,4.192225,-2.244467,-4.187439,2.186897,-4.850268,-0.905302
2026-03-04T18:50:23.549016,4.895715,-2.210968,-2.244467,1.977981,-4.829499,-1.160643
2026-03-04T18:50:23.559016,5.469992,-2.890529,-0.430708,1.705535,-4.696330,-1.445306
2026-03-04T18:50:23.568016,5.790630,-4.847858,1.019342,1.411098,-4.476419,-1.695761
2026-03-04T18:50:23.578016,5.613561,-6.671189,1.564905,1.403768,-4.249177,-1.888794
2026-03-04T18:50:23.588016,5.580062,-6.786044,3.115455,1.578475,-4.101348,-2.014633
2026-03-04T18:50:23.597016,5.804987,-7.752745,3.479164,1.924225,-3.897319,-2.125810
2026-03-04T18:50:23.607016,5.469992,-7.063612,3.775874,1.907120,-3.637090,-2.133140
2026-03-04T18:50:23.616016,5.513063,-7.393821,3.689732,2.004859,-3.310888,-2.178344
2026-03-04T18:50:23.626016,6.211767,-8.551947,5.982056,2.438573,-3.131294,-2.563190
2026-03-04T18:50:23.636016,12.270394,-16.534405,16.677973,3.238806,-2.598620,-3.170389
2026-03-04T18:50:23.645016,15.739987,-21.444475,19.377077,3.590665,-0.433714,-3.175276
2026-03-04T18:50:23.655016,9.001798,-23.033310,3.115455,3.114190,1.192408,-2.045176
2026-03-04T18:50:23.665016,4.814359,-22.310677,0.612562,5.068959,1.264490,-1.099557
2026-03-04T18:50:23.674016,4.024727,-18.367306,6.580262,6.709742,0.850324,-0.701273
2026-03-04T18:50:23.684016,1.205982,-11.370692,2.469392,6.990740,0.656069,-0.400727
2026-03-04T18:50:23.693016,-0.507278,-4.996213,0.172283,7.798304,0.456927,-0.836885
2026-03-04T18:50:23.703016,0.890130,-0.047856,5.000999,8.190479,0.343306,-1.755626
2026-03-04T18:50:23.713016,4.120440,-1.497906,7.168896,8.304100,0.638964,-2.557081
2026-03-04T18:50:23.722016,6.111268,-1.593619,8.049455,7.975454,1.199739,-2.836857
2026-03-04T18:50:23.732016,6.479763,-0.071784,9.375078,8.040206,2.001194,-2.882061
2026-03-04T18:50:23.741016,5.852844,-0.736989,9.767501,7.734774,2.640159,-2.900387
2026-03-04T18:50:23.751016,4.273581,0.172283,9.662217,7.351150,3.071429,-2.924822
2026-03-04T18:50:23.761016,3.737588,-0.583848,10.475777,6.487387,3.229032,-3.054325
2026-03-04T18:50:23.770016,4.354937,-1.655833,11.997612,5.685932,3.342653,-3.144733
2026-03-04T18:50:23.780016,5.388636,-5.082355,12.413963,4.116009,3.358536,-3.050660
2026-03-04T18:50:23.790016,6.647261,-10.638489,10.892128,2.700023,3.390301,-2.811201
2026-03-04T18:50:23.799016,7.298108,-15.768700,9.164510,1.561371,3.489261,-2.431243
2026-03-04T18:50:23.809016,6.943971,-19.396219,6.350551,0.951727,3.567452,-2.004859
2026-03-04T18:50:23.818016,6.604190,-19.424932,3.560520,1.094670,3.562565,-1.622457
2026-03-04T18:50:23.828016,6.747759,-18.290735,1.880758,1.771508,3.545461,-1.369559
2026-03-04T18:50:23.838016,6.800401,-16.567904,1.229910,2.557081,3.450166,-1.159421
2026-03-04T18:50:23.847016,6.455835,-13.615160,2.038684,2.789210,3.204598,-0.945619
2026-03-04T18:50:23.857016,5.781059,-11.093125,3.038884,2.257757,2.955365,-0.640186
2026-03-04T18:50:23.866016,4.680361,-9.293722,3.287738,1.032362,2.729345,-0.171042
2026-03-04T18:50:23.876016,3.493520,-9.379864,1.746760,-0.302989,2.546085,0.299323
2026-03-04T18:50:23.886016,2.091326,-10.561918,-0.368494,-1.480737,2.335948,0.725707
2026-03-04T18:50:23.895016,0.378065,-11.313265,-1.627119,-2.179566,2.054950,1.116661
2026-03-04T18:50:23.905016,-1.191625,-11.810972,-2.589034,-2.449569,1.696983,1.423315
2026-03-04T18:50:23.915016,-2.383251,-11.571690,-3.426521,-2.412917,1.214399,1.634675
2026-03-04T18:50:23.924016,-2.876172,-10.796415,-3.895515,-2.152688,0.625525,1.769065
2026-03-04T18:50:23.934016,-3.014956,-9.623932,-3.550948,-1.760513,0.032986,1.806938
2026-03-04T18:50:23.943016,-2.799602,-8.638089,-3.220739,-1.334129,-0.520457,1.788613
2026-03-04T18:50:23.953016,-2.225325,-7.743173,-2.579462,-0.864984,-1.080009,1.715309
2026-03-04T18:50:23.963016,-1.320838,-7.015755,-1.445264,-0.404392,-1.599244,1.593136
2026-03-04T18:50:23.972016,-0.344566,-6.498906,-0.602991,-0.037873,-2.061058,1.470963
2026-03-04T18:50:23.982016,0.540777,-6.068198,-0.014356,0.355523,-2.465451,1.352455
2026-03-04T18:50:23.991016,1.545763,-5.632704,0.669990,0.808785,-2.824640,1.229060
2026-03-04T18:50:24.001016,2.569891,-4.986642,1.880758,1.279151,-3.134959,1.117883
2026-03-04T18:50:24.011016,3.239881,-3.919443,2.852244,1.448972,-3.423288,1.029918
2026-03-04T18:50:24.020016,3.651447,-2.297109,4.192225,1.418428,-3.679851,0.950506
2026-03-04T18:50:24.030016,3.594019,-2.124826,3.967299,1.385442,-3.910758,0.802676
2026-03-04T18:50:24.040016,4.086941,-2.244467,5.044070,1.398881,-4.169765,0.635299
2026-03-04T18:50:24.049016,4.680361,-2.029113,6.058626,1.529606,-4.384789,0.488692
2026-03-04T18:50:24.059016,5.345565,-2.967100,6.216553,1.835038,-4.502075,0.310319
2026-03-04T18:50:24.068016,6.125625,-2.292324,8.465806,2.311513,-4.598592,0.179594
2026-03-04T18:50:24.078016,6.963113,-1.445264,9.987641,2.745227,-4.607144,0.048869
2026-03-04T18:50:24.088016,7.738388,0.531206,11.863614,3.480709,-4.481306,-0.045204
2026-03-04T18:50:24.097016,8.513662,0.650847,11.930613,3.784920,-4.300490,-0.212581
2026-03-04T18:50:24.107016,10.049854,1.895115,14.562718,4.384789,-3.997501,-0.405614
2026-03-04T18:50:24.116016,10.959127,5.273781,20.204994,4.757417,-3.433061,-0.487470
2026-03-04T18:50:24.126016,10.179067,8.159525,24.138794,4.412889,-2.739119,-0.637743
2026-03-04T18:50:24.136016,10.030712,7.154539,25.785055,3.386636,-2.084271,-0.814894
2026-03-04T18:50:24.145016,10.609775,4.742574,28.230520,2.509433,-1.303586,-1.082452
2026-03-04T18:50:24.155016,10.700702,2.067398,28.718657,1.668883,-0.382401,-1.341459
2026-03-04T18:50:24.165016,10.332207,-0.459421,26.708685,1.073900,0.531452,-1.563814
2026-03-04T18:50:24.174016,9.920642,-1.871187,24.952354,0.642630,1.328020,-1.739743
2026-03-04T18:50:24.184016,9.719645,-3.330809,21.913469,0.168598,2.018298,-1.876577
2026-03-04T18:50:24.193016,9.580861,-4.479363,19.003798,-0.299323,2.635272,-1.940107
2026-03-04T18:50:24.203016,9.767501,-5.221138,16.376476,-0.703716,3.143511,-1.953546
2026-03-04T18:50:24.213016,9.839286,-5.297709,14.404792,-0.999375,3.616321,-1.919338
2026-03-04T18:50:24.222016,9.241080,-4.977071,12.145967,-1.263269,4.063474,-1.821599
2026-03-04T18:50:24.232016,8.523234,-4.934000,9.451649,-1.558927,4.434880,-1.679879
2026-03-04T18:50:24.241016,7.920242,-5.685346,6.733402,-1.909564,4.682891,-1.485623
2026-03-04T18:50:24.251016,7.427321,-6.929614,4.297509,-2.243096,4.811173,-1.224173
2026-03-04T18:50:24.261016,6.632904,-8.183453,2.110469,-2.497216,4.833164,-0.911410
2026-03-04T18:50:24.270016,5.020141,-8.733802,-0.411565,-2.679254,4.731761,-0.559552
2026-03-04T18:50:24.280016,3.058027,-8.690731,-2.545963,-2.668258,4.475197,-0.239459
2026-03-04T18:50:24.290016,0.684347,-8.082954,-4.905286,-2.587624,4.070805,0.014660
2026-03-04T18:50:24.299016,-1.421336,-7.800601,-8.250452,-2.571742,3.466048,0.246789
2026-03-04T18:50:24.309016,-3.201596,-7.178467,-11.006983,-2.448347,2.702467,0.465479
2026-03-04T18:50:24.318016,-5.412564,-6.278766,-13.002598,-2.149023,1.760513,0.579100
2026-03-04T18:50:24.328016,-7.484749,-6.216553,-13.476376,-1.712865,0.492357,0.526565
2026-03-04T18:50:24.338016,-7.436892,-7.513462,-8.642875,-1.187521,-1.069013,0.421496
2026-03-04T18:50:24.347016,-3.507877,-8.087740,-0.220139,-0.257785,-2.483777,0.246789
2026-03-04T18:50:24.357016,3.134597,-8.236095,6.125625,0.647517,-3.208263,0.073303
2026-03-04T18:50:24.366016,8.638089,-6.412764,8.226524,1.328020,-3.299893,0.020769
2026-03-04T18:50:24.376016,8.772087,-5.848058,3.584448,1.584584,-3.163059,0.184481
2026-03-04T18:50:24.386016,6.412764,-6.943971,0.133998,1.954768,-3.346319,0.339641
2026-03-04T18:50:24.395016,4.359722,-7.771887,0.693918,2.439795,-3.693290,0.491135
2026-03-04T18:50:24.405016,2.383251,-6.786044,2.569891,2.809979,-4.004831,0.626747
2026-03-04T18:50:24.415016,1.368694,-4.302295,3.761517,3.032334,-4.288273,0.691499
2026-03-04T18:50:24.424016,1.971685,-1.722832,5.647061,3.180163,-4.580266,0.675616
2026-03-04T18:50:24.434016,2.593819,0.052642,7.259823,3.120298,-4.752530,0.690277
2026-03-04T18:50:24.443016,2.924029,1.397408,7.657032,2.893057,-4.937012,0.659734
2026-03-04T18:50:24.453016,3.948157,2.411965,9.341579,2.860070,-5.049411,0.455705
2026-03-04T18:50:24.463016,3.153740,2.014756,5.158925,2.236988,-5.082397,0.315206
2026-03-04T18:50:24.472016,4.771288,-0.129212,1.852044,1.857029,-5.299865,0.139277
2026-03-04T18:50:24.482016,10.700702,0.277567,4.024727,2.454456,-5.351178,-0.193033
2026-03-04T18:50:24.491016,17.142181,1.890329,10.906485,3.268128,-4.818503,-0.390953
2026-03-04T18:50:24.501016,19.707287,4.484149,19.286150,3.725055,-3.788585,-0.316428
2026-03-04T18:50:24.511016,18.104095,5.910271,26.450260,3.944966,-2.502103,-0.239459
2026-03-04T18:50:24.520016,14.835500,6.202196,30.345776,3.690847,-1.297477,-0.186924
2026-03-04T18:50:24.530016,11.897113,8.183453,32.733814,2.692693,-0.368962,-0.282219
2026-03-04T18:50:24.540016,10.849057,6.943971,30.130423,1.414763,0.608421,-0.785572
2026-03-04T18:50:24.549016,11.485548,5.283352,27.177679,0.301767,1.554040,-1.363450
2026-03-04T18:50:24.559016,12.107682,4.029513,23.009382,-0.502131,2.482555,-1.803273
2026-03-04T18:50:24.568016,11.897113,3.421736,19.846069,-1.081231,3.319441,-2.103819
2026-03-04T18:50:24.578016,11.011769,2.751745,16.802401,-1.601688,4.008496,-2.271196
2026-03-04T18:50:24.588016,10.198209,2.081755,13.820943,-2.118480,4.506962,-2.326174
2026-03-04T18:50:24.597016,10.045069,1.004985,11.294122,-2.645045,4.874703,-2.305404
2026-03-04T18:50:24.607016,10.193424,-0.387637,9.049655,-3.200933,5.158144,-2.195449
2026-03-04T18:50:24.616016,10.135996,-2.177468,6.575476,-3.778811,5.391495,-2.017076
2026-03-04T18:50:24.626016,9.719645,-3.474378,3.838087,-4.340807,5.520998,-1.751961
2026-03-04T18:50:24.636016,8.733802,-4.331008,0.933200,-4.877147,5.519777,-1.413541
2026-03-04T18:50:24.645016,7.087540,-5.201996,-2.421536,-5.305974,5.456247,-1.017701
2026-03-04T18:50:24.655016,4.551148,-6.680760,-6.896114,-5.760457,5.176471,-0.521678
2026-03-04T18:50:24.665016,1.909472,-8.547162,-11.093125,-6.020686,4.689000,0.061086
2026-03-04T18:50:24.674016,-0.942772,-9.729216,-14.601003,-5.875300,4.042705,0.598647
2026-03-04T18:50:24.684016,-5.302494,-10.413563,-15.960126,-5.391495,3.029890,0.929736
2026-03-04T18:50:24.693016,-10.193424,-10.427920,-12.069397,-4.322481,1.458745,0.882089
2026-03-04T18:50:24.703016,-11.653046,-11.796615,-4.905286,-3.128851,-0.496022,0.615752
2026-03-04T18:50:24.713016,-6.537191,-12.887742,-0.593420,-1.696983,-2.232101,0.289550
2026-03-04T18:50:24.722016,2.488535,-12.169895,4.465006,-0.029321,-3.374418,0.146607
2026-03-04T18:50:24.732016,11.475977,-9.461220,10.810772,1.414763,-3.660303,0.085521
2026-03-04T18:50:24.741016,14.907284,-7.948956,7.393821,1.657887,-3.198489,0.202807
2026-03-04T18:50:24.751016,10.868200,-8.834301,0.703489,1.897347,-2.928487,0.547335
2026-03-04T18:50:24.761016,6.364908,-9.217152,1.459621,2.597398,-3.114190,0.908967
2026-03-04T18:50:24.770016,2.823530,-8.288737,2.488535,3.127629,-3.411070,1.148426
2026-03-04T18:50:24.780016,0.617348,-6.671189,1.411765,3.599217,-3.745824,1.188743
2026-03-04T18:50:24.790016,1.205982,-3.785445,2.924029,4.178317,-4.181982,1.177747
2026-03-04T18:50:24.799016,3.412165,-1.555334,5.924628,4.442211,-4.427550,1.142317
2026-03-04T18:50:24.809016,3.842873,-0.684347,4.761716,4.085465,-4.488636,1.220508
2026-03-04T18:50:24.818016,4.723431,0.287138,5.603990,3.907093,-4.592483,1.128878
2026-03-04T18:50:24.828016,5.895914,-0.253639,7.436892,3.747046,-4.635244,0.896749
2026-03-04T18:50:24.838016,6.714260,-1.722832,6.704688,3.554013,-4.558275,0.794124
2026-03-04T18:50:24.847016,7.331608,-3.134597,3.986442,3.284010,-4.431215,1.114217
2026-03-04T18:50:24.857016,8.221738,-1.019342,1.272981,2.954143,-4.329811,1.448972
2026-03-04T18:50:24.866016,12.332607,2.627319,6.690331,3.210707,-4.482528,1.241277
2026-03-04T18:50:24.876016,16.668402,7.570890,15.993626,3.723833,-3.847228,0.653625
2026-03-04T18:50:24.886016,17.027325,10.040283,22.564318,3.887545,-2.493551,0.248011
2026-03-04T18:50:24.895016,14.730215,10.777272,26.560329,3.046995,-1.286481,0.306654
2026-03-04T18:50:24.905016,12.638888,9.882357,29.149364,1.924225,-0.282219,0.324980
2026-03-04T18:50:24.915016,10.805986,9.226723,29.828926,0.636521,0.615752,0.035430
2026-03-04T18:50:24.924016,10.432706,7.006184,26.675186,-0.529009,1.466076,-0.536339
2026-03-04T18:50:24.934016,11.686545,4.886143,23.057238,-1.320690,2.266309,-1.083674
2026-03-04T18:50:24.943016,12.088539,3.996013,19.903498,-1.748295,3.054325,-1.440419
2026-03-04T18:50:24.953016,11.576475,2.799602,17.395821,-1.975537,3.792250,-1.687209
2026-03-04T18:50:24.963016,10.839486,1.483550,15.500704,-2.158797,4.377459,-1.843590
2026-03-04T18:50:24.972016,10.475777,0.473778,13.629517,-2.354274,4.798956,-1.916894
2026-03-04T18:50:24.982016,10.289137,-0.258424,11.686545,-2.602285,5.111719,-1.913229
2026-03-04T18:50:24.991016,9.954142,-0.684347,9.274580,-2.899165,5.338961,-1.861916
2026-03-04T18:50:25.001016,9.533005,-1.507478,7.058826,-3.270571,5.455025,-1.747074
2026-03-04T18:50:25.011016,8.968299,-2.081755,4.991427,-3.727498,5.484347,-1.552819
2026-03-04T18:50:25.020016,7.987241,-2.775674,2.880958,-4.188091,5.453803,-1.339016
2026-03-04T18:50:25.030016,6.742974,-3.440878,0.684347,-4.667009,5.335295,-1.087339
2026-03-04T18:50:25.040016,5.608776,-4.019941,-1.205982,-4.974885,5.159366,-0.866206
2026-03-04T18:50:25.049016,4.192225,-5.249852,-3.340380,-5.384164,4.935790,-0.630412
2026-03-04T18:50:25.059016,2.742174,-7.369893,-5.891129,-5.897291,4.593705,-0.200363
2026-03-04T18:50:25.068016,1.406979,-9.844072,-9.887142,-6.376210,4.146552,0.408057
2026-03-04T18:50:25.078016,-0.713061,-11.782258,-14.347364,-6.262589,3.739716,1.081231
2026-03-04T18:50:25.088016,-4.603790,-11.385049,-19.946569,-5.863083,3.004234,1.590692
2026-03-04T18:50:25.097016,-11.720045,-11.456834,-17.572889,-5.116606,1.374446,1.599244
2026-03-04T18:50:25.107016,-18.726229,-12.500105,-4.900500,-3.191159,-1.275486,0.835663
2026-03-04T18:50:25.116016,-11.069197,-14.304293,5.824130,-0.979827,-4.029266,-0.083077
2026-03-04T18:50:25.126016,4.096512,-10.963913,10.528419,1.175304,-5.623623,-0.576656
2026-03-04T18:50:25.136016,16.658831,-6.455835,13.763515,3.137403,-5.417151,-0.708603
2026-03-04T18:50:25.145016,17.309677,-6.159125,5.747559,2.992017,-4.236960,-0.318871
2026-03-04T18:50:25.155016,10.040283,-8.073383,-1.607976,3.106859,-3.583334,0.197920
2026-03-04T18:50:25.165016,3.976871,-8.786444,1.048056,3.816685,-3.673742,0.724486
2026-03-04T18:50:25.174016,-0.775274,-8.575876,2.416750,4.223521,-4.116009,0.939510
2026-03-04T18:50:25.184016,-1.579262,-8.116454,4.211367,4.751309,-4.726874,0.875980
2026-03-04T18:50:25.193016,-0.253639,-7.178467,4.086941,5.055519,-5.330408,1.073900
2026-03-04T18:50:25.203016,2.311466,-3.699303,4.134797,5.255883,-5.812992,1.313359
2026-03-04T18:50:25.213016,4.508077,0.052642,5.034498,5.463577,-5.931500,1.105665
2026-03-04T18:50:25.222016,6.288337,0.081355,5.091926,5.448916,-5.850866,0.665842
2026-03-04T18:50:25.232016,8.595018,-2.574677,1.320838,4.944341,-5.788557,0.748920
2026-03-04T18:50:25.241016,11.069197,-1.593619,0.153140,4.403115,-5.816657,1.274264
2026-03-04T18:50:25.251016,14.979069,4.938785,5.819344,4.845382,-5.571089,1.144761
2026-03-04T18:50:25.261016,18.419949,10.695917,16.208981,5.786114,-4.614475,0.366519
2026-03-04T18:50:25.270016,18.228521,13.385449,25.191635,5.876522,-3.079981,-0.065973
2026-03-04T18:50:25.280016,14.117653,14.672788,31.092337,4.979772,-1.433089,-0.020769
2026-03-04T18:50:25.290016,10.092925,14.352149,32.752956,3.174055,-0.162490,-0.019547
2026-03-04T18:50:25.299016,7.125825,15.452848,31.355547,0.821002,0.731816,-0.475253
2026-03-04T18:50:25.309016,7.982456,10.825129,25.177279,-0.916297,1.661553,-1.363450
2026-03-04T18:50:25.318016,9.772287,7.044469,20.827127,-1.894903,2.614502,-2.089158
2026-03-04T18:50:25.328016,10.590632,4.039084,17.094324,-2.359161,3.521026,-2.466673
2026-03-04T18:50:25.338016,10.380064,2.139183,14.845071,-2.603507,4.287051,-2.603507
2026-03-04T18:50:25.347016,9.930213,0.531206,13.261022,-2.839301,4.902803,-2.652376
2026-03-04T18:50:25.357016,9.312865,-0.703489,11.026126,-3.112968,5.358508,-2.641380
2026-03-04T18:50:25.366016,9.198010,-1.674975,8.953942,-3.413514,5.659054,-2.561968
2026-03-04T18:50:25.376016,9.437292,-2.364108,6.714260,-3.748268,5.891183,-2.463008
2026-03-04T18:50:25.386016,9.418149,-3.144168,4.316651,-4.133113,6.069555,-2.321287
2026-03-04T18:50:25.395016,8.547162,-3.814159,1.665404,-4.648683,6.151411,-2.114815
2026-03-04T18:50:25.405016,7.479963,-4.278366,-0.684347,-5.126380,6.068334,-1.841147
2026-03-04T18:50:25.415016,6.326622,-4.771288,-2.277967,-5.546655,5.921726,-1.539380
2026-03-04T18:50:25.424016,5.044070,-5.972485,-4.541577,-6.305349,5.698149,-1.048244
2026-03-04T18:50:25.434016,3.914657,-8.087740,-7.130611,-7.108026,5.464799,-0.469144
2026-03-04T18:50:25.443016,2.593819,-9.107082,-8.748159,-7.754321,5.189909,0.216246
2026-03-04T18:50:25.453016,0.291924,-11.557333,-12.126824,-7.844729,4.998097,0.773355
2026-03-04T18:50:25.463016,-2.603390,-11.614760,-12.983455,-7.766539,4.530175,1.456302
2026-03-04T18:50:25.472016,-8.599804,-11.935399,-18.171095,-7.590609,3.878993,1.923003
2026-03-04T18:50:25.482016,-16.706688,-10.585847,-18.113667,-6.436074,2.175901,1.784947
2026-03-04T18:50:25.491016,-24.803999,-11.854043,-5.307280,-4.144108,-0.930958,0.874758
2026-03-04T18:50:25.501016,-14.739787,-12.911670,5.278566,-2.219883,-4.279720,-0.328645
2026-03-04T18:50:25.511016,4.268795,-6.278766,12.940384,0.208915,-6.601008,-1.080009
2026-03-04T18:50:25.520016,18.687944,-4.374079,13.887942,1.929112,-6.208832,-1.858251
2026-03-04T18:50:25.530016,19.137794,-8.867800,2.837887,1.153313,-4.886920,-1.320690
2026-03-04T18:50:25.540016,13.471591,-10.116853,-3.292523,1.415985,-4.216190,-0.289550
2026-03-04T18:50:25.549016,6.920042,-9.470791,1.636690,2.733010,-3.969401,0.274889
2026-03-04T18:50:25.559016,1.071984,-8.336593,4.910071,3.128851,-4.217412,0.499687
2026-03-04T18:50:25.568016,-1.885544,-7.269395,4.871786,3.497813,-4.878369,0.340862
2026-03-04T18:50:25.578016,-0.665204,-6.187839,9.518648,4.139221,-5.483125,0.200363
2026-03-04T18:50:25.588016,1.124626,-5.714060,10.997412,4.288273,-5.773897,0.371405
2026-03-04T18:50:25.597016,3.282952,-5.551348,10.872985,4.403115,-5.600411,0.404392
2026-03-04T18:50:25.607016,3.450450,-6.652046,8.867800,4.532619,-5.109275,0.206472
2026-03-04T18:50:25.616016,3.498306,-13.203595,-0.703489,4.621805,-4.699995,0.094073
2026-03-04T18:50:25.626016,5.714060,-16.730616,-13.648660,4.224743,-5.301087,0.915075
2026-03-04T18:50:25.636016,13.155738,-2.555534,-1.612762,6.239376,-6.326119,0.923628
2026-03-04T18:50:25.645016,21.061625,11.882757,13.476376,9.150759,-5.152036,-0.193033
2026-03-04T18:50:25.655016,18.376877,17.410177,20.774485,10.387149,-2.949256,-0.962723
2026-03-04T18:50:25.665016,10.987841,19.290936,23.985653,9.655333,-1.699426,-0.392175
2026-03-04T18:50:25.674016,6.738188,21.879969,31.245478,6.912549,-1.288925,0.329867
2026-03-04T18:50:25.684016,4.101297,20.396420,32.556744,3.136181,-0.659734,-0.028099
2026-03-04T18:50:25.693016,5.943771,12.591032,28.005594,-0.130725,-0.073303,-1.005483
2026-03-04T18:50:25.703016,9.202795,6.843472,25.249063,-1.814269,0.734259,-1.587027
2026-03-04T18:50:25.713016,9.571290,4.560719,21.257835,-2.549750,1.819156,-1.858251
2026-03-04T18:50:25.722016,7.508677,3.335594,16.649260,-2.733010,2.729345,-2.131919
2026-03-04T18:50:25.732016,6.723831,2.244467,14.462219,-2.680476,3.257132,-2.447125
2026-03-04T18:50:25.741016,6.900900,1.182054,12.576675,-2.769662,3.599217,-2.657263
2026-03-04T18:50:25.751016,7.140182,-0.167497,9.978070,-2.951700,3.832567,-2.701245
2026-03-04T18:50:25.761016,7.585247,-1.708475,8.111668,-3.105638,3.969401,-2.614502
2026-03-04T18:50:25.770016,7.570890,-2.890529,6.695117,-3.274236,4.068361,-2.404365
2026-03-04T18:50:25.780016,6.565905,-3.933800,5.154139,-3.491704,4.123339,-2.131919
2026-03-04T18:50:25.790016,5.106283,-4.800002,3.646661,-3.783698,4.067139,-1.819156
2026-03-04T18:50:25.799016,3.723231,-6.135197,2.340180,-4.067139,3.900984,-1.523497
2026-03-04T18:50:25.809016,2.292324,-8.063812,-0.119641,-4.454428,3.645642,-1.186300
2026-03-04T18:50:25.818016,0.880558,-9.891928,-3.153740,-4.691444,3.312110,-0.777020
2026-03-04T18:50:25.828016,-1.234696,-11.073982,-6.484549,-4.550945,2.872287,-0.331088
2026-03-04T18:50:25.838016,-4.101297,-11.820543,-8.322237,-3.979175,2.122145,-0.006108
2026-03-04T18:50:25.847016,-6.833901,-12.031112,-7.283751,-2.981021,0.923628,0.054977
2026-03-04T18:50:25.857016,-7.058826,-12.016755,-3.895515,-1.804495,-0.529009,-0.124616
2026-03-04T18:50:25.866016,-3.637090,-11.839686,-0.282353,-0.538783,-1.828930,-0.329867
2026-03-04T18:50:25.876016,2.086541,-11.179267,3.364308,0.734259,-2.608394,-0.416610
2026-03-04T18:50:25.886016,7.135396,-10.150353,6.474977,1.850921,-2.783101,-0.366519
2026-03-04T18:50:25.895016,9.073583,-8.815158,7.202396,2.659706,-2.662150,-0.171042
2026-03-04T18:50:25.905016,8.638089,-7.020541,8.250452,3.319441,-2.626719,0.097738
2026-03-04T18:50:25.915016,7.757530,-5.532205,9.848857,3.699399,-2.662150,0.279776
2026-03-04T18:50:25.924016,6.494120,-4.742574,9.734002,3.712838,-2.662150,0.405614
2026-03-04T18:50:25.934016,5.623133,-4.197010,10.403992,3.699399,-2.656041,0.520457
2026-03-04T18:50:25.943016,5.493920,-3.996013,12.112468,3.616321,-2.581515,0.624304
2026-03-04T18:50:25.953016,5.273781,-3.962514,13.098310,3.448944,-2.397034,0.719599
2026-03-04T18:50:25.963016,3.565305,-4.780859,11.858828,3.111746,-2.184453,0.954171
2026-03-04T18:50:25.972016,2.450250,-5.283352,9.748359,2.838079,-2.098932,1.178969
2026-03-04T18:50:25.982016,1.249053,-4.158725,7.700103,2.869844,-2.064724,1.247386
2026-03-04T18:50:25.991016,-0.306281,-2.622533,1.584048,2.864957,-2.260200,1.165530
2026-03-04T18:50:26.001016,1.249053,-1.081555,-3.388236,3.027447,-2.930930,0.911410
2026-03-04T18:50:26.011016,6.829115,3.637090,1.373480,3.688403,-3.475822,0.621860
2026-03-04T18:50:26.020016,11.289337,9.178867,9.958927,4.098904,-3.137403,0.277332
2026-03-04T18:50:26.030016,11.834900,12.131610,17.304893,3.850893,-2.252870,-0.031764
2026-03-04T18:50:26.040016,10.274780,11.681759,22.999809,2.978578,-1.280373,-0.182037
2026-03-04T18:50:26.049016,8.585447,9.102297,25.301706,1.612683,-0.443488,-0.240680
2026-03-04T18:50:26.059016,7.623532,5.087140,24.148365,0.272445,0.290771,-0.447153
2026-03-04T18:50:26.068016,7.633104,1.698904,22.009182,-0.581543,0.970053,-0.735481
2026-03-04T18:50:26.078016,7.977670,0.942772,19.869999,-0.979827,1.612683,-1.029918
2026-03-04T18:50:26.088016,7.891528,1.579262,17.879169,-1.171639,2.217440,-1.329242
2026-03-04T18:50:26.097016,7.216752,1.899901,15.558132,-1.372003,2.773327,-1.611462
2026-03-04T18:50:26.107016,6.541976,1.411765,13.107882,-1.584584,3.203376,-1.809382
2026-03-04T18:50:26.116016,6.183053,0.559920,10.911271,-1.784947,3.496591,-1.902233
2026-03-04T18:50:26.126016,6.144768,-0.320638,9.154939,-1.999972,3.688403,-1.903455
2026-03-04T18:50:26.136016,5.977270,-1.004985,7.460820,-2.243096,3.813020,-1.824043
2026-03-04T18:50:26.145016,5.345565,-1.603191,6.049055,-2.522872,3.839898,-1.678657
2026-03-04T18:50:26.155016,4.331008,-2.426322,4.249652,-2.907717,3.760485,-1.480737
2026-03-04T18:50:26.165016,3.067598,-4.029513,1.684547,-3.374418,3.522248,-1.181413
2026-03-04T18:50:26.174016,1.344766,-5.761916,-1.875972,-3.932749,3.143511,-0.692721
2026-03-04T18:50:26.184016,-0.918843,-7.661817,-6.613761,-4.372572,2.654819,-0.119729
2026-03-04T18:50:26.193016,-4.618147,-9.250652,-10.825129,-4.356689,1.809382,0.371405
2026-03-04T18:50:26.203016,-8.398807,-10.695917,-10.959127,-3.644421,0.299323,0.686612
2026-03-04T18:50:26.213016,-9.174081,-12.165110,-5.125426,-2.420247,-1.635896,0.662177
2026-03-04T18:50:26.222016,-4.259224,-14.160724,-0.162711,-1.031140,-3.197267,0.331088
2026-03-04T18:50:26.232016,4.201796,-14.261222,5.245067,1.001818,-3.948632,0.085521
2026-03-04T18:50:26.241016,11.586047,-11.983255,9.987641,2.971247,-3.827680,0.190589
2026-03-04T18:50:26.251016,12.686745,-9.183653,10.877771,4.203973,-3.360979,0.651182
2026-03-04T18:50:26.261016,11.016555,-6.388836,12.471391,5.075067,-3.088534,1.049466
2026-03-04T18:50:26.270016,9.327222,-4.283152,13.835300,5.400047,-2.960252,1.296255
2026-03-04T18:50:26.280016,7.470392,-2.885744,13.648660,5.335295,-2.773327,1.475850
2026-03-04T18:50:26.290016,5.848058,-1.775474,13.950155,5.149592,-2.543642,1.602910
2026-03-04T18:50:26.299016,4.814359,-0.669990,15.337992,4.798956,-2.266309,1.705535
2026-03-04T18:50:26.309016,1.488335,-1.277767,10.509276,3.750711,-2.004859,2.026850
2026-03-04T18:50:26.318016,0.124426,-2.718246,6.451049,2.795318,-1.930333,2.284635
2026-03-04T18:50:26.328016,-1.191625,-1.799402,-1.689332,1.929112,-2.184453,2.426356
2026-03-04T18:50:26.338016,0.928415,3.326023,-5.350351,1.999972,-2.934595,1.982868
2026-03-04T18:50:26.347016,6.460621,9.150153,1.569691,2.599841,-3.447722,1.262047
2026-03-04T18:50:26.357016,10.384850,13.079168,8.829515,2.339613,-3.127629,0.725707
2026-03-04T18:50:26.366016,10.222138,15.242279,12.380464,1.560149,-2.305404,0.360410
2026-03-04T18:50:26.376016,8.327022,12.859028,14.825928,0.232128,-1.552819,0.230907
2026-03-04T18:50:26.386016,6.422335,7.417750,14.007583,-0.862541,-1.045801,0.195476
2026-03-04T18:50:26.395016,6.092126,2.163111,14.935998,-1.232725,-0.621860,0.059864
2026-03-04T18:50:26.405016,6.345765,-1.560120,15.132210,-1.226617,-0.196698,-0.118507
2026-03-04T18:50:26.415016,6.508477,-3.895515,14.371292,-0.923628,0.232128,-0.301767
2026-03-04T18:50:26.424016,6.967899,-4.431507,14.323436,-0.395840,0.594982,-0.470366
2026-03-04T18:50:26.434016,7.307680,-3.594019,13.844871,0.045204,0.918741,-0.590095
2026-03-04T18:50:26.443016,6.953542,-1.914258,12.949955,0.295658,1.192408,-0.662177
2026-03-04T18:50:26.453016,6.020341,-0.358923,12.141181,0.278554,1.407433,-0.706160
2026-03-04T18:50:26.463016,5.039284,0.684347,10.954341,0.051312,1.551597,-0.751364
2026-03-04T18:50:26.472016,4.618147,1.416550,10.107282,-0.248011,1.617570,-0.796568
2026-03-04T18:50:26.482016,4.575076,1.909472,9.006584,-0.549778,1.646892,-0.821002
2026-03-04T18:50:26.491016,4.460221,1.885544,8.126025,-0.817337,1.660331,-0.828333
2026-03-04T18:50:26.501016,4.259224,0.880558,7.412964,-1.031140,1.633453,-0.823446
2026-03-04T18:50:26.511016,4.168296,-0.655633,6.943971,-1.154535,1.555262,-0.786794
2026-03-04T18:50:26.520016,3.976871,-2.225325,7.015755,-1.152091,1.444085,-0.708603
2026-03-04T18:50:26.530016,4.019941,-3.680161,7.384250,-1.099557,1.329242,-0.610865
2026-03-04T18:50:26.540016,3.952942,-4.522434,7.255038,-1.022588,1.211956,-0.498465
2026-03-04T18:50:26.549016,3.665804,-4.560719,7.039684,-0.907745,1.081231,-0.387288
2026-03-04T18:50:26.559016,3.388236,-4.316651,6.891329,-0.812450,0.930958,-0.313984
2026-03-04T18:50:26.568016,3.215953,-4.728217,5.599204,-0.811228,0.740368,-0.199142
2026-03-04T18:50:26.578016,2.823530,-4.689932,4.503292,-0.797789,0.454483,0.029321
2026-03-04T18:50:26.588016,2.148754,-4.536791,3.498306,-0.770911,0.080634,0.270002
2026-03-04T18:50:26.597016,1.689332,-4.431507,2.933600,-0.654847,-0.383623,0.477696
2026-03-04T18:50:26.607016,1.751546,-4.335794,3.259024,-0.401949,-0.895528,0.634077
2026-03-04T18:50:26.616016,2.416750,-4.469792,4.034298,-0.073303,-1.384220,0.748920
2026-03-04T18:50:26.626016,3.369094,-4.852644,4.599005,0.300545,-1.821599,0.841772
2026-03-04T18:50:26.636016,4.517649,-4.867001,5.503491,0.697607,-2.199114,0.949284
2026-03-04T18:50:26.645016,5.398207,-4.747360,6.312266,1.014036,-2.494773,1.072679
2026-03-04T18:50:26.655016,6.106483,-3.900300,7.460820,1.273042,-2.718349,1.174082
2026-03-04T18:50:26.665016,6.838686,-2.732603,9.092725,1.447750,-2.864957,1.252273
2026-03-04T18:50:26.674016,7.551748,-1.579262,10.447063,1.533271,-2.902831,1.281595
2026-03-04T18:50:26.684016,7.872386,-0.602991,10.935199,1.550375,-2.844187,1.292590
2026-03-04T18:50:26.693016,8.240881,0.334995,12.122039,1.590692,-2.739119,1.286481
2026-03-04T18:50:26.703016,8.523234,1.095912,13.447663,1.633453,-2.530203,1.227838
2026-03-04T18:50:26.713016,8.020741,1.923829,11.514262,1.502728,-2.246761,1.148426
2026-03-04T18:50:26.722016,7.546962,3.062812,9.882357,1.480737,-2.054950,1.000597
2026-03-04T18:50:26.732016,8.580661,4.761716,10.341779,1.529606,-1.848477,0.756251
2026-03-04T18:50:26.741016,9.547362,7.465606,12.571889,1.497841,-1.451415,0.469144
2026-03-04T18:50:26.751016,9.518648,9.451649,14.892927,1.192408,-0.874758,0.106290
2026-03-04T18:50:26.761016,8.604590,9.882357,16.486547,0.663399,-0.255341,-0.280997
2026-03-04T18:50:26.770016,7.140182,8.671589,16.405191,0.010995,0.324980,-0.623082
2026-03-04T18:50:26.780016,6.044269,6.293123,15.658631,-0.444709,0.824667,-0.938288
2026-03-04T18:50:26.790016,5.670989,4.086941,14.763715,-0.671951,1.222951,-1.196073
2026-03-04T18:50:26.799016,5.737988,2.239681,13.471591,-0.729372,1.547932,-1.403768
2026-03-04T18:50:26.809016,5.584847,0.990628,12.011969,-0.648738,1.814269,-1.555262
2026-03-04T18:50:26.818016,4.867001,0.406779,10.628917,-0.480139,2.006081,-1.665218
2026-03-04T18:50:26.828016,4.039084,0.349352,9.566504,-0.313984,2.101375,-1.745852
2026-03-04T18:50:26.838016,3.177668,0.320638,8.317451,-0.239459,2.111149,-1.800830
2026-03-04T18:50:26.847016,2.431107,0.358923,7.082754,-0.245567,2.025628,-1.819156
2026-03-04T18:50:26.857016,1.895115,0.497707,6.441478,-0.285884,1.858251,-1.810604
2026-03-04T18:50:26.866016,1.512263,0.607776,6.422335,-0.354301,1.659109,-1.786169
2026-03-04T18:50:26.876016,1.249053,0.229710,6.570690,-0.467922,1.479515,-1.764178
2026-03-04T18:50:26.886016,1.000199,-0.234496,6.465406,-0.549778,1.293812,-1.737300
2026-03-04T18:50:26.895016,0.961914,-0.837487,6.728617,-0.555887,1.104444,-1.700648
2026-03-04T18:50:26.905016,0.808774,-1.411765,6.589833,-0.552222,0.935845,-1.651779
2026-03-04T18:50:26.915016,0.708275,-1.875972,6.393621,-0.481361,0.755029,-1.579697
2026-03-04T18:50:26.924016,0.818345,-1.938186,6.522834,-0.334754,0.543669,-1.533271
2026-03-04T18:50:26.934016,1.296909,-1.761117,6.929614,-0.119729,0.338419,-1.530827
2026-03-04T18:50:26.943016,1.938186,-1.363908,7.345965,0.106290,0.171042,-1.547932
2026-03-04T18:50:26.953016,2.531606,-0.909272,7.972884,0.332310,0.032986,-1.579697
2026-03-04T18:50:26.963016,3.244667,-0.622133,8.264809,0.455705,-0.078190,-1.591914
2026-03-04T18:50:26.972016,3.684946,-0.636490,7.972884,0.471587,-0.163711,-1.577253
2026-03-04T18:50:26.982016,4.063012,-0.430708,7.953742,0.477696,-0.266337,-1.556484
2026-03-04T18:50:26.991016,4.809573,0.090927,8.690731,0.522900,-0.354301,-1.577253
2026-03-04T18:50:27.001016,5.249852,0.464207,9.140582,0.482583,-0.367740,-1.604131
2026-03-04T18:50:27.011016,5.446064,0.751346,9.049655,0.445931,-0.375071,-1.626122
2026-03-04T18:50:27.020016,5.977270,1.134197,9.628718,0.438601,-0.400727,-1.666440
2026-03-04T18:50:27.030016,6.484549,1.493121,10.054640,0.422718,-0.404392,-1.705535
2026-03-04T18:50:27.040016,6.824330,2.153540,10.643274,0.427605,-0.395840,-1.733635
2026-03-04T18:50:27.049016,7.278966,2.823530,11.619546,0.403170,-0.360410,-1.759291
2026-03-04T18:50:27.059016,7.642675,2.962314,12.026326,0.239459,-0.277332,-1.787391
2026-03-04T18:50:27.068016,7.920242,2.545963,11.691331,0.040317,-0.196698,-1.815491
2026-03-04T18:50:27.078016,8.470592,2.574677,11.452048,-0.106290,-0.109955,-1.809382
2026-03-04T18:50:27.088016,8.800801,3.000599,11.499905,-0.233350,0.002443,-1.819156
2026-03-04T18:50:27.097016,8.848657,3.158525,11.542976,-0.350636,0.135612,-1.866803
2026-03-04T18:50:27.107016,8.829515,3.637090,11.294122,-0.481361,0.257785,-1.877799
2026-03-04T18:50:27.116016,8.633303,4.307080,11.097911,-0.638964,0.359188,-1.865582
2026-03-04T18:50:27.126016,8.494520,4.996213,10.920842,-0.895528,0.448374,-1.864360
2026-03-04T18:50:27.136016,8.145168,5.163711,10.724630,-1.237612,0.531452,-1.864360
2026-03-04T18:50:27.145016,8.011170,5.455635,10.983055,-1.521054,0.619417,-1.876577
2026-03-04T18:50:27.155016,7.762316,5.422136,10.729416,-1.843590,0.747698,-1.894903
2026-03-04T18:50:27.165016,7.197610,5.637490,10.035497,-2.128254,0.869871,-1.916894
2026-03-04T18:50:27.174016,6.795616,5.350351,10.179067,-2.323730,0.970053,-1.962098
2026-03-04T18:50:27.184016,6.685546,4.804787,10.561918,-2.509433,1.040914,-2.017076
2026-03-04T18:50:27.193016,6.886543,4.096512,10.973484,-2.547307,1.115439,-2.094045
2026-03-04T18:50:27.203016,7.269395,3.637090,11.533404,-2.546085,1.204625,-2.162462
2026-03-04T18:50:27.213016,7.451249,3.780659,11.054840,-2.543642,1.320690,-2.211331
2026-03-04T18:50:27.222016,7.068397,3.574876,10.313065,-2.555859,1.321912,-2.342056
2026-03-04T18:50:27.232016,7.360322,3.192025,9.198010,-2.458121,1.115439,-2.288300
2026-03-04T18:50:27.241016,6.139982,3.306880,10.681560,-2.182010,1.128878,-1.993863
2026-03-04T18:50:27.251016,4.110869,6.924828,12.543176,-2.072054,1.390328,-1.839925
2026-03-04T18:50:27.261016,3.244667,5.623133,13.576875,-2.426356,1.496619,-2.039067
2026-03-04T18:50:27.270016,2.957528,3.215953,10.332207,-2.659706,1.528384,-2.300518
2026-03-04T18:50:27.280016,3.201596,1.545763,9.308079,-2.302961,1.530827,-2.537533
2026-03-04T18:50:27.290016,3.589233,-0.239282,9.609575,-1.824043,1.407433,-2.757445
2026-03-04T18:50:27.299016,3.661018,-1.143769,8.705088,-1.174082,1.343903,-2.966360
2026-03-04T18:50:27.309016,3.804587,-0.976271,8.346165,-0.560774,1.104444,-3.229032
2026-03-04T18:50:27.318016,3.115455,-1.497906,6.183053,-0.388510,0.668286,-3.549126
2026-03-04T18:50:27.328016,3.014956,-3.627519,4.249652,-0.018325,0.098960,-3.800802
2026-03-04T18:50:27.338016,4.756931,-2.914457,7.159325,0.449596,-0.437379,-3.511252
2026-03-04T18:50:27.347016,7.666603,-5.106283,9.901499,0.226020,0.156381,-3.574782
2026-03-04T18:50:27.357016,5.292923,-5.522634,9.547362,1.502728,1.629788,-3.258354
2026-03-04T18:50:27.366016,2.943171,-3.244667,9.001798,1.707978,2.503325,-3.241250
2026-03-04T18:50:27.376016,2.483749,-3.062812,15.055639,1.210734,1.772730,-2.207666
2026-03-04T18:50:27.386016,4.000799,0.454636,21.482761,1.123991,0.989601,-0.590095
2026-03-04T18:50:27.395016,4.091726,0.157926,3.972085,-0.131946,1.591914,0.945619
2026-03-04T18:50:27.405016,1.564905,0.239282,6.034698,1.066570,0.546113,-0.139277
2026-03-04T18:50:27.415016,-0.071784,-10.112068,2.187039,-0.852767,0.090408,-0.896749
2026-03-04T18:50:27.424016,3.723231,-14.026726,2.105683,0.723264,-0.092851,-0.735481
2026-03-04T18:50:27.434016,4.130011,-10.131210,4.144368,2.693915,-0.284663,0.065973
2026-03-04T18:50:27.443016,3.890729,-6.479763,3.349951,3.732385,0.059864,0.107512
2026-03-04T18:50:27.453016,2.914457,-4.436293,2.756531,4.531397,0.119729,0.058643
2026-03-04T18:50:27.463016,0.684347,-1.823330,4.584648,5.004206,0.171042,0.279776
2026-03-04T18:50:27.472016,-0.358923,-1.162911,5.292923,4.362798,-0.106290,0.410501
2026-03-04T18:50:27.482016,0.674775,-1.971685,4.139583,3.731164,-0.488692,0.478918
2026-03-04T18:50:27.491016,2.048256,-3.000599,3.857230,3.423288,-0.747698,0.750142
2026-03-04T18:50:27.501016,2.608176,-4.297509,4.522434,3.645642,-0.729372,1.003040
2026-03-04T18:50:27.511016,3.091526,-4.560719,4.675575,3.914423,-0.723264,1.376889
2026-03-04T18:50:27.520016,3.751945,-4.225724,3.531806,4.059809,-0.766024,1.793499
2026-03-04T18:50:27.530016,4.139583,-3.747160,2.976671,4.125782,-0.789237,2.184453
2026-03-04T18:50:27.540016,4.220939,-3.225524,2.608176,4.225964,-0.845437,2.575407
2026-03-04T18:50:27.549016,4.311866,-2.301895,3.053241,4.354246,-0.950506,2.908939
2026-03-04T18:50:27.559016,4.201796,-2.268395,3.359522,4.152661,-0.984714,3.167946
2026-03-04T18:50:27.568016,4.488935,-2.766102,1.981257,4.145330,-1.137430,3.453831
2026-03-04T18:50:27.578016,5.369493,-2.110469,2.340180,4.596149,-1.434311,3.679851
2026-03-04T18:50:27.588016,7.063612,-1.540977,3.383451,4.907690,-1.886351,3.816685
2026-03-04T18:50:27.597016,10.025926,-1.110269,3.972085,5.292535,-2.315178,3.861889
2026-03-04T18:50:27.607016,13.916656,-0.449850,4.953142,5.721362,-2.459342,4.040261
2026-03-04T18:50:27.616016,17.099110,1.115055,5.632704,6.089103,-2.114815,4.366463
2026-03-04T18:50:27.626016,17.922241,3.656232,4.584648,6.313901,-1.346346,4.649905
2026-03-04T18:50:27.636016,16.347763,6.297909,4.091726,6.470283,-0.433714,4.809952
2026-03-04T18:50:27.645016,13.825728,8.633303,5.302494,6.509378,0.302989,4.797734
2026-03-04T18:50:27.655016,11.715259,11.097911,7.527819,6.478835,0.830776,4.637687
2026-03-04T18:50:27.665016,10.317851,13.701302,9.389435,6.159963,1.164308,4.411667
2026-03-04T18:50:27.674016,9.389435,16.132408,10.925627,5.544211,1.398881,4.152661
2026-03-04T18:50:27.684016,9.145367,17.960526,11.997612,4.499632,1.569923,3.909536
2026-03-04T18:50:27.693016,9.250652,18.874584,11.858828,2.896722,1.874134,3.711616
2026-03-04T18:50:27.703016,9.518648,19.558931,9.494720,1.514945,2.454456,3.286454
2026-03-04T18:50:27.713016,8.925228,20.779270,7.030112,0.742811,3.370753,2.700023
2026-03-04T18:50:27.722016,7.054041,21.544973,5.273781,-0.015882,4.351803,2.157575
2026-03-04T18:50:27.732016,4.273581,21.276978,3.024527,-0.894306,5.108054,1.677435
2026-03-04T18:50:27.741016,1.225125,20.315063,0.890130,-1.826486,5.422038,1.259603
2026-03-04T18:50:27.751016,-2.120040,18.778872,0.143569,-2.660928,5.156923,0.849102
2026-03-04T18:50:27.761016,-5.120640,16.462620,0.693918,-3.406183,4.131891,0.376292
2026-03-04T18:50:27.770016,-4.173082,13.428520,0.363709,-4.031709,2.758666,-0.102625
2026-03-04T18:50:27.780016,-1.186840,9.700502,1.019342,-4.174652,1.672548,-0.502131
2026-03-04T18:50:27.790016,1.856830,6.738188,2.565105,-3.977953,1.025031,-0.676838
2026-03-04T18:50:27.799016,4.283152,4.622933,2.976671,-3.866776,0.718377,-0.625525
2026-03-04T18:50:27.809016,6.173482,2.632104,2.392822,-3.793472,0.671951,-0.464257
2026-03-04T18:50:27.818016,7.049255,0.775274,1.287338,-3.709172,0.860098,-0.144164
2026-03-04T18:50:27.828016,6.886543,-0.483350,-0.378065,-3.534465,1.083674,0.323758
2026-03-04T18:50:27.838016,5.302494,-0.823130,-2.043470,-2.979800,1.208291,0.766024
2026-03-04T18:50:27.847016,3.077169,-0.602991,-3.244667,-2.179566,1.015257,1.026253
2026-03-04T18:50:27.857016,1.019342,0.076570,-4.307080,-1.280373,0.368962,1.102000
2026-03-04T18:50:27.866016,0.397208,1.593619,-4.465006,-0.282219,-0.665842,1.003040
2026-03-04T18:50:27.876016,1.043270,3.048455,-3.239881,0.485026,-1.820378,0.825889
2026-03-04T18:50:27.886016,2.947957,3.637090,-1.478764,0.801455,-2.932152,0.703716
2026-03-04T18:50:27.895016,5.766702,3.732803,-0.334995,0.911410,-3.837454,0.645073
2026-03-04T18:50:27.905016,8.590233,3.067598,1.100698,0.924849,-4.409224,0.665842
2026-03-04T18:50:27.915016,11.298908,2.115255,2.770888,1.071457,-4.636466,0.797789
2026-03-04T18:50:27.924016,13.500305,1.837687,4.058227,1.380555,-4.448319,0.996931
2026-03-04T18:50:27.934016,14.093725,2.120040,4.144368,1.780060,-3.942523,1.227838
2026-03-04T18:50:27.943016,12.447463,3.000599,3.785445,2.216218,-3.462383,1.480737
2026-03-04T18:50:27.953016,10.064211,4.536791,3.570091,2.550972,-3.308445,1.646892
2026-03-04T18:50:27.963016,8.355736,6.508477,3.397808,2.852740,-3.466048,1.587027
2026-03-04T18:50:27.972016,8.082954,8.973084,4.292723,3.310888,-3.827680,1.328020
2026-03-04T18:50:27.982016,9.528219,12.016755,7.322037,3.918088,-4.263838,0.948062
2026-03-04T18:50:27.991016,13.280165,13.730016,12.308679,4.167321,-4.498410,0.518013
2026-03-04T18:50:28.001016,18.841085,13.256237,17.257036,3.756820,-4.047592,0.213802
2026-03-04T18:50:28.011016,21.262621,12.667602,17.994024,2.846631,-2.862513,0.259006
2026-03-04T18:50:28.020016,19.209579,12.902099,18.056238,2.178344,-1.578475,0.323758
2026-03-04T18:50:28.030016,15.682559,13.356735,18.917656,1.550375,-0.742811,0.103847
2026-03-04T18:50:28.040016,13.562518,13.136596,18.592232,0.763581,-0.323758,-0.243124
2026-03-04T18:50:28.049016,13.165309,12.983455,17.520247,-0.026878,0.007330,-0.548556
2026-03-04T18:50:28.059016,13.366307,12.547961,17.089539,-0.856432,0.480139,-0.789237
2026-03-04T18:50:28.068016,12.792029,11.542976,15.993626,-1.859473,1.076344,-0.929736
2026-03-04T18:50:28.078016,11.576475,9.805787,14.175081,-2.790431,1.662774,-0.977384
2026-03-04T18:50:28.088016,10.279565,7.499106,12.155538,-3.502700,2.117258,-0.971275
2026-03-04T18:50:28.097016,9.370293,5.154139,10.423135,-3.853337,2.448347,-0.959058
2026-03-04T18:50:28.107016,8.719445,3.220739,9.126225,-3.866776,2.698802,-0.937067
2026-03-04T18:50:28.116016,8.408378,1.617548,7.948956,-3.661525,2.879618,-0.900415
2026-03-04T18:50:28.126016,8.082954,0.698704,6.537191,-3.369531,3.022560,-0.852767
2026-03-04T18:50:28.136016,7.671389,0.239282,5.249852,-2.978578,3.133738,-0.816115
2026-03-04T18:50:28.145016,7.336394,0.162711,4.546362,-2.559524,3.209485,-0.811228
2026-03-04T18:50:28.155016,7.025327,0.291924,4.101297,-2.258979,3.236363,-0.819780
2026-03-04T18:50:28.165016,6.920042,0.626919,3.259024,-2.135584,3.220480,-0.814894
2026-03-04T18:50:28.174016,7.077969,0.650847,1.899901,-2.354274,3.207041,-0.736703
2026-03-04T18:50:28.184016,7.144968,0.708275,-0.497707,-2.751336,3.219259,-0.553443
2026-03-04T18:50:28.193016,7.106683,0.502492,-3.359522,-3.229032,3.296228,-0.278554
2026-03-04T18:50:28.203016,6.666403,-0.823130,-6.900900,-3.842341,3.348762,0.150272
2026-03-04T18:50:28.213016,5.613561,-2.459821,-11.236694,-4.351803,3.224146,0.791681
2026-03-04T18:50:28.222016,3.029313,-3.570091,-15.615560,-4.361576,2.712241,1.479515
2026-03-04T18:50:28.232016,-1.153340,-4.929214,-16.878969,-3.468492,1.469741,1.804495
2026-03-04T18:50:28.241016,-4.163511,-5.986842,-12.878171,-1.791056,-0.619417,1.784947
2026-03-04T18:50:28.251016,-2.656033,-4.101297,-8.614161,0.191811,-2.871066,1.467297
2026-03-04T18:50:28.261016,2.656033,-0.622133,-5.245067,2.334726,-4.471532,0.795346
2026-03-04T18:50:28.270016,8.805587,3.728017,-1.727617,4.339585,-5.264435,0.145385
2026-03-04T18:50:28.280016,13.696516,6.183053,-0.009571,5.177692,-5.599189,0.048869
2026-03-04T18:50:28.290016,16.074982,7.657032,1.292124,4.838051,-5.494121,0.524122
2026-03-04T18:50:28.299016,16.338192,7.905885,3.081955,4.211304,-4.884477,1.000597
2026-03-04T18:50:28.309016,13.811372,8.135596,5.130211,3.467270,-4.072026,1.332907
2026-03-04T18:50:28.318016,10.930413,7.489534,6.125625,2.770884,-3.538130,1.573588
2026-03-04T18:50:28.328016,8.188238,7.168896,6.953542,2.460564,-3.517361,1.709200
2026-03-04T18:50:28.338016,6.829115,7.728816,7.910671,2.521651,-3.830124,1.546710
2026-03-04T18:50:28.347016,7.054041,7.101897,7.077969,2.128254,-4.140443,1.310916
2026-03-04T18:50:28.357016,8.178667,7.173682,3.335594,1.689652,-4.355468,1.067792
2026-03-04T18:50:28.366016,9.772287,11.011769,-1.665404,2.324952,-4.464202,0.557108
2026-03-04T18:50:28.376016,11.657831,16.309479,-1.914258,3.275458,-4.879590,-0.096516
2026-03-04T18:50:28.386016,17.702101,19.046867,6.010770,4.213747,-5.282761,-1.025031
2026-03-04T18:50:28.395016,28.393232,18.635302,17.793028,4.150217,-4.557053,-1.695761
2026-03-04T18:50:28.405016,29.790642,16.974684,18.084953,1.865582,-2.722014,-1.459967
2026-03-04T18:50:28.415016,25.014566,14.639288,18.061024,0.524122,-0.995710,-1.336572
2026-03-04T18:50:28.424016,19.692928,14.553147,20.453848,-0.389731,-0.052534,-1.649335
2026-03-04T18:50:28.434016,16.314264,14.490933,19.731215,-1.820378,0.343306,-2.053728
2026-03-04T18:50:28.443016,16.017553,13.926227,16.840685,-3.475822,0.511904,-2.288300
2026-03-04T18:50:28.453016,17.175680,12.260823,14.323436,-5.156923,0.917519,-2.364047
2026-03-04T18:50:28.463016,17.032110,10.121639,11.375478,-6.891780,1.631009,-2.202779
2026-03-04T18:50:28.472016,15.404991,7.685746,8.480163,-8.407947,2.382373,-1.871690
2026-03-04T18:50:28.482016,13.409377,5.503491,5.345565,-9.671216,2.956587,-1.507615
2026-03-04T18:50:28.491016,11.734402,3.091526,2.579462,-10.597288,3.348762,-1.134987
2026-03-04T18:50:28.501016,10.557133,1.043270,-0.009571,-11.221592,3.644421,-0.656069
2026-03-04T18:50:28.511016,9.705288,-0.473778,-2.091326,-11.505033,3.889989,-0.102625
2026-03-04T18:50:28.520016,9.193224,-1.722832,-4.675575,-11.805579,4.145330,0.590095
2026-03-04T18:50:28.530016,8.255237,-2.751745,-8.700302,-12.139111,4.427550,1.538158
2026-03-04T18:50:28.540016,6.991827,-3.230310,-13.117453,-12.219745,4.773299,2.405586
2026-03-04T18:50:28.549016,4.919643,-2.675175,-22.813169,-12.368796,5.054298,3.007899
2026-03-04T18:50:28.559016,-0.727418,-5.436492,-29.460430,-11.303448,4.520401,2.477668
2026-03-04T18:50:28.568016,-9.221938,-13.395020,-29.072794,-8.494690,2.442238,1.613905
2026-03-04T18:50:28.578016,-16.572689,-20.731415,-18.936798,-4.203973,-1.601688,1.258382
2026-03-04T18:50:28.588016,-11.691331,-20.425133,-9.480363,0.689055,-5.409821,0.757472
2026-03-04T18:50:28.597016,1.588834,-10.571490,-2.928814,6.698746,-7.147121,-0.017104
2026-03-04T18:50:28.607016,13.361521,0.636490,-0.301495,11.875217,-7.431784,-1.279151
2026-03-04T18:50:28.616016,21.363119,5.426921,-1.234696,14.616780,-7.082370,-1.982868
2026-03-04T18:50:28.626016,23.918653,11.093125,-2.277967,15.134793,-6.796485,-0.998153
2026-03-04T18:50:28.636016,22.248465,16.457832,1.028913,14.121979,-5.865526,0.061086
2026-03-04T18:50:28.645016,18.831512,18.659229,6.312266,11.939969,-3.924197,0.105068
2026-03-04T18:50:28.655016,14.007583,15.572489,12.696316,9.509948,-1.858251,0.064751
2026-03-04T18:50:28.665016,7.231109,10.738987,14.931213,6.069555,-0.577878,1.141096
2026-03-04T18:50:28.674016,2.928814,7.221538,7.752745,3.226589,-0.399505,2.053728
2026-03-04T18:50:28.684016,2.230110,3.795016,-1.325623,2.036624,-0.718377,2.150245
2026-03-04T18:50:28.693016,1.703689,4.072584,-1.885544,3.462383,-1.870468,1.701870
2026-03-04T18:50:28.703016,3.077169,9.145367,1.804188,5.710367,-3.420844,0.756251
2026-03-04T18:50:28.713016,6.192624,14.586646,1.258624,5.777562,-4.695108,-0.128281
2026-03-04T18:50:28.722016,11.954541,21.214766,0.325423,5.832540,-5.505116,-1.051909
2026-03-04T18:50:28.732016,19.080366,26.182264,5.819344,4.596149,-5.716475,-1.372003
2026-03-04T18:50:28.741016,34.892139,25.071995,29.015366,3.172833,-4.621805,-1.632231
2026-03-04T18:50:28.751016,29.647072,32.796024,20.683558,-2.376265,-0.408057,-1.695761
2026-03-04T18:50:28.761016,22.636101,20.621346,8.384450,-7.205764,2.524094,-2.343278
2026-03-04T18:50:28.770016,17.481960,10.782058,5.661418,-8.425051,3.698177,-2.074497
2026-03-04T18:50:28.780016,16.395620,5.752345,7.154539,-9.139763,3.964514,-1.742187
2026-03-04T18:50:28.790016,16.022341,-0.133998,3.728017,-9.755515,4.136778,-1.745852
2026-03-04T18:50:28.799016,14.108082,-3.598805,0.349352,-9.252162,4.148995,-1.458745
2026-03-04T18:50:28.809016,12.059825,-4.268795,1.100698,-8.262561,3.981618,-1.014036
2026-03-04T18:50:28.818016,10.164710,-4.972285,2.158325,-7.645587,3.788585,-0.692721
2026-03-04T18:50:28.828016,8.575876,-6.522834,2.435893,-7.365811,3.611434,-0.359188
2026-03-04T18:50:28.838016,7.513462,-8.193024,0.378065,-7.367033,3.411070,0.316428
2026-03-04T18:50:28.847016,6.269195,-9.351150,-1.440479,-6.960197,3.284010,1.138652
2026-03-04T18:50:28.857016,4.790430,-9.920642,-3.833301,-6.288245,3.218037,1.736078
2026-03-04T18:50:28.866016,2.402393,-12.792029,-7.776673,-5.297422,2.828305,2.041511
2026-03-04T18:50:28.876016,-0.559920,-15.735201,-10.906485,-3.220480,1.809382,2.118480
2026-03-04T18:50:28.886016,-1.732403,-17.328821,-10.590632,-0.003665,0.251676,1.946216
2026-03-04T18:50:28.895016,0.516849,-15.582060,-8.202595,3.877771,-1.274264,1.626122
2026-03-04T18:50:28.905016,5.249852,-10.360921,-5.924628,7.582057,-2.166127,1.378111
2026-03-04T18:50:28.915016,9.427721,-2.995813,-4.823930,10.523983,-2.469116,1.235169
2026-03-04T18:50:28.924016,11.973684,4.153940,-4.795216,12.023047,-2.553416,1.150869
2026-03-04T18:50:28.934016,13.194023,9.734002,-3.072384,12.220967,-2.603507,1.111774
2026-03-04T18:50:28.943016,13.256237,13.304093,0.598205,10.739007,-2.570520,1.413541
2026-03-04T18:50:28.953016,12.586246,13.739587,2.775674,7.937581,-2.378708,1.973094
2026-03-04T18:50:28.963016,11.231909,13.337593,4.551148,5.237557,-2.006081,2.360382
2026-03-04T18:50:28.972016,9.839286,12.299108,5.039284,3.006678,-1.775174,2.443460
2026-03-04T18:50:28.982016,8.743373,10.820343,5.139782,1.632231,-1.723861,2.300518
2026-03-04T18:50:28.991016,8.173882,9.623932,5.345565,1.043357,-1.898568,2.096489
2026-03-04T18:50:29.001016,7.331608,8.145168,6.814758,1.125213,-2.059837,1.968207
2026-03-04T18:50:29.011016,7.747959,7.049255,9.973284,1.320690,-2.287078,1.734856
2026-03-04T18:50:29.020016,9.370293,6.872186,11.073982,1.629788,-1.987755,1.269377
2026-03-04T18:50:29.030016,10.432706,6.168696,8.681160,1.595579,-1.393994,1.005483
2026-03-04T18:50:29.040016,10.030712,6.714260,4.780859,1.396437,-0.713490,0.880867
2026-03-04T18:50:29.049016,10.222138,8.451449,-0.086141,0.463035,-0.671951,0.394618
2026-03-04T18:50:29.059016,11.294122,14.141581,-1.904686,0.864984,-1.038470,-0.641408
2026-03-04T18:50:29.068016,11.255837,23.038095,-1.732403,1.392772,-1.142317,-1.930333
2026-03-04T18:50:29.078016,11.667402,26.354548,1.799402,1.032362,-0.849102,-3.042108
2026-03-04T18:50:29.088016,12.356535,24.095722,7.685746,-1.172861,-0.537561,-3.353649
2026-03-04T18:50:29.097016,15.577275,16.175480,11.380264,-4.371350,-0.184481,-3.134959
2026-03-04T18:50:29.107016,17.271393,11.854043,10.973484,-6.676755,0.643851,-2.575407
2026-03-04T18:50:29.116016,16.419548,9.877571,7.824529,-8.498355,1.655444,-2.233322
2026-03-04T18:50:29.126016,15.682559,7.312465,6.068198,-10.377375,2.566855,-1.971872
2026-03-04T18:50:29.136016,14.955141,4.948357,3.096312,-12.092685,3.262019,-1.587027
2026-03-04T18:50:29.145016,14.155938,2.033899,-0.856630,-13.555096,3.866776,-0.978605
2026-03-04T18:50:29.155016,13.308879,-1.473978,-3.952942,-14.380986,4.459315,-0.394618
2026-03-04T18:50:29.165016,11.901899,-5.067998,-6.747759,-14.714518,5.001763,0.172263
2026-03-04T18:50:29.174016,10.336993,-8.853443,-11.083554,-14.792709,5.369503,0.956614
2026-03-04T18:50:29.184016,8.930013,-11.140982,-19.448862,-14.528815,5.539324,2.183231
2026-03-04T18:50:29.193016,2.804388,-12.011969,-29.187651,-12.382235,5.834983,2.406808
2026-03-04T18:50:29.203016,-11.169695,-23.440090,-29.259434,-8.560663,4.316372,1.163087
2026-03-04T18:50:29.213016,-20.788841,-36.198620,-24.713072,-1.637118,0.208915,-0.590095
2026-03-04T18:50:29.222016,-11.581261,-37.337605,-13.127024,6.013356,-4.267503,-0.763581
2026-03-04T18:50:29.232016,8.207381,-14.534004,-6.958328,14.625332,-5.828874,0.024434
2026-03-04T18:50:29.241016,18.568302,8.848657,-2.699103,20.704662,-6.710964,-0.806341
2026-03-04T18:50:29.251016,23.803799,14.313864,-5.867201,21.646616,-6.162407,-2.415360
2026-03-04T18:50:29.261016,26.928825,13.371092,-6.297909,19.260574,-6.310236,-1.328020
2026-03-04T18:50:29.270016,26.206194,16.357334,1.512263,17.281372,-4.765969,-0.162490
2026-03-04T18:50:29.280016,22.707886,16.266409,9.753144,13.595413,-2.233322,0.277332
2026-03-04T18:50:29.290016,18.113667,12.165110,14.907284,10.112261,0.316428,0.653625
2026-03-04T18:50:29.299016,11.858828,10.734202,14.251651,7.023727,1.902233,1.863138
2026-03-04T18:50:29.309016,5.742774,8.551947,9.901499,3.729942,2.324952,3.593108
2026-03-04T18:50:29.318016,2.895315,4.197010,4.005585,1.159421,1.973094,4.489858
2026-03-04T18:50:29.328016,2.096112,2.057827,-3.412165,0.096516,1.468519,4.596149
2026-03-04T18:50:29.338016,1.459621,4.077369,-12.902099,0.028099,0.381179,4.084244
2026-03-04T18:50:29.347016,1.359123,6.431907,-16.950754,0.772133,-1.666440,2.820975
2026-03-04T18:50:29.357016,4.335794,12.203395,-8.614161,2.229657,-4.120896,1.503949
2026-03-04T18:50:29.366016,8.346165,19.980068,-0.081355,4.053700,-5.417151,-0.042760
2026-03-04T18:50:29.376016,15.366706,22.291534,8.681160,4.293160,-5.389051,-1.139874
2026-03-04T18:50:29.386016,26.531616,21.377478,23.722443,3.595552,-3.130072,-1.395215
2026-03-04T18:50:29.395016,17.510675,24.071795,11.442477,-0.400727,0.368962,-0.871093
2026-03-04T18:50:29.405016,11.700902,18.396021,10.174281,-2.122145,2.384817,-1.346346
2026-03-04T18:50:29.415016,7.283751,16.898113,10.939984,-3.325549,2.680476,-1.973094
2026-03-04T18:50:29.424016,6.527620,14.141581,8.417949,-5.013980,2.469116,-2.691471
2026-03-04T18:50:29.434016,7.073183,10.236495,4.517649,-5.999917,2.212553,-3.323106
2026-03-04T18:50:29.443016,8.523234,7.594818,2.947957,-6.532591,1.966985,-3.518583
2026-03-04T18:50:29.453016,9.805787,5.637490,1.584048,-7.010288,1.806938,-3.453831
2026-03-04T18:50:29.463016,11.088339,3.196810,0.732203,-7.547849,1.953546,-3.251024
2026-03-04T18:50:29.472016,11.528619,0.181854,-1.426122,-8.464146,2.365269,-2.701245
2026-03-04T18:50:29.482016,10.944770,-2.612962,-5.709274,-9.343792,2.882061,-1.832595
2026-03-04T18:50:29.491016,9.265009,-4.737788,-10.025926,-9.770176,3.307223,-0.769690
2026-03-04T18:50:29.501016,5.656632,-7.518248,-14.304293,-9.790945,3.389079,0.144164
2026-03-04T18:50:29.511016,-1.028913,-12.418749,-16.419548,-8.662067,2.461786,0.547335
2026-03-04T18:50:29.520016,-7.786244,-19.391434,-13.237094,-6.070777,-0.041538,0.256563
2026-03-04T18:50:29.530016,-6.230910,-26.258835,-6.920042,-2.184453,-3.337766,-0.616973
2026-03-04T18:50:29.540016,8.992227,-27.460032,1.387837,3.583334,-5.187466,-1.271821
2026-03-04T18:50:29.549016,27.393032,-18.300306,11.815757,9.836150,-4.355468,-1.011592
2026-03-04T18:50:29.559016,31.278976,-6.029912,8.824729,12.401783,-2.645045,0.052534
2026-03-04T18:50:29.568016,24.464218,1.507478,-1.397408,13.474462,-1.578475,0.834441
2026-03-04T18:50:29.578016,18.434305,8.571090,2.038684,14.372434,-1.665218,1.362229
2026-03-04T18:50:29.588016,13.921441,14.218151,8.164310,14.030349,-1.468519,1.292590
2026-03-04T18:50:29.597016,12.308679,14.940784,12.031112,11.800692,-1.171639,1.204625
2026-03-04T18:50:29.607016,12.007183,15.165709,14.146367,9.079899,-0.432492,1.574810
2026-03-04T18:50:29.616016,10.068997,15.615560,13.466805,5.221674,0.735481,2.536311
2026-03-04T18:50:29.626016,8.523234,13.619946,8.671589,1.428202,2.247983,2.795318
2026-03-04T18:50:29.636016,4.766502,10.442277,-2.340180,-2.930930,3.079981,3.258354
2026-03-04T18:50:29.645016,4.173082,10.447063,-15.663416,-5.337739,2.327396,2.948035
2026-03-04T18:50:29.655016,1.215553,14.471791,-17.032110,-5.338961,0.463035,1.547932
2026-03-04T18:50:29.665016,1.909472,14.950355,-6.446264,-4.599814,-1.690874,-0.211359
2026-03-04T18:50:29.674016,5.216353,15.443277,2.589034,-3.936414,-2.816088,-0.987158
2026-03-04T18:50:29.684016,10.097711,13.557732,10.394421,-5.005429,-2.933374,-0.735481
2026-03-04T18:50:29.693016,18.673588,8.427521,20.477776,-5.557651,-1.132543,-0.790459
2026-03-04T18:50:29.703016,15.696916,8.145168,8.293523,-7.341376,1.756848,-0.663399
2026-03-04T18:50:29.713016,11.854043,2.589034,3.148954,-6.995627,3.433061,-0.904080
2026-03-04T18:50:29.722016,8.394021,3.421736,6.264409,-5.889961,3.714059,-1.249830
2026-03-04T18:50:29.732016,7.374679,1.751546,5.809773,-6.280915,3.424509,-1.588249
2026-03-04T18:50:29.741016,7.475177,-0.717846,1.813759,-6.338336,3.337766,-1.651779
2026-03-04T18:50:29.751016,7.800601,-2.239681,-1.938186,-6.241819,3.522248,-1.279151
2026-03-04T18:50:29.761016,6.049055,-4.048655,-6.154339,-6.261367,3.430618,-0.768468
2026-03-04T18:50:29.770016,4.354937,-6.159125,-9.509077,-5.792223,3.111746,-0.410501
2026-03-04T18:50:29.780016,1.555334,-8.379664,-10.456634,-4.704882,2.277305,-0.218689
2026-03-04T18:50:29.790016,-1.880758,-11.447263,-8.011170,-2.926043,0.706160,-0.156381
2026-03-04T18:50:29.799016,-1.416550,-14.629717,-3.986442,-0.839328,-1.382998,-0.086742
2026-03-04T18:50:29.809016,4.642075,-14.658431,-0.732203,2.164905,-3.044551,-0.020769
2026-03-04T18:50:29.818016,13.490733,-10.260423,4.737788,5.809326,-3.483152,-0.296880
2026-03-04T18:50:29.828016,20.688343,-7.561319,6.891329,8.450707,-2.845409,-0.717155
2026-03-04T18:50:29.838016,22.219749,-2.225325,4.632504,10.534979,-2.296852,0.070860
2026-03-04T18:50:29.847016,20.669201,4.297509,5.881557,11.732275,-2.012189,0.982271
2026-03-04T18:50:29.857016,14.950355,9.595218,7.570890,11.848339,-1.982868,1.694539
2026-03-04T18:50:29.866016,14.931213,11.140982,11.251051,10.389593,-2.074497,1.655444
2026-03-04T18:50:29.876016,13.232308,10.939984,12.404392,8.884422,-1.632231,1.624901
2026-03-04T18:50:29.886016,12.279965,10.537990,14.218151,6.938205,-1.004262,2.021963
2026-03-04T18:50:29.895016,9.217152,9.882357,12.648460,4.434880,-0.171042,2.664593
2026-03-04T18:50:29.905016,7.992027,9.346365,8.709874,2.013411,0.755029,2.740340
2026-03-04T18:50:29.915016,5.201996,7.259823,-0.425922,-0.852767,1.451415,2.917491
2026-03-04T18:50:29.924016,4.000799,8.910871,-11.059626,-2.025628,1.048244,2.527759
2026-03-04T18:50:29.934016,2.584248,14.404792,-13.380663,-2.028072,-0.349414,1.352455
2026-03-04T18:50:29.943016,4.168296,19.678574,-5.910271,-1.260825,-2.152688,-0.282219
2026-03-04T18:50:29.953016,7.250252,21.477976,3.000599,-0.994488,-2.861292,-1.640783
2026-03-04T18:50:29.963016,14.002797,16.098909,14.830714,-2.141693,-2.381152,-1.996307
2026-03-04T18:50:29.972016,18.118452,11.581261,15.998411,-4.147774,0.056199,-1.677435
2026-03-04T18:50:29.982016,13.127024,6.159125,5.862415,-5.583307,2.145358,-1.331685
2026-03-04T18:50:29.991016,9.178867,2.823530,7.676174,-4.908912,2.995682,-1.637118
2026-03-04T18:50:30.001016,7.326822,1.660618,8.800801,-4.689000,2.692693,-2.091602
2026-03-04T18:50:30.011016,7.977670,-0.143569,5.211567,-4.527732,2.405586,-2.513099
2026-03-04T18:50:30.020016,9.083154,-1.095912,4.316651,-3.786141,2.334726,-2.708575
2026-03-04T18:50:30.030016,9.609575,-1.411765,3.948157,-3.633425,2.423912,-2.577850
2026-03-04T18:50:30.040016,9.083154,-2.522035,0.454636,-4.155104,2.500881,-2.166127
2026-03-04T18:50:30.049016,7.838886,-3.622733,-2.943171,-4.642574,2.550972,-1.604131
2026-03-04T18:50:30.059016,5.757131,-5.168496,-6.326622,-5.319413,2.412917,-0.816115
2026-03-04T18:50:30.068016,2.187039,-7.518248,-10.418349,-5.523442,1.738522,0.046425
2026-03-04T18:50:30.078016,-1.976471,-10.351350,-10.734202,-4.555831,0.249232,0.465479
2026-03-04T18:50:30.088016,-0.387637,-13.629517,-4.809573,-2.002415,-1.897347,0.268780
2026-03-04T18:50:30.097016,11.088339,-15.328421,4.910071,1.502728,-3.209485,-0.040317
2026-03-04T18:50:30.107016,20.812771,-12.715459,9.753144,4.717100,-2.542420,0.160046
2026-03-04T18:50:30.116016,18.252451,-6.790830,5.412564,6.857571,-1.453858,0.817337
2026-03-04T18:50:30.126016,14.955141,-0.368494,6.527620,8.668175,-1.446528,1.237612
2026-03-04T18:50:30.136016,14.041083,4.622933,9.868000,8.980938,-1.893681,1.271821
2026-03-04T18:50:30.145016,14.179866,6.853043,10.853843,7.942468,-1.918116,1.226617
2026-03-04T18:50:30.155016,13.758729,8.370093,12.150753,6.582682,-1.414763,1.326799
2026-03-04T18:50:30.165016,12.179467,9.628718,13.682159,4.735426,-0.713490,1.617570
2026-03-04T18:50:30.174016,9.451649,8.513662,11.289337,2.152688,0.029321,2.153910
2026-03-04T18:50:30.184016,7.838886,7.101897,7.221538,0.296880,0.629191,2.354274
2026-03-04T18:50:30.193016,6.173482,5.565705,1.756331,-1.199739,1.154535,2.437351
2026-03-04T18:50:30.203016,4.795216,3.608376,-5.867201,-2.465451,1.150869,2.516764
2026-03-04T18:50:30.213016,3.646661,6.264409,-11.418549,-2.262644,0.592539,2.037846
2026-03-04T18:50:30.222016,3.096312,8.173882,-10.743773,-1.731191,-0.717155,1.081231
2026-03-04T18:50:30.232016,6.958328,8.489734,0.334995,-0.345749,-2.007302,-0.045204
2026-03-04T18:50:30.241016,15.725630,8.475377,12.997812,1.031140,-1.717752,-1.020144
2026-03-04T18:50:30.251016,14.337793,10.030712,8.977870,0.023212,-0.100181,-0.895528
2026-03-04T18:50:30.261016,9.604789,10.011569,10.054640,0.118507,1.062905,-0.736703
2026-03-04T18:50:30.270016,6.541976,12.007183,14.486148,-0.453261,1.082452,-0.842993
2026-03-04T18:50:30.280016,7.853243,12.198609,13.686945,-1.984089,1.029918,-1.303586
2026-03-04T18:50:30.290016,10.112068,10.657631,11.461620,-3.235141,1.402546,-1.836260
2026-03-04T18:50:30.299016,11.447263,9.135796,10.494919,-3.971844,2.007302,-2.249205
2026-03-04T18:50:30.309016,11.408978,7.077969,8.456235,-4.686557,2.483777,-2.461786
2026-03-04T18:50:30.318016,10.504491,4.924428,5.369493,-5.018867,2.785544,-2.549750
2026-03-04T18:50:30.328016,9.566504,3.316452,3.895515,-5.042080,2.922378,-2.510655
2026-03-04T18:50:30.338016,8.834301,1.435693,2.115255,-5.313305,2.939482,-2.323730
2026-03-04T18:50:30.347016,8.781658,-1.670190,-0.674775,-6.054894,2.890613,-1.803273
2026-03-04T18:50:30.357016,8.207381,-4.733003,-6.924828,-7.073817,2.879618,-0.805120
2026-03-04T18:50:30.366016,6.288337,-7.336394,-13.404592,-7.417124,2.871066,0.338419
2026-03-04T18:50:30.376016,-1.765903,-8.829515,-19.932213,-6.579017,2.234544,1.011592
2026-03-04T18:50:30.386016,-8.796015,-14.041083,-17.367105,-3.991392,-0.516791,0.686612
2026-03-04T18:50:30.395016,-3.943371,-18.046667,-6.503691,0.080634,-4.105013,0.186924
2026-03-04T18:50:30.405016,17.812172,-19.104296,12.658031,5.304752,-5.633397,-0.202807
2026-03-04T18:50:30.415016,28.316662,-10.872985,15.031711,8.589985,-3.475822,0.172263
2026-03-04T18:50:30.424016,20.142780,-1.770688,4.359722,10.228325,-1.810604,1.040914
2026-03-04T18:50:30.434016,14.117653,6.632904,6.192624,11.942412,-2.004859,1.116661
2026-03-04T18:50:30.443016,13.777872,11.093125,12.830314,11.063988,-2.792875,0.864984
2026-03-04T18:50:30.453016,13.495519,11.964113,13.667802,8.660845,-2.591289,0.656069
2026-03-04T18:50:30.463016,12.078968,12.284751,16.510475,6.553360,-1.760513,0.863763
2026-03-04T18:50:30.472016,9.207581,14.088939,20.128424,4.002388,-0.620638,1.557706
2026-03-04T18:50:30.482016,7.661817,13.581661,17.577675,0.839328,0.629191,1.764178
2026-03-04T18:50:30.491016,5.962913,10.169496,9.628718,-2.139249,1.860695,1.618792
2026-03-04T18:50:30.501016,4.134797,7.709674,-0.344566,-4.158769,2.638937,1.808160
2026-03-04T18:50:30.511016,2.273181,9.915856,-12.882956,-5.661497,2.521651,1.943772
2026-03-04T18:50:30.520016,-0.961914,11.897113,-22.707886,-6.295575,1.142317,0.807563
2026-03-04T18:50:30.530016,0.110069,10.317851,-12.270394,-5.298644,-1.342681,-0.759916
