Timestamp,Acceleration_X,Acceleration_Y,Acceleration_Z,Gyro_X,Gyro_Y,Gyro_Z
2026-01-24T18:32:33.985583,10.518848,-2.928814,-0.607776,-0.882089,-0.051312,-0.195476
2026-01-24T18:32:33.995583,10.432706,-2.742174,-0.607776,-0.851545,-0.013439,-0.037873
2026-01-24T18:32:34.004583,10.341779,-2.665604,-0.631705,-0.801455,0.026878,0.064751
2026-01-24T18:32:34.014583,10.217352,-2.756531,-0.684347,-0.772133,0.075747,0.151494
2026-01-24T18:32:34.023583,9.997212,-2.981456,-0.607776,-0.685390,0.127059,0.267558
2026-01-24T18:32:34.033583,9.724431,-2.876172,-0.531206,-0.551000,0.163711,0.370184
2026-01-24T18:32:34.043583,9.580861,-2.641676,-0.440279,-0.443488,0.175929,0.458148
2026-01-24T18:32:34.052583,9.413364,-2.431107,-0.354137,-0.389731,0.182037,0.543669
2026-01-24T18:32:34.062583,9.312865,-2.225325,-0.440279,-0.370184,0.182037,0.626747
2026-01-24T18:32:34.072583,9.245866,-2.091326,-0.440279,-0.355523,0.172263,0.704938
2026-01-24T18:32:34.081583,9.169296,-2.005185,-0.339780,-0.334754,0.152716,0.778242
2026-01-24T18:32:34.091583,9.078368,-1.875972,-0.311066,-0.326201,0.124616,0.841772
2026-01-24T18:32:34.100583,8.997012,-1.785045,-0.162711,-0.331088,0.096516,0.895528
2026-01-24T18:32:34.110583,8.877371,-1.751546,-0.062213,-0.340862,0.056199,0.944397
2026-01-24T18:32:34.120583,8.810372,-1.670190,0.086141,-0.332310,0.001221,0.994488
2026-01-24T18:32:34.129583,8.805587,-1.488335,0.263210,-0.293215,-0.051312,1.037248
2026-01-24T18:32:34.139583,8.786444,-1.363908,0.287138,-0.282219,-0.098960,1.082452
2026-01-24T18:32:34.148583,8.772087,-1.464407,0.526420,-0.289550,-0.139277,1.127656
2026-01-24T18:32:34.158583,8.839086,-1.607976,0.660419,-0.261450,-0.179594,1.160643
2026-01-24T18:32:34.168583,8.973084,-1.703689,0.732203,-0.215024,-0.211359,1.180191
2026-01-24T18:32:34.177583,9.011369,-1.842473,0.775274,-0.163711,-0.222354,1.176526
2026-01-24T18:32:34.187583,9.097511,-2.076970,1.014556,-0.095294,-0.244346,1.154535
2026-01-24T18:32:34.197583,9.260223,-2.134397,1.091127,0.026878,-0.278554,1.116661
2026-01-24T18:32:34.206583,9.542576,-1.947757,1.344766,0.188146,-0.318871,1.080009
2026-01-24T18:32:34.216583,9.987641,-1.497906,1.464407,0.332310,-0.351858,1.054353
2026-01-24T18:32:34.225583,10.360921,-1.004985,1.622333,0.438601,-0.384845,1.023809
2026-01-24T18:32:34.235583,10.738987,-0.823130,1.914258,0.509461,-0.411723,0.993266
2026-01-24T18:32:34.245583,10.973484,-0.760917,2.096112,0.577878,-0.423940,0.971275
2026-01-24T18:32:34.254583,11.294122,-0.760917,2.148754,0.679282,-0.425162,0.952949
2026-01-24T18:32:34.264583,11.251051,-0.847059,2.148754,0.775798,-0.423940,0.946840
2026-01-24T18:32:34.273583,11.294122,-0.947557,2.416750,0.816115,-0.401949,0.939510
2026-01-24T18:32:34.283583,11.327622,-1.024128,2.813959,0.839328,-0.360410,0.901636
2026-01-24T18:32:34.293583,11.265408,-0.861416,3.058027,0.861319,-0.309097,0.858876
2026-01-24T18:32:34.302583,11.231909,-0.421136,3.263810,0.856432,-0.255341,0.833220
2026-01-24T18:32:34.312583,11.265408,0.224925,3.402593,0.819780,-0.221133,0.835663
2026-01-24T18:32:34.322583,11.313265,0.818345,3.383451,0.735481,-0.206472,0.858876
2026-01-24T18:32:34.331583,11.361121,1.019342,3.378665,0.560774,-0.193033,0.905302
2026-01-24T18:32:34.341583,11.073982,0.885344,3.503092,0.372627,-0.178372,0.998153
2026-01-24T18:32:34.350583,10.959127,0.430708,3.713660,0.210137,-0.218689,1.123991
2026-01-24T18:32:34.360583,10.863414,0.186640,3.847658,0.206472,-0.256563,1.209512
2026-01-24T18:32:34.370583,10.633703,0.267996,3.852444,0.218689,-0.277332,1.260825
2026-01-24T18:32:34.379583,11.174481,0.066999,3.675375,0.131946,-0.272445,1.284038
2026-01-24T18:32:34.389583,11.064411,0.071784,3.972085,0.251676,-0.240680,1.307251
2026-01-24T18:32:34.398583,11.131410,0.646062,4.565505,0.498465,-0.248011,1.263269
2026-01-24T18:32:34.408583,11.164910,1.674975,4.938785,0.730594,-0.163711,1.167974
2026-01-24T18:32:34.418583,12.016755,3.244667,6.455835,1.017701,-0.076969,1.017701
2026-01-24T18:32:34.427583,12.461820,5.091926,6.776473,1.393994,0.090408,0.777020
2026-01-24T18:32:34.437583,12.098111,8.341379,7.972884,1.839925,0.259006,0.426383
2026-01-24T18:32:34.447583,11.581261,10.882557,7.824529,1.893681,0.228463,0.036651
2026-01-24T18:32:34.456583,11.901899,11.117053,6.704688,1.198517,0.122173,-0.228463
2026-01-24T18:32:34.466583,11.619546,8.049455,4.804787,0.317649,0.098960,-0.415388
2026-01-24T18:32:34.475583,10.700702,3.957728,4.225724,-0.205250,0.059864,-0.548556
2026-01-24T18:32:34.485583,10.040283,0.789631,4.029513,-0.224798,-0.059864,-0.640186
2026-01-24T18:32:34.495583,10.054640,-0.756131,3.527020,0.009773,-0.200363,-0.724486
2026-01-24T18:32:34.504583,10.628917,-1.497906,2.995813,0.232128,-0.287106,-0.819780
2026-01-24T18:32:34.514583,11.002198,-1.741974,2.555534,0.373849,-0.279776,-0.922406
2026-01-24T18:32:34.523583,11.078768,-2.148754,2.143969,0.426383,-0.234572,-0.998153
2026-01-24T18:32:34.533583,10.729416,-2.402393,1.875972,0.485026,-0.153938,-1.054353
2026-01-24T18:32:34.543583,10.231709,-2.215753,1.861615,0.568104,-0.078190,-1.053131
2026-01-24T18:32:34.552583,9.786644,-1.775474,1.579262,0.593760,-0.032986,-1.009149
2026-01-24T18:32:34.562583,9.379864,-1.339980,1.378265,0.522900,-0.006108,-0.929736
2026-01-24T18:32:34.572583,9.188438,-1.253839,1.368694,0.332310,0.026878,-0.797789
2026-01-24T18:32:34.581583,9.001798,-1.493121,1.445264,0.096516,0.069638,-0.636521
2026-01-24T18:32:34.591583,8.724231,-2.038684,1.765903,-0.076969,0.090408,-0.487470
2026-01-24T18:32:34.600583,8.561519,-2.646461,1.952543,-0.168598,0.062308,-0.353080
2026-01-24T18:32:34.610583,8.580661,-3.134597,1.909472,-0.201585,0.021991,-0.246789
2026-01-24T18:32:34.620583,8.537591,-3.531806,1.823330,-0.158824,0.001221,-0.156381
2026-01-24T18:32:34.629583,8.365307,-3.684946,1.942971,-0.043982,-0.002443,-0.084299
2026-01-24T18:32:34.639583,8.092526,-3.680161,1.871187,0.105068,-0.009773,-0.037873
2026-01-24T18:32:34.648583,7.829315,-3.522234,1.875972,0.228463,-0.009773,0.010995
2026-01-24T18:32:34.658583,7.637889,-3.536591,1.909472,0.323758,0.001221,0.056199
2026-01-24T18:32:34.668583,7.293323,-3.464807,1.938186,0.442266,0.024434,0.100181
2026-01-24T18:32:34.677583,6.977470,-3.354737,1.947757,0.596204,0.024434,0.131946
2026-01-24T18:32:34.687583,6.867400,-3.192025,1.966900,0.720820,0.009773,0.146607
2026-01-24T18:32:34.697583,7.006184,-3.297309,1.933400,0.800233,0.012217,0.128281
2026-01-24T18:32:34.706583,6.991827,-3.646661,1.823330,0.880867,0.031764,0.097738
2026-01-24T18:32:34.716583,7.130611,-3.881158,1.928615,1.031140,0.039095,0.069638
2026-01-24T18:32:34.725583,7.068397,-3.613162,1.938186,1.254716,0.019547,0.036651
2026-01-24T18:32:34.735583,7.178467,-3.115455,1.957328,1.430646,-0.019547,0.009773
2026-01-24T18:32:34.745583,7.211967,-2.574677,1.976471,1.507615,-0.057421,0.003665
2026-01-24T18:32:34.754583,7.379464,-2.062613,2.005185,1.502728,-0.101403,0.026878
2026-01-24T18:32:34.764583,7.652246,-1.823330,1.990828,1.461189,-0.156381,0.064751
2026-01-24T18:32:34.773583,7.972884,-1.660618,1.923829,1.390328,-0.207694,0.118507
2026-01-24T18:32:34.783583,8.456235,-1.651047,1.837687,1.302364,-0.233350,0.177150
2026-01-24T18:32:34.793583,8.743373,-1.880758,1.780260,1.199739,-0.229685,0.237015
2026-01-24T18:32:34.802583,9.016155,-2.244467,1.789831,1.136209,-0.230907,0.294436
2026-01-24T18:32:34.812583,9.394221,-2.483749,1.751546,1.150869,-0.235793,0.333532
2026-01-24T18:32:34.822583,9.915856,-2.627319,1.607976,1.215621,-0.211359,0.436157
2026-01-24T18:32:34.831583,9.705288,-1.904686,1.373480,1.323133,-0.243124,0.439822
2026-01-24T18:32:34.841583,10.006784,-1.440479,1.622333,1.302364,-0.248011,0.558330
2026-01-24T18:32:34.850583,10.183852,-0.971485,1.387837,1.246164,-0.271224,0.629191
2026-01-24T18:32:34.860583,10.083354,-0.133998,1.287338,1.138652,-0.306654,0.839328
2026-01-24T18:32:34.870583,10.427920,0.693918,1.253839,0.928514,-0.366519,0.990823
2026-01-24T18:32:34.879583,10.959127,0.751346,0.847059,0.566882,-0.335975,1.084896
2026-01-24T18:32:34.889583,10.849057,0.301495,0.813559,0.280997,-0.301767,1.196073
2026-01-24T18:32:34.898583,10.499705,-0.215354,0.856630,0.122173,-0.268780,1.221730
2026-01-24T18:32:34.908583,10.384850,-0.909272,0.937986,0.058643,-0.301767,1.183856
2026-01-24T18:32:34.918583,10.360921,-1.646261,0.827916,0.153938,-0.353080,1.119104
2026-01-24T18:32:34.927583,9.824929,-1.497906,1.383051,0.445931,-0.410501,1.098335
2026-01-24T18:32:34.937583,10.571490,-2.005185,0.215354,0.616973,-0.465479,1.023809
2026-01-24T18:32:34.947583,10.796415,-1.828116,0.133998,0.872315,-0.388510,1.014036
2026-01-24T18:32:34.956583,10.380064,-1.048056,0.277567,1.215621,-0.368962,0.998153
2026-01-24T18:32:34.966583,9.485148,-0.177068,0.349352,1.285260,-0.379958,0.915075
2026-01-24T18:32:34.975583,9.944570,-0.837487,-0.100498,1.048244,-0.437379,0.912632
2026-01-24T18:32:34.985583,9.643075,-1.119840,0.186640,1.031140,-0.408057,0.868650
2026-01-24T18:32:34.995583,9.657432,-1.622333,-0.105284,0.981049,-0.432492,0.759916
2026-01-24T18:32:35.004583,9.341579,-2.435893,-0.033499,0.995710,-0.397062,0.675616
2026-01-24T18:32:35.014583,8.982656,-2.301895,0.157926,1.276708,-0.426383,0.581543
2026-01-24T18:32:35.023583,9.011369,-2.244467,-0.019142,1.353677,-0.465479,0.485026
2026-01-24T18:32:35.033583,8.561519,-1.588834,0.713061,1.423315,-0.514348,0.434935
2026-01-24T18:32:35.043583,8.743373,-2.153540,-0.196211,1.313359,-0.530230,0.335975
2026-01-24T18:32:35.052583,8.307880,-2.029113,0.885344,1.308473,-0.507018,0.346971
2026-01-24T18:32:35.062583,7.786244,-1.713260,0.258424,1.343903,-0.557108,0.305432
2026-01-24T18:32:35.072583,8.193024,-1.703689,0.282353,1.136209,-0.548556,0.302989
2026-01-24T18:32:35.081583,7.915457,-2.100898,0.114855,0.950506,-0.480139,0.350636
2026-01-24T18:32:35.091583,7.484749,-2.297109,0.468993,0.886976,-0.465479,0.388510
2026-01-24T18:32:35.100583,7.030112,-2.330609,0.464207,0.864984,-0.472809,0.428827
2026-01-24T18:32:35.110583,7.034898,-2.498106,0.473778,0.761137,-0.508239,0.444709
2026-01-24T18:32:35.120583,7.312465,-3.072384,0.071784,0.715933,-0.510683,0.428827
2026-01-24T18:32:35.129583,7.647461,-3.440878,0.028713,0.763581,-0.453261,0.408057
2026-01-24T18:32:35.139583,7.628318,-3.962514,0.023928,0.858876,-0.383623,0.406836
2026-01-24T18:32:35.148583,7.451249,-4.106083,0.095712,1.006705,-0.337197,0.378736
2026-01-24T18:32:35.158583,7.494320,-4.063012,0.320638,1.141096,-0.345749,0.313984
2026-01-24T18:32:35.168583,7.561319,-4.153940,0.282353,1.265712,-0.372627,0.238237
2026-01-24T18:32:35.177583,7.690531,-4.134797,0.339780,1.397659,-0.401949,0.156381
2026-01-24T18:32:35.187583,7.853243,-4.000799,0.315852,1.512502,-0.425162,0.079412
2026-01-24T18:32:35.197583,8.169096,-3.862015,0.277567,1.615127,-0.448374,-0.007330
2026-01-24T18:32:35.206583,8.312665,-3.818944,0.071784,1.687209,-0.475253,-0.094073
2026-01-24T18:32:35.216583,8.781658,-3.756731,-0.153140,1.734856,-0.499687,-0.173485
2026-01-24T18:32:35.225583,9.198010,-3.780659,-0.406779,1.760513,-0.493579,-0.259006
2026-01-24T18:32:35.235583,9.590432,-3.914657,-0.488135,1.736078,-0.467922,-0.345749
2026-01-24T18:32:35.245583,10.198209,-4.235296,-0.512064,1.689652,-0.436157,-0.434935
2026-01-24T18:32:35.254583,10.490134,-4.551148,-0.267996,1.705535,-0.392175,-0.529009
2026-01-24T18:32:35.264583,10.700702,-4.512863,-0.200997,1.825264,-0.376292,-0.603534
2026-01-24T18:32:35.273583,10.892128,-4.110869,0.014356,1.977981,-0.383623,-0.664621
2026-01-24T18:32:35.283583,10.753344,-3.412165,0.258424,2.069610,-0.388510,-0.659734
2026-01-24T18:32:35.293583,10.638489,-2.732603,0.368494,2.025628,-0.412944,-0.604756
2026-01-24T18:32:35.302583,10.547562,-2.244467,0.435493,1.868025,-0.428827,-0.530230
2026-01-24T18:32:35.312583,10.351350,-1.966900,0.569491,1.645670,-0.426383,-0.415388
2026-01-24T18:32:35.322583,10.207781,-1.971685,0.521635,1.397659,-0.427605,-0.283441
2026-01-24T18:32:35.331583,10.035497,-1.981257,0.559920,1.165530,-0.426383,-0.150272
2026-01-24T18:32:35.341583,9.757930,-2.062613,0.765703,0.907745,-0.427605,-0.023212
2026-01-24T18:32:35.350583,10.078568,-2.474178,0.545563,0.658512,-0.449596,0.064751
2026-01-24T18:32:35.360583,10.451849,-3.048455,0.143569,0.513126,-0.415388,0.087964
2026-01-24T18:32:35.370583,10.001998,-3.354737,0.191425,0.389731,-0.305432,0.092851
2026-01-24T18:32:35.379583,9.781858,-3.493520,0.646062,0.345749,-0.246789,0.065973
2026-01-24T18:32:35.389583,10.059426,-3.627519,0.622133,0.426383,-0.246789,0.020769
2026-01-24T18:32:35.398583,10.135996,-3.249453,0.622133,0.583987,-0.212581,0.004886
2026-01-24T18:32:35.408583,9.777073,-2.641676,0.813559,0.723264,-0.172263,0.021991
2026-01-24T18:32:35.418583,9.418149,-2.249253,1.158126,0.764803,-0.188146,0.062308
2026-01-24T18:32:35.427583,9.375078,-2.081755,1.119840,0.742811,-0.235793,0.128281
2026-01-24T18:32:35.437583,9.279366,-2.014756,1.052841,0.703716,-0.265115,0.188146
2026-01-24T18:32:35.447583,9.164510,-1.995614,0.875773,0.627969,-0.274889,0.221133
2026-01-24T18:32:35.456583,9.035298,-1.914258,0.914058,0.544891,-0.272445,0.239459
2026-01-24T18:32:35.466583,8.958727,-1.794616,0.727418,0.437379,-0.268780,0.240680
2026-01-24T18:32:35.475583,8.891728,-1.718046,0.674775,0.322536,-0.243124,0.227241
2026-01-24T18:32:35.485583,8.776873,-1.842473,0.564706,0.179594,-0.202807,0.221133
2026-01-24T18:32:35.495583,8.662017,-1.966900,0.732203,0.068416,-0.146607,0.202807
2026-01-24T18:32:35.504583,8.437092,-1.895115,0.856630,0.029321,-0.094073,0.164933
2026-01-24T18:32:35.514583,8.135596,-1.785045,1.009771,0.019547,-0.075747,0.151494
2026-01-24T18:32:35.523583,7.829315,-1.526620,1.186840,0.006108,-0.090408,0.155159
2026-01-24T18:32:35.533583,7.609175,-1.263410,1.186840,-0.043982,-0.131946,0.163711
2026-01-24T18:32:35.543583,7.537391,-1.119840,1.205982,-0.138055,-0.193033,0.175929
2026-01-24T18:32:35.552583,7.575676,-1.325623,1.143769,-0.257785,-0.265115,0.172263
2026-01-24T18:32:35.562583,7.637889,-1.564905,0.966700,-0.350636,-0.332310,0.133168
2026-01-24T18:32:35.572583,7.733602,-1.804188,0.914058,-0.387288,-0.405614,0.067195
2026-01-24T18:32:35.581583,7.824529,-1.914258,0.899701,-0.377514,-0.486248,-0.028099
2026-01-24T18:32:35.591583,7.824529,-2.053041,0.808774,-0.323758,-0.568104,-0.131946
2026-01-24T18:32:35.600583,7.795816,-1.995614,0.799202,-0.261450,-0.669508,-0.213802
2026-01-24T18:32:35.610583,7.877171,-1.852044,0.765703,-0.228463,-0.770911,-0.273667
2026-01-24T18:32:35.620583,8.006384,-1.694118,0.555134,-0.234572,-0.855211,-0.324980
2026-01-24T18:32:35.629583,8.226524,-1.603191,0.473778,-0.294436,-0.907745,-0.348193
2026-01-24T18:32:35.639583,8.350950,-1.761117,0.186640,-0.371405,-0.929736,-0.364075
2026-01-24T18:32:35.648583,8.494520,-1.808973,0.014356,-0.409279,-0.933401,-0.376292
2026-01-24T18:32:35.658583,8.638089,-2.148754,-0.124426,-0.485026,-0.907745,-0.360410
2026-01-24T18:32:35.668583,8.819944,-2.804388,-0.172283,-0.547335,-0.831998,-0.370184
2026-01-24T18:32:35.677583,8.786444,-3.201596,-0.181854,-0.476474,-0.739146,-0.399505
2026-01-24T18:32:35.687583,8.690731,-3.326023,0.033499,-0.313984,-0.658512,-0.430049
2026-01-24T18:32:35.697583,8.642875,-3.110669,0.023928,-0.120951,-0.594982,-0.464257
2026-01-24T18:32:35.706583,8.451449,-2.790031,0.172283,0.065973,-0.549778,-0.498465
2026-01-24T18:32:35.716583,8.260023,-2.589034,0.330209,0.197920,-0.526565,-0.516791
2026-01-24T18:32:35.725583,8.231309,-2.483749,0.368494,0.331088,-0.508239,-0.530230
2026-01-24T18:32:35.735583,8.135596,-2.196611,0.234496,0.489913,-0.499687,-0.543669
2026-01-24T18:32:35.745583,8.312665,-1.909472,0.100498,0.630412,-0.474031,-0.532674
2026-01-24T18:32:35.754583,8.599804,-1.521835,-0.081355,0.722042,-0.416610,-0.518013
2026-01-24T18:32:35.764583,8.977870,-1.344766,-0.157926,0.788015,-0.290771,-0.476474
2026-01-24T18:32:35.773583,9.207581,-1.263410,-0.124426,0.773355,-0.123394,-0.444709
2026-01-24T18:32:35.783583,9.442077,-1.416550,-0.215354,0.747698,0.084299,-0.459370
2026-01-24T18:32:35.793583,9.456434,-1.339980,0.004785,0.769690,0.284663,-0.502131
2026-01-24T18:32:35.802583,9.245866,-1.182054,0.210568,0.800233,0.443488,-0.547335
2026-01-24T18:32:35.812583,8.934799,-0.679561,0.435493,0.818559,0.560774,-0.572991
2026-01-24T18:32:35.822583,8.776873,-0.148355,0.708275,0.789237,0.630412,-0.557108
2026-01-24T18:32:35.831583,8.575876,-0.014356,0.985842,0.697607,0.658512,-0.496022
2026-01-24T18:32:35.841583,8.427521,0.315852,1.110269,0.649960,0.663399,-0.387288
2026-01-24T18:32:35.850583,8.307880,0.535992,1.292124,0.536339,0.608421,-0.263893
2026-01-24T18:32:35.860583,8.331808,0.425922,1.450050,0.371405,0.532674,-0.217467
2026-01-24T18:32:35.870583,8.183453,0.220139,1.450050,0.251676,0.425162,-0.224798
2026-01-24T18:32:35.879583,8.197810,-0.124426,1.292124,0.177150,0.326201,-0.230907
2026-01-24T18:32:35.889583,8.599804,-0.669990,0.909272,0.112399,0.252898,-0.230907
2026-01-24T18:32:35.898583,9.044869,-1.239482,0.646062,0.047647,0.244346,-0.290771
2026-01-24T18:32:35.908583,9.523433,-1.808973,0.277567,0.034208,0.271224,-0.415388
2026-01-24T18:32:35.918583,9.686145,-1.909472,0.095712,0.125838,0.335975,-0.560774
2026-01-24T18:32:35.927583,9.643075,-1.493121,-0.038285,0.279776,0.426383,-0.613308
2026-01-24T18:32:35.937583,9.609575,-0.894915,-0.095712,0.324980,0.530230,-0.603534
2026-01-24T18:32:35.947583,9.183653,-0.301495,0.440279,0.228463,0.623082,-0.574213
2026-01-24T18:32:35.956583,8.566304,-0.215354,0.861416,0.085521,0.651182,-0.504574
2026-01-24T18:32:35.966583,8.130811,-0.224925,1.162911,-0.087964,0.586430,-0.455705
2026-01-24T18:32:35.975583,8.269594,-0.378065,1.430907,-0.307876,0.436157,-0.471587
2026-01-24T18:32:35.985583,9.432506,-1.024128,1.354337,-0.390953,0.233350,-0.487470
2026-01-24T18:32:35.995583,10.863414,-1.885544,0.981057,-0.305432,0.097738,-0.497244
2026-01-24T18:32:36.004583,11.868400,-2.914457,0.579063,-0.125838,0.074525,-0.547335
2026-01-24T18:32:36.014583,12.145967,-3.747160,0.765703,0.215024,0.179594,-0.610865
2026-01-24T18:32:36.023583,11.801401,-3.842873,1.282552,0.761137,0.282219,-0.649960
2026-01-24T18:32:36.033583,11.150553,-2.780459,1.722832,1.263269,0.328645,-0.675616
2026-01-24T18:32:36.043583,10.901699,-1.493121,2.277967,1.517388,0.306654,-0.637743
2026-01-24T18:32:36.052583,10.997412,-0.258424,2.325823,1.529606,0.261450,-0.531452
2026-01-24T18:32:36.062583,11.318050,0.655633,2.249253,1.330464,0.255341,-0.427605
2026-01-24T18:32:36.072583,11.509476,0.966700,2.062613,0.968832,0.285884,-0.332310
2026-01-24T18:32:36.081583,11.681759,0.646062,2.182254,0.596204,0.368962,-0.208915
2026-01-24T18:32:36.091583,11.365907,-0.052642,2.330609,0.353080,0.470366,-0.085521
2026-01-24T18:32:36.100583,10.767701,-0.559920,2.766102,0.267558,0.581543,0.008552
2026-01-24T18:32:36.110583,10.183852,-0.847059,3.512663,0.388510,0.657290,0.074525
2026-01-24T18:32:36.120583,9.595218,-0.607776,4.125226,0.614530,0.640186,0.092851
2026-01-24T18:32:36.129583,9.250652,-0.095712,4.474578,0.780685,0.555887,0.065973
2026-01-24T18:32:36.139583,9.111868,0.636490,4.436293,0.834441,0.428827,0.036651
2026-01-24T18:32:36.148583,9.121439,1.383051,4.168296,0.799011,0.309097,0.050090
2026-01-24T18:32:36.158583,9.207581,1.919043,3.914657,0.629191,0.250454,0.087964
2026-01-24T18:32:36.168583,9.174081,1.957328,3.871586,0.338419,0.272445,0.135612
2026-01-24T18:32:36.177583,9.140582,1.684547,3.943371,0.034208,0.322536,0.194255
2026-01-24T18:32:36.187583,9.054440,1.124626,4.359722,-0.208915,0.354301,0.239459
2026-01-24T18:32:36.197583,8.815158,0.765703,4.417150,-0.360410,0.334754,0.289550
2026-01-24T18:32:36.206583,8.657232,0.545563,4.259224,-0.459370,0.272445,0.343306
2026-01-24T18:32:36.216583,8.695517,0.191425,4.201796,-0.587652,0.221133,0.410501
2026-01-24T18:32:36.225583,9.016155,-0.445065,4.144368,-0.733038,0.135612,0.487470
2026-01-24T18:32:36.235583,9.317651,-1.000199,3.924229,-0.821002,0.051312,0.503352
2026-01-24T18:32:36.245583,9.700502,-1.392622,3.684946,-0.831998,-0.048869,0.521678
2026-01-24T18:32:36.254583,9.700502,-1.454836,3.359522,-0.772133,-0.166155,0.581543
2026-01-24T18:32:36.264583,9.705288,-1.339980,3.067598,-0.752585,-0.255341,0.658512
2026-01-24T18:32:36.273583,9.600004,-1.435693,2.833101,-0.869871,-0.327423,0.733038
2026-01-24T18:32:36.283583,9.657432,-1.785045,2.411965,-1.072679,-0.373849,0.768468
2026-01-24T18:32:36.293583,9.848857,-2.282752,2.067398,-1.214399,-0.426383,0.734259
2026-01-24T18:32:36.302583,10.164710,-2.904886,1.411765,-1.216843,-0.472809,0.654847
2026-01-24T18:32:36.312583,10.906485,-3.388236,0.612562,-1.042135,-0.507018,0.594982
2026-01-24T18:32:36.322583,11.887542,-3.613162,0.291924,-0.718377,-0.433714,0.559552
2026-01-24T18:32:36.331583,12.437891,-3.450450,-0.062213,-0.379958,-0.283441,0.526565
2026-01-24T18:32:36.341583,12.782458,-3.608376,-0.052642,-0.156381,-0.096516,0.481361
2026-01-24T18:32:36.350583,12.643674,-3.967299,0.028713,-0.069638,0.084299,0.417831
2026-01-24T18:32:36.360583,12.361321,-4.244867,0.282353,0.039095,0.215024,0.305432
2026-01-24T18:32:36.370583,12.117253,-4.182653,0.952343,0.294436,0.279776,0.213802
2026-01-24T18:32:36.379583,11.586047,-3.421736,1.617548,0.588873,0.219911,0.199142
2026-01-24T18:32:36.389583,11.251051,-2.718246,1.866401,0.734259,0.062308,0.120951
2026-01-24T18:32:36.398583,11.026126,-2.344966,1.962114,0.735481,-0.103847,0.029321
2026-01-24T18:32:36.408583,11.231909,-1.962114,2.072184,0.841772,-0.273667,0.042760
2026-01-24T18:32:36.418583,11.667402,-1.138983,2.057827,1.042135,-0.398284,0.130725
2026-01-24T18:32:36.427583,12.112468,-0.100498,1.952543,1.165530,-0.486248,0.260228
2026-01-24T18:32:36.437583,12.399606,0.741775,1.737189,1.191186,-0.516791,0.398284
2026-01-24T18:32:36.447583,12.524033,0.856630,1.584048,1.059240,-0.516791,0.530230
2026-01-24T18:32:36.456583,12.476177,0.138783,1.239482,0.844215,-0.483805,0.636521
2026-01-24T18:32:36.466583,12.308679,-0.847059,1.301695,0.715933,-0.415388,0.702494
2026-01-24T18:32:36.475583,11.892328,-1.655833,1.196411,0.751364,-0.306654,0.687834
2026-01-24T18:32:36.485583,11.385049,-2.076970,1.411765,0.833220,-0.204028,0.609643
2026-01-24T18:32:36.495583,10.963913,-2.483749,1.612762,0.933401,-0.149051,0.498465
2026-01-24T18:32:36.504583,10.576275,-2.569891,1.722832,1.203404,-0.089186,0.379958
2026-01-24T18:32:36.514583,10.365707,-1.856830,2.344966,1.536936,-0.075747,0.329867
2026-01-24T18:32:36.523583,10.336993,-1.014556,3.014956,1.700648,-0.119729,0.345749
2026-01-24T18:32:36.533583,10.083354,-0.301495,3.570091,1.690874,-0.229685,0.324980
2026-01-24T18:32:36.543583,9.145367,-0.200997,3.369094,1.466076,-0.437379,0.279776
2026-01-24T18:32:36.552583,7.939385,-0.870987,2.349751,1.065348,-0.810007,0.070860
2026-01-24T18:32:36.562583,7.738388,-2.316252,0.722632,0.648738,-1.266934,-0.028099
2026-01-24T18:32:36.572583,8.480163,-3.933800,-0.492921,0.615752,-1.326799,-0.113620
2026-01-24T18:32:36.581583,10.121639,-3.895515,-0.200997,0.933401,-1.169195,-0.035430
2026-01-24T18:32:36.591583,11.332407,-2.411965,-0.497707,1.125213,-0.690277,0.109955
2026-01-24T18:32:36.600583,10.533205,-1.048056,-1.512263,0.883310,-0.113620,0.139277
2026-01-24T18:32:36.610583,10.633703,-0.191425,-0.775274,0.290771,0.277332,0.267558
2026-01-24T18:32:36.620583,9.533005,-0.334995,0.004785,-0.246789,0.631634,0.496022
2026-01-24T18:32:36.629583,8.695517,-0.397208,0.636490,-0.715933,0.735481,0.711046
2026-01-24T18:32:36.639583,8.499305,-0.847059,1.741974,-1.380555,0.697607,0.857654
2026-01-24T18:32:36.648583,8.374879,-2.177468,1.852044,-1.865582,0.526565,0.949284
2026-01-24T18:32:36.658583,8.518448,-3.067598,1.765903,-1.953546,0.301767,0.987158
2026-01-24T18:32:36.668583,9.202795,-4.024727,1.560120,-2.043954,0.134390,0.996931
2026-01-24T18:32:36.677583,10.202995,-5.503491,1.158126,-2.053728,0.039095,0.932180
2026-01-24T18:32:36.687583,11.140982,-6.637689,1.172483,-1.617570,0.056199,0.813672
2026-01-24T18:32:36.697583,12.308679,-6.446264,1.813759,-0.895528,0.156381,0.692721
2026-01-24T18:32:36.706583,12.634103,-4.752145,2.277967,-0.144164,0.318871,0.612086
2026-01-24T18:32:36.716583,11.911470,-2.900100,2.019542,0.267558,0.421496,0.551000
2026-01-24T18:32:36.725583,11.935399,-2.086541,2.311466,0.101403,0.417831,0.411723
2026-01-24T18:32:36.735583,12.260823,-3.292523,2.694318,-0.238237,0.477696,0.194255
2026-01-24T18:32:36.745583,11.638689,-4.469792,2.057827,0.002443,0.689055,0.059864
2026-01-24T18:32:36.754583,10.944770,-3.732803,2.651247,0.514348,0.891863,0.107512
2026-01-24T18:32:36.764583,10.576275,-2.775674,4.335794,0.509461,0.924849,0.179594
2026-01-24T18:32:36.773583,9.915856,-2.837887,4.622933,0.200363,0.746477,0.130725
2026-01-24T18:32:36.783583,9.667003,-3.110669,4.661218,0.074525,0.421496,0.065973
2026-01-24T18:32:36.793583,9.934999,-3.560520,4.058227,0.056199,0.050090,0.141720
2026-01-24T18:32:36.802583,10.537990,-4.216153,3.005385,0.073303,-0.265115,0.298102
2026-01-24T18:32:36.812583,11.361121,-4.378865,1.938186,0.294436,-0.425162,0.367740
2026-01-24T18:32:36.822583,11.495119,-3.239881,0.799202,0.529009,-0.400727,0.482583
2026-01-24T18:32:36.831583,12.160324,-2.301895,0.468993,0.433714,-0.251676,0.803898
2026-01-24T18:32:36.841583,12.969098,-2.019542,1.435693,-0.224798,0.328645,1.038470
2026-01-24T18:32:36.850583,13.308879,-2.129612,3.316452,-0.858876,0.973718,1.061683
2026-01-24T18:32:36.860583,10.796415,-3.421736,2.847458,-0.959058,1.187521,1.275486
2026-01-24T18:32:36.870583,8.628518,-5.005784,2.612962,-0.963945,0.852767,1.329242
2026-01-24T18:32:36.879583,8.700302,-5.613561,4.407579,-0.731816,0.540004,1.181413
2026-01-24T18:32:36.889583,9.107082,-5.134997,4.934000,-0.217467,0.293215,1.136209
2026-01-24T18:32:36.898583,9.681360,-4.278366,4.249652,0.080634,0.046425,1.099557
2026-01-24T18:32:36.908583,11.169695,-3.785445,4.326223,0.074525,-0.030543,0.978605
2026-01-24T18:32:36.918583,12.385249,-3.493520,3.747160,0.070860,0.212581,0.957836
2026-01-24T18:32:36.927583,12.921242,-3.503092,3.656232,-0.013439,0.582765,1.073900
2026-01-24T18:32:36.937583,13.088739,-3.287738,4.158725,-0.254119,0.949284,1.226617
2026-01-24T18:32:36.947583,12.777672,-2.115255,4.192225,-0.415388,1.249830,1.370781
2026-01-24T18:32:36.956583,12.169895,-0.612562,4.756931,-0.871093,1.584584,1.621236
2026-01-24T18:32:36.966583,11.016555,-1.004985,4.728217,-1.866803,1.920559,1.902233
2026-01-24T18:32:36.975583,9.533005,-3.316452,4.603790,-2.834414,2.098932,2.040289
2026-01-24T18:32:36.985583,8.427521,-6.723831,4.680361,-3.284010,2.161240,1.992641
2026-01-24T18:32:36.995583,7.360322,-10.389635,4.134797,-3.167946,2.125810,1.738522
2026-01-24T18:32:37.004583,6.752545,-14.136795,3.957728,-2.394591,1.968207,1.274264
2026-01-24T18:32:37.014583,6.412764,-17.194822,3.766302,-0.858876,1.743409,0.714712
2026-01-24T18:32:37.023583,5.670989,-17.266607,1.847259,1.655444,1.549153,0.012217
2026-01-24T18:32:37.033583,4.680361,-13.141381,-0.086141,4.405559,1.373224,-0.641408
2026-01-24T18:32:37.043583,4.417150,-6.613761,-1.287338,5.974260,1.167974,-1.015257
2026-01-24T18:32:37.052583,4.536791,-0.851844,-1.698904,5.900956,1.083674,-1.032362
2026-01-24T18:32:37.062583,4.632504,1.588834,-1.320838,4.773299,1.089783,-0.923628
2026-01-24T18:32:37.072583,4.584648,1.890329,-0.559920,3.451387,0.990823,-0.867428
2026-01-24T18:32:37.081583,3.929014,1.301695,-0.583848,2.357939,0.906523,-0.684168
2026-01-24T18:32:37.091583,3.144168,0.090927,-0.579063,1.417207,0.777020,-0.400727
2026-01-24T18:32:37.100583,3.014956,-1.813759,-0.334995,0.583987,0.497244,-0.144164
2026-01-24T18:32:37.110583,3.785445,-3.627519,0.497707,0.134390,0.069638,0.141720
2026-01-24T18:32:37.120583,5.675775,-3.943371,2.048256,0.120951,-0.329867,0.427605
2026-01-24T18:32:37.129583,7.929814,-3.206382,3.737588,0.089186,-0.579100,0.706160
2026-01-24T18:32:37.139583,9.561719,-2.670390,4.082155,-0.201585,-0.675616,0.844215
2026-01-24T18:32:37.148583,10.533205,-3.139383,4.331008,-0.635299,-0.602312,0.807563
2026-01-24T18:32:37.158583,10.729416,-4.512863,4.412364,-0.916297,-0.399505,0.691499
2026-01-24T18:32:37.168583,9.958927,-5.728417,3.708875,-0.730594,-0.160046,0.535117
2026-01-24T18:32:37.177583,9.183653,-5.915057,3.316452,-0.249232,0.064751,0.403170
2026-01-24T18:32:37.187583,8.882157,-4.962714,3.732803,0.179594,0.257785,0.343306
2026-01-24T18:32:37.197583,8.638089,-2.775674,4.278366,0.525343,0.410501,0.356745
2026-01-24T18:32:37.206583,8.178667,-0.004785,4.388436,0.513126,0.454483,0.519235
2026-01-24T18:32:37.216583,7.355536,1.928615,3.952942,-0.139277,0.334754,0.736703
2026-01-24T18:32:37.225583,6.460621,2.086541,3.086741,-1.145982,0.125838,1.020144
2026-01-24T18:32:37.235583,5.522634,1.182054,2.244467,-2.109928,-0.098960,1.181413
2026-01-24T18:32:37.245583,4.972285,-0.378065,1.392622,-2.877174,-0.254119,1.200960
2026-01-24T18:32:37.254583,4.364508,-2.852244,1.071984,-3.353649,-0.403170,1.054353
2026-01-24T18:32:37.264583,4.110869,-5.867201,1.383051,-3.485596,-0.647517,0.737925
2026-01-24T18:32:37.273583,4.536791,-8.642875,1.856830,-3.067764,-0.956614,0.302989
2026-01-24T18:32:37.283583,5.192425,-10.241280,2.182254,-1.981646,-1.215621,-0.172263
2026-01-24T18:32:37.293583,5.642275,-10.159924,2.756531,-0.717155,-1.292590,-0.612086
2026-01-24T18:32:37.302583,5.776273,-9.059226,3.282952,0.410501,-1.296255,-0.950506
2026-01-24T18:32:37.312583,5.804987,-6.939185,3.838087,1.359785,-1.310916,-1.204625
2026-01-24T18:32:37.322583,5.876772,-4.139583,4.627718,2.149023,-1.301142,-1.444085
2026-01-24T18:32:37.331583,4.981856,-1.488335,4.436293,2.332282,-1.148426,-1.500284
2026-01-24T18:32:37.341583,4.843072,-0.952343,6.431907,1.654222,-1.363450,-1.977981
2026-01-24T18:32:37.350583,3.842873,-2.665604,2.187039,0.933401,-2.092823,-2.023185
2026-01-24T18:32:37.360583,5.307280,-2.746960,0.937986,1.163087,-2.489886,-1.634675
2026-01-24T18:32:37.370583,7.537391,-2.962314,5.513063,0.360410,-2.306626,-1.871690
2026-01-24T18:32:37.379583,8.805587,-7.781459,2.330609,-0.735481,-2.272418,-1.855808
2026-01-24T18:32:37.389583,9.533005,-10.384850,0.650847,0.348193,-2.029293,-1.693318
2026-01-24T18:32:37.398583,10.427920,-7.968099,2.373680,1.721417,-1.346346,-1.631009
2026-01-24T18:32:37.408583,10.609775,-5.359922,2.440679,1.913229,-0.664621,-1.507615
2026-01-24T18:32:37.418583,11.016555,-3.617947,1.909472,1.618792,-0.202807,-1.081231
2026-01-24T18:32:37.427583,11.236694,-1.722832,2.933600,1.160643,0.267558,-0.296880
2026-01-24T18:32:37.437583,10.906485,-1.923829,4.761716,-0.364075,0.663399,0.298102
2026-01-24T18:32:37.447583,9.963713,-5.364708,4.273581,-2.012189,0.800233,0.549778
2026-01-24T18:32:37.456583,8.834301,-9.212367,4.058227,-2.443460,0.729372,0.801455
2026-01-24T18:32:37.466583,7.556533,-11.581261,4.555934,-2.028072,0.508239,0.983492
2026-01-24T18:32:37.475583,6.508477,-13.385449,4.067798,-1.222951,0.120951,0.781907
2026-01-24T18:32:37.485583,6.489334,-14.093725,3.641875,-0.023212,-0.310319,0.367740
2026-01-24T18:32:37.495583,7.030112,-13.466805,3.282952,1.406211,-0.629191,0.069638
2026-01-24T18:32:37.504583,7.637889,-11.164910,2.325823,2.890613,-0.795346,-0.107512
2026-01-24T18:32:37.514583,8.097311,-7.417750,1.445264,4.116009,-0.800233,-0.219911
2026-01-24T18:32:37.523583,8.255237,-3.048455,0.799202,4.697553,-0.713490,-0.171042
2026-01-24T18:32:37.533583,8.202595,0.894915,0.655633,4.553388,-0.557108,0.015882
2026-01-24T18:32:37.543583,8.915657,3.632304,1.837687,3.875328,-0.302989,0.045204
2026-01-24T18:32:37.552583,10.126425,4.675575,4.149154,2.822196,0.028099,-0.274889
2026-01-24T18:32:37.562583,10.265208,3.646661,4.163511,1.893681,0.331088,-0.745255
2026-01-24T18:32:37.572583,9.178867,1.502692,3.393022,1.475850,0.511904,-0.889419
2026-01-24T18:32:37.581583,8.824729,0.334995,4.493720,1.627344,0.508239,-1.031140
2026-01-24T18:32:37.591583,8.662017,0.612562,5.982056,1.986533,0.521678,-0.979827
2026-01-24T18:32:37.600583,7.829315,2.660818,5.943771,2.366491,0.547335,-0.833220
2026-01-24T18:32:37.610583,8.011170,5.503491,6.264409,2.152688,0.201585,-0.548556
2026-01-24T18:32:37.620583,7.829315,7.034898,6.498906,1.110552,-0.079412,0.025656
2026-01-24T18:32:37.629583,7.101897,6.652046,5.465206,-0.571769,-0.344527,0.445931
2026-01-24T18:32:37.639583,7.613961,4.369294,4.819144,-2.312735,-0.441044,0.515570
2026-01-24T18:32:37.648583,7.767102,0.961914,3.565305,-3.588221,-0.460592,0.443488
2026-01-24T18:32:37.658583,8.116454,-2.067398,1.890329,-3.995057,-0.558330,0.362853
2026-01-24T18:32:37.668583,8.638089,-3.866801,0.732203,-3.991392,-0.549778,0.555887
2026-01-24T18:32:37.677583,9.384650,-4.895715,-0.765703,-4.136778,-0.256563,0.753807
2026-01-24T18:32:37.687583,16.663616,-3.330809,4.819144,-4.500854,0.441044,0.882089
2026-01-24T18:32:37.697583,17.108681,-2.493321,3.790230,-4.663344,2.197892,0.949284
2026-01-24T18:32:37.706583,13.926227,-0.674775,4.369294,-4.682891,3.269350,0.976162
2026-01-24T18:32:37.716583,10.633703,-1.660618,7.278966,-5.765344,3.694512,1.233947
2026-01-24T18:32:37.725583,5.556134,-7.685746,8.528019,-6.674312,3.650529,1.136209
2026-01-24T18:32:37.735583,1.808973,-14.045868,8.365307,-6.202724,3.021338,0.477696
2026-01-24T18:32:37.745583,-1.004985,-18.611374,6.833901,-4.456871,1.762956,-0.095294
2026-01-24T18:32:37.754583,-2.100898,-20.291136,2.986242,-1.778839,0.025656,-0.443488
2026-01-24T18:32:37.764583,0.315852,-17.888741,0.296710,1.172861,-1.511280,-0.733038
2026-01-24T18:32:37.773583,4.575076,-12.830314,-1.019342,3.368310,-2.172236,-0.906523
2026-01-24T18:32:37.783583,7.503891,-9.801001,-1.617548,3.980397,-1.979202,-0.893084
2026-01-24T18:32:37.793583,15.242279,-3.536591,2.478964,3.920532,-0.720820,-0.692721
2026-01-24T18:32:37.802583,12.725030,2.139183,1.191625,3.896097,1.012814,-0.135612
2026-01-24T18:32:37.812583,9.064012,4.149154,2.799602,2.120923,1.733635,0.172263
2026-01-24T18:32:37.822583,4.905286,-1.225125,5.268995,-0.522900,1.698205,0.390953
2026-01-24T18:32:37.831583,1.694118,-7.958527,5.848058,-1.346346,1.078787,0.382401
2026-01-24T18:32:37.841583,0.569491,-10.983055,5.469992,-0.388510,-0.031764,0.078190
2026-01-24T18:32:37.850583,1.856830,-10.863414,5.168496,0.750142,-1.389107,-0.058643
2026-01-24T18:32:37.860583,5.436492,-9.614361,4.819144,1.588249,-2.531425,-0.185702
2026-01-24T18:32:37.870583,9.169296,-7.475177,3.469592,2.244318,-3.067764,-0.384845
2026-01-24T18:32:37.879583,11.346764,-5.412564,1.105484,2.533868,-3.165503,-0.365297
2026-01-24T18:32:37.889583,13.811372,-4.278366,-0.818345,2.505768,-2.970026,-0.239459
2026-01-24T18:32:37.898583,15.342778,-2.928814,-1.143769,2.398256,-2.382373,-0.040317
2026-01-24T18:32:37.908583,14.873785,-1.617548,-0.521635,2.269974,-1.673770,0.211359
2026-01-24T18:32:37.918583,14.720644,0.071784,5.130211,1.557706,-1.368337,0.288328
2026-01-24T18:32:37.927583,11.231909,-0.550349,3.708875,0.872315,-0.970053,0.263893
2026-01-24T18:32:37.937583,8.116454,-0.492921,-0.306281,1.103222,-1.150869,0.157603
2026-01-24T18:32:37.947583,11.227123,1.339980,2.976671,1.034805,-1.379333,0.398284
2026-01-24T18:32:37.956583,12.739387,1.804188,1.923829,0.313984,-1.044579,0.572991
2026-01-24T18:32:37.966583,13.816157,1.942971,0.760917,-0.531452,-0.663399,0.601091
2026-01-24T18:32:37.975583,15.759129,2.550748,1.665404,-1.475850,-0.034208,0.867428
2026-01-24T18:32:37.985583,15.069996,2.163111,3.747160,-2.340835,0.895528,1.148426
2026-01-24T18:32:37.995583,11.562118,-0.660419,5.139782,-3.176498,1.452637,1.067792
2026-01-24T18:32:38.004583,8.341379,-4.431507,5.972485,-3.576004,1.218065,0.929736
2026-01-24T18:32:38.014583,5.881557,-6.786044,4.737788,-3.474600,0.425162,0.775798
2026-01-24T18:32:38.023583,5.163711,-6.752545,2.641676,-2.735453,-0.543669,0.671951
2026-01-24T18:32:38.033583,6.814758,-4.618147,3.148954,-2.113593,-1.199739,0.796568
2026-01-24T18:32:38.043583,9.193224,-3.038884,2.699103,-2.405586,-1.485623,0.960279
2026-01-24T18:32:38.052583,12.873385,-1.172483,1.478764,-2.952921,-1.412320,1.094670
2026-01-24T18:32:38.062583,14.423934,-0.354137,0.947557,-3.629760,-0.615752,1.457524
2026-01-24T18:32:38.072583,11.629117,-3.546163,-0.885344,-4.603479,0.103847,1.467297
2026-01-24T18:32:38.081583,10.327422,-8.044669,0.387637,-5.049411,0.419053,1.312138
2026-01-24T18:32:38.091583,8.925228,-11.571690,0.052642,-4.365242,0.570548,1.274264
2026-01-24T18:32:38.100583,7.867600,-12.323036,-0.363709,-2.907717,0.693942,1.152091
2026-01-24T18:32:38.110583,7.680960,-10.877771,0.153140,-1.546710,0.745255,1.076344
2026-01-24T18:32:38.120583,8.365307,-7.881957,1.445264,-0.745255,0.813672,1.159421
2026-01-24T18:32:38.129583,8.992227,-4.302295,2.617747,-0.689055,1.011592,1.335351
2026-01-24T18:32:38.139583,8.863014,-3.110669,2.861815,-1.505171,1.331685,1.330464
2026-01-24T18:32:38.148583,7.929814,-6.159125,3.412165,-2.678032,1.577253,1.109331
2026-01-24T18:32:38.158583,6.972685,-11.341979,3.397808,-3.068986,1.623679,0.742811
2026-01-24T18:32:38.168583,6.312266,-15.060425,2.373680,-2.135584,1.470963,0.326201
2026-01-24T18:32:38.177583,6.010770,-16.022341,1.885544,-0.267558,1.330464,0.035430
2026-01-24T18:32:38.187583,5.374279,-13.964512,2.440679,1.738522,1.187521,-0.128281
2026-01-24T18:32:38.197583,5.067998,-9.930213,1.440479,3.277902,0.895528,-0.156381
2026-01-24T18:32:38.206583,5.881557,-5.149354,1.847259,3.904649,0.613308,-0.018325
2026-01-24T18:32:38.216583,7.814958,-1.679761,2.364108,3.424509,0.547335,0.106290
2026-01-24T18:32:38.225583,9.824929,0.320638,2.914457,2.366491,0.855211,0.178372
2026-01-24T18:32:38.235583,9.083154,0.521635,2.139183,1.213178,1.411098,0.290771
2026-01-24T18:32:38.245583,7.575676,-1.210768,2.517249,0.136833,1.710422,0.346971
2026-01-24T18:32:38.254583,5.962913,-4.000799,3.450450,-0.441044,1.745852,0.417831
2026-01-24T18:32:38.264583,4.417150,-6.565905,3.699303,-0.486248,1.550375,0.339641
2026-01-24T18:32:38.273583,3.005385,-8.752945,2.584248,-0.158824,1.098335,0.157603
2026-01-24T18:32:38.283583,2.928814,-9.657432,2.105683,0.554665,0.444709,0.037873
2026-01-24T18:32:38.293583,2.962314,-9.255437,0.890130,1.313359,-0.224798,0.079412
2026-01-24T18:32:38.302583,3.828516,-7.489534,-0.119641,1.888794,-0.779463,0.072082
2026-01-24T18:32:38.312583,5.608776,-5.455635,-1.349551,1.974316,-1.056796,0.339641
2026-01-24T18:32:38.322583,7.479963,-4.388436,-2.258824,1.620014,-0.928514,0.712268
2026-01-24T18:32:38.331583,10.403992,-4.378865,-0.622133,0.799011,-0.427605,0.912632
2026-01-24T18:32:38.341583,10.724630,-6.034698,-0.650847,0.138055,0.302989,1.005483
2026-01-24T18:32:38.350583,8.657232,-8.417949,-2.024327,0.043982,0.664621,0.919962
2026-01-24T18:32:38.360583,8.020741,-10.959127,-0.363709,0.260228,0.744033,0.670729
2026-01-24T18:32:38.370583,7.125825,-12.380464,-0.488135,1.087339,0.807563,0.443488
2026-01-24T18:32:38.379583,6.489334,-10.485348,-0.851844,2.542420,0.726929,0.329867
2026-01-24T18:32:38.389583,7.776673,-5.809773,0.937986,3.459939,0.570548,0.300545
2026-01-24T18:32:38.398583,9.839286,-2.206182,1.392622,3.060434,0.715933,0.390953
2026-01-24T18:32:38.408583,10.997412,-0.689132,2.402393,1.892460,1.164308,0.631634
2026-01-24T18:32:38.418583,10.920842,-0.823130,3.302095,0.757472,1.502728,0.864984
2026-01-24T18:32:38.427583,10.011569,-2.000399,4.603790,-0.273667,1.657887,1.028696
2026-01-24T18:32:38.437583,8.642875,-3.919443,4.857429,-1.026253,1.684765,1.116661
2026-01-24T18:32:38.447583,7.451249,-5.752345,4.441078,-1.351233,1.594357,1.087339
2026-01-24T18:32:38.456583,6.661618,-7.130611,3.632304,-1.304807,1.417207,0.873537
2026-01-24T18:32:38.466583,6.747759,-7.580461,2.871387,-0.933401,1.215621,0.621860
2026-01-24T18:32:38.475583,7.240681,-6.742974,1.981257,-0.356745,1.115439,0.503352
2026-01-24T18:32:38.485583,8.135596,-4.823930,1.718046,0.039095,1.152091,0.547335
2026-01-24T18:32:38.495583,8.020741,-3.144168,2.239681,0.130725,1.357342,0.620638
2026-01-24T18:32:38.504583,6.652046,-2.048256,2.790031,0.018325,1.457524,0.735481
2026-01-24T18:32:38.514583,5.053641,-1.569691,4.197010,-0.346971,1.361007,0.783129
2026-01-24T18:32:38.523583,3.058027,-1.732403,4.651647,-1.050687,1.161865,0.549778
2026-01-24T18:32:38.533583,1.631905,-2.617747,4.977071,-1.821599,0.836885,0.383623
2026-01-24T18:32:38.543583,0.679561,-3.479164,5.307280,-2.268753,0.301767,0.370184
2026-01-24T18:32:38.552583,0.416351,-4.034298,4.608576,-2.477668,-0.459370,0.324980
2026-01-24T18:32:38.562583,1.703689,-4.905286,3.742374,-2.720793,-1.303586,0.215024
2026-01-24T18:32:38.572583,4.431507,-7.130611,3.206382,-2.956587,-2.062280,0.250454
2026-01-24T18:32:38.581583,7.020541,-9.399007,2.857030,-2.902831,-2.315178,0.070860
2026-01-24T18:32:38.591583,7.312465,-10.648060,1.727617,-2.398256,-2.122145,-0.321315
2026-01-24T18:32:38.600583,6.958328,-10.710273,2.024327,-1.800830,-1.795943,-0.477696
2026-01-24T18:32:38.610583,6.264409,-10.116853,3.617947,-1.404989,-1.523497,-0.544891
2026-01-24T18:32:38.620583,4.771288,-10.585847,3.282952,-0.928514,-1.513723,-1.131322
2026-01-24T18:32:38.629583,4.158725,-10.758130,-0.263210,-0.237015,-1.776395,-1.705535
2026-01-24T18:32:38.639583,5.039284,-10.284351,-0.535992,0.464257,-1.418428,-1.467297
2026-01-24T18:32:38.648583,5.321637,-9.667003,0.478564,1.009149,-1.086118,-1.848477
2026-01-24T18:32:38.658583,6.039484,-9.025726,-1.119840,1.352455,-0.864984,-2.552194
2026-01-24T18:32:38.668583,7.001398,-9.083154,-1.866401,1.585805,-0.759916,-2.635272
2026-01-24T18:32:38.677583,8.236095,-8.585447,-1.081555,1.955990,-0.546113,-2.669480
2026-01-24T18:32:38.687583,8.848657,-6.963113,-0.617348,2.133140,-0.046425,-2.773327
2026-01-24T18:32:38.697583,8.662017,-5.139782,0.110069,1.721417,0.566882,-2.524094
2026-01-24T18:32:38.706583,8.446663,-4.259224,1.215553,0.845437,1.076344,-2.108706
2026-01-24T18:32:38.716583,8.800801,-4.383651,3.426521,0.087964,1.287703,-1.618792
2026-01-24T18:32:38.725583,8.930013,-4.120440,5.996413,-0.444709,1.216843,-1.007927
2026-01-24T18:32:38.735583,7.680960,-4.139583,5.943771,-1.296255,1.056796,-0.410501
2026-01-24T18:32:38.745583,6.130411,-5.637490,5.211567,-2.370156,0.682947,0.014660
2026-01-24T18:32:38.754583,5.125426,-7.834101,4.579862,-3.070208,0.155159,0.321315
2026-01-24T18:32:38.764583,4.474578,-9.604789,2.938386,-3.171611,-0.455705,0.566882
2026-01-24T18:32:38.773583,4.938785,-10.652846,1.253839,-2.894278,-0.818559,0.602312
2026-01-24T18:32:38.783583,5.101497,-10.753344,0.598205,-2.249205,-0.948062,0.660956
2026-01-24T18:32:38.793583,5.450849,-9.724431,0.416351,-1.554040,-1.095892,0.751364
2026-01-24T18:32:38.802583,5.670989,-8.441878,0.282353,-1.202182,-1.020144,0.816115
2026-01-24T18:32:38.812583,5.546562,-7.704888,0.468993,-1.182634,-0.797789,0.838106
2026-01-24T18:32:38.822583,5.173282,-7.633104,0.813559,-1.244943,-0.554665,0.696386
2026-01-24T18:32:38.831583,4.728217,-7.886743,1.478764,-1.218065,-0.400727,0.497244
2026-01-24T18:32:38.841583,4.096512,-8.035098,2.124826,-1.011592,-0.326201,0.323758
2026-01-24T18:32:38.850583,3.627519,-7.776673,2.129612,-0.671951,-0.362853,0.166155
2026-01-24T18:32:38.860583,3.436093,-7.441678,1.469193,-0.411723,-0.460592,0.009773
2026-01-24T18:32:38.870583,3.282952,-7.226324,0.559920,-0.207694,-0.536339,-0.130725
2026-01-24T18:32:38.879583,3.354737,-7.068397,0.277567,0.118507,-0.657290,-0.324980
2026-01-24T18:32:38.889583,4.091726,-6.613761,0.598205,0.434935,-0.747698,-0.459370
2026-01-24T18:32:38.898583,5.249852,-6.484549,1.560120,0.533896,-0.693942,-0.563217
2026-01-24T18:32:38.908583,6.297909,-6.589833,1.713260,0.592539,-0.423940,-0.637743
2026-01-24T18:32:38.918583,6.814758,-6.733402,1.000199,0.758694,-0.087964,-0.627969
2026-01-24T18:32:38.927583,7.020541,-6.398407,1.842473,0.894306,0.195476,-0.676838
2026-01-24T18:32:38.937583,6.977470,-6.321837,3.656232,0.818559,0.310319,-0.851545
2026-01-24T18:32:38.947583,6.900900,-6.915257,4.144368,0.623082,0.144164,-1.067792
2026-01-24T18:32:38.956583,7.202396,-8.264809,3.804587,0.511904,-0.259006,-1.266934
2026-01-24T18:32:38.966583,8.015955,-9.030512,3.230310,0.818559,-0.686612,-1.431867
2026-01-24T18:32:38.975583,9.480363,-8.121239,2.933600,1.540601,-0.941954,-1.514945
2026-01-24T18:32:38.985583,11.246266,-6.226124,3.345165,2.073276,-1.011592,-1.456302
2026-01-24T18:32:38.995583,12.964312,-4.249652,3.110669,2.262644,-0.928514,-1.170417
2026-01-24T18:32:39.004583,14.026726,-1.646261,2.770888,2.260200,-0.531452,-0.780685
2026-01-24T18:32:39.014583,13.658231,0.449850,3.445664,1.571145,0.146607,-0.438601
2026-01-24T18:32:39.023583,11.739187,0.526420,3.661018,0.111177,0.773355,-0.302989
2026-01-24T18:32:39.033583,9.442077,-1.703689,3.263810,-1.131322,1.094670,-0.349414
2026-01-24T18:32:39.043583,7.810172,-4.197010,3.842873,-1.615127,1.230282,-0.305432
2026-01-24T18:32:39.052583,6.273980,-5.982056,3.986442,-1.502728,1.120326,-0.289550
2026-01-24T18:32:39.062583,5.484349,-6.762116,4.039084,-1.147204,0.751364,-0.416610
2026-01-24T18:32:39.072583,5.651846,-7.015755,4.029513,-0.735481,0.223576,-0.543669
2026-01-24T18:32:39.081583,6.824330,-6.853043,4.249652,-0.415388,-0.252898,-0.587652
2026-01-24T18:32:39.091583,8.111668,-6.513263,3.273381,-0.252898,-0.515570,-0.572991
2026-01-24T18:32:39.100583,9.547362,-5.761916,2.215753,-0.245567,-0.555887,-0.516791
2026-01-24T18:32:39.110583,10.906485,-4.929214,2.344966,-0.412944,-0.370184,-0.296880
2026-01-24T18:32:39.120583,10.762916,-5.034498,2.014756,-0.882089,-0.041538,-0.073303
2026-01-24T18:32:39.129583,9.734002,-5.355136,1.531406,-1.325577,0.252898,0.057421
2026-01-24T18:32:39.139583,8.489734,-5.895914,0.942772,-1.571145,0.411723,0.155159
2026-01-24T18:32:39.148583,7.609175,-6.795616,1.813759,-1.828930,0.552222,0.237015
2026-01-24T18:32:39.158583,6.297909,-8.054240,1.239482,-1.888794,0.485026,0.293215
2026-01-24T18:32:39.168583,5.680560,-9.480363,0.894915,-1.759291,0.280997,0.109955
2026-01-24T18:32:39.177583,5.589633,-10.767701,0.397208,-1.457524,-0.052534,-0.254119
2026-01-24T18:32:39.187583,6.092126,-10.360921,-0.038285,-0.388510,-0.040317,-0.664621
2026-01-24T18:32:39.197583,5.943771,-8.819944,0.598205,0.483805,0.028099,-0.419053
2026-01-24T18:32:39.206583,5.570491,-7.733602,0.220139,0.662177,-0.008552,-0.505796
2026-01-24T18:32:39.216583,5.881557,-6.714260,-0.038285,0.784350,-0.100181,-0.791681
2026-01-24T18:32:39.225583,6.470192,-5.757131,1.378265,0.938288,-0.202807,-0.774576
2026-01-24T18:32:39.235583,7.508677,-5.082355,2.139183,0.788015,-0.262671,-0.707381
2026-01-24T18:32:39.245583,8.542376,-5.862415,2.163111,0.430049,-0.222354,-0.514348
2026-01-24T18:32:39.254583,9.489934,-6.556333,2.498106,0.406836,-0.075747,-0.284663
2026-01-24T18:32:39.264583,10.322636,-6.436692,3.282952,0.529009,0.129503,0.061086
2026-01-24T18:32:39.273583,10.700702,-5.637490,3.603590,0.582765,0.359188,0.274889
2026-01-24T18:32:39.283583,11.026126,-4.369294,3.852444,0.508239,0.626747,0.284663
2026-01-24T18:32:39.293583,11.160124,-3.751945,4.264009,0.155159,0.937067,0.158824
2026-01-24T18:32:39.302583,10.466206,-3.728017,2.938386,-0.204028,1.299920,-0.059864
2026-01-24T18:32:39.312583,9.719645,-2.790031,1.885544,-0.125838,1.660331,-0.174707
2026-01-24T18:32:39.322583,9.485148,-1.335195,2.440679,-0.163711,2.073276,-0.029321
2026-01-24T18:32:39.331583,9.279366,-0.885344,3.857230,-0.840550,2.505768,0.120951
2026-01-24T18:32:39.341583,8.819944,-1.617548,4.661218,-1.501506,2.891835,0.155159
2026-01-24T18:32:39.350583,7.929814,-2.033899,5.627918,-1.808160,3.227811,0.257785
2026-01-24T18:32:39.360583,6.254838,-3.043670,7.159325,-2.204001,3.363423,0.392175
2026-01-24T18:32:39.370583,4.005585,-5.508277,6.360122,-2.638937,3.158172,0.313984
2026-01-24T18:32:39.379583,2.321037,-8.408378,4.819144,-2.692693,2.548529,0.096516
2026-01-24T18:32:39.389583,1.411765,-10.628917,2.550748,-2.205223,1.589471,-0.177150
2026-01-24T18:32:39.398583,1.560120,-11.475977,0.301495,-1.220508,0.521678,-0.516791
2026-01-24T18:32:39.408583,3.326023,-10.983055,-1.095912,-0.271224,-0.504574,-0.658512
2026-01-24T18:32:39.418583,7.862815,-9.202795,0.689132,0.543669,-1.073900,-0.580321
2026-01-24T18:32:39.427583,13.433306,-5.982056,3.010170,1.091005,-0.763581,-0.243124
2026-01-24T18:32:39.437583,15.089139,-3.407379,0.019142,0.911410,0.249232,0.129503
2026-01-24T18:32:39.447583,14.237294,-2.507678,0.023928,0.124616,1.200960,0.376292
2026-01-24T18:32:39.456583,11.887542,-3.014956,3.517449,-0.746477,1.694539,0.509461
2026-01-24T18:32:39.466583,7.996813,-5.111069,4.005585,-1.391550,1.837482,0.504574
2026-01-24T18:32:39.475583,5.020141,-7.178467,4.024727,-1.624901,1.677435,0.439822
2026-01-24T18:32:39.485583,3.383451,-8.394021,3.498306,-1.337794,1.198517,0.436157
2026-01-24T18:32:39.495583,2.928814,-8.063812,2.349751,-0.675616,0.472809,0.552222
2026-01-24T18:32:39.504583,4.412364,-5.843272,2.885744,-0.128281,-0.246789,0.698829
2026-01-24T18:32:39.514583,6.757331,-3.206382,4.048655,-0.348193,-0.496022,0.841772
2026-01-24T18:32:39.523583,7.633104,-1.976471,2.703889,-1.154535,-0.345749,1.023809
2026-01-24T18:32:39.533583,7.159325,-1.521835,1.584048,-1.973094,-0.185702,1.161865
2026-01-24T18:32:39.543583,6.541976,-1.354337,2.813959,-2.745227,-0.194255,1.284038
2026-01-24T18:32:39.552583,4.881358,-2.656033,1.942971,-3.681073,-0.376292,1.351233
2026-01-24T18:32:39.562583,4.144368,-4.264009,0.296710,-4.338364,-0.806341,1.444085
2026-01-24T18:32:39.572583,4.225724,-4.804787,-0.143569,-4.459315,-1.143539,1.710422
2026-01-24T18:32:39.581583,4.675575,-4.460221,-1.028913,-4.473976,-1.315803,1.916894
2026-01-24T18:32:39.591583,5.321637,-4.254438,-2.368894,-4.747643,-1.306029,2.084271
2026-01-24T18:32:39.600583,6.369693,-4.723431,-2.522035,-5.015202,-1.163087,2.355495
2026-01-24T18:32:39.610583,7.159325,-5.871986,-1.569691,-5.358508,-0.811228,2.532646
2026-01-24T18:32:39.620583,6.589833,-8.839086,-1.770688,-5.915617,-0.378736,2.419025
2026-01-24T18:32:39.629583,5.570491,-12.801600,-1.861615,-6.129420,-0.064751,2.073276
2026-01-24T18:32:39.639583,4.728217,-16.146767,-1.727617,-5.418373,0.015882,1.808160
2026-01-24T18:32:39.648583,4.216153,-17.185251,-2.005185,-3.900984,-0.124616,1.566258
2026-01-24T18:32:39.658583,4.053441,-15.984054,-3.024527,-2.302961,-0.183259,1.263269
2026-01-24T18:32:39.668583,3.895515,-14.151152,-3.751945,-1.225395,-0.127059,1.027475
2026-01-24T18:32:39.677583,3.981656,-12.409178,-3.493520,-0.599869,-0.051312,0.847880
2026-01-24T18:32:39.687583,3.952942,-11.303693,-3.316452,-0.294436,0.070860,0.718377
2026-01-24T18:32:39.697583,3.818944,-11.274980,-3.129811,-0.354301,0.217467,0.645073
2026-01-24T18:32:39.706583,3.512663,-12.122039,-2.861815,-0.378736,0.345749,0.527787
2026-01-24T18:32:39.716583,3.282952,-12.959527,-2.603390,-0.064751,0.464257,0.378736
2026-01-24T18:32:39.725583,2.900100,-12.638888,-2.541177,0.586430,0.554665,0.260228
2026-01-24T18:32:39.735583,2.732603,-10.805986,-2.828316,1.253495,0.563217,0.268780
2026-01-24T18:32:39.745583,3.388236,-7.341179,-2.383251,1.733635,0.526565,0.697607
2026-01-24T18:32:39.754583,4.800002,-4.235296,1.445264,0.880867,0.610865,1.141096
2026-01-24T18:32:39.764583,4.532006,-6.987041,1.971685,-1.238834,1.015257,1.034805
2026-01-24T18:32:39.773583,2.469392,-13.945370,-0.464207,-2.062280,1.207069,0.368962
2026-01-24T18:32:39.783583,1.071984,-18.276379,-2.100898,-0.406836,1.066570,-0.365297
2026-01-24T18:32:39.793583,0.760917,-17.233109,-2.402393,2.596176,0.802676,-0.664621
2026-01-24T18:32:39.802583,2.009970,-10.600204,-2.282752,5.321856,0.482583,-0.623082
2026-01-24T18:32:39.812583,3.842873,-2.378465,-2.277967,6.327340,0.448374,-0.425162
2026-01-24T18:32:39.822583,5.532205,3.259024,-1.976471,5.037193,0.581543,-0.079412
2026-01-24T18:32:39.831583,5.192425,4.527220,-1.105484,2.770884,0.696386,0.238237
2026-01-24T18:32:39.841583,3.799802,3.297309,1.028913,0.706160,0.582765,0.441044
2026-01-24T18:32:39.850583,1.057627,-0.981057,0.320638,-1.121548,0.266337,0.382401
2026-01-24T18:32:39.860583,-0.023928,-6.197410,-0.425922,-2.051285,-0.466700,0.246789
2026-01-24T18:32:39.870583,1.105484,-9.480363,-1.067198,-1.554040,-1.320690,0.218689
2026-01-24T18:32:39.879583,4.034298,-9.399007,-0.847059,-0.580321,-1.926668,0.252898
2026-01-24T18:32:39.889583,6.929614,-8.494520,-0.856630,-0.177150,-1.955990,0.234572
2026-01-24T18:32:39.898583,8.154739,-8.283951,-1.761117,-0.147829,-1.695761,0.160046
2026-01-24T18:32:39.908583,8.757730,-7.972884,-1.445264,-0.067195,-1.347568,0.162490
2026-01-24T18:32:39.918583,8.197810,-7.470392,-0.583848,-0.153938,-0.872315,0.259006
2026-01-24T18:32:39.927583,6.900900,-7.867600,0.650847,-0.597426,-0.471587,0.254119
2026-01-24T18:32:39.937583,5.460421,-9.217152,1.718046,-0.882089,-0.379958,0.092851
2026-01-24T18:32:39.947583,4.599005,-10.313065,2.306680,-0.687834,-0.621860,-0.048869
2026-01-24T18:32:39.956583,4.699503,-10.418349,1.957328,-0.216246,-1.000597,-0.160046
2026-01-24T18:32:39.966583,6.159125,-9.614361,0.832702,0.213802,-1.385442,-0.180816
2026-01-24T18:32:39.975583,8.748159,-8.384450,0.124426,0.370184,-1.512502,-0.064751
2026-01-24T18:32:39.985583,10.561918,-7.948956,-0.473778,0.119729,-1.227838,0.086742
2026-01-24T18:32:39.995583,11.021340,-8.518448,-1.033699,-0.268780,-0.778242,0.263893
2026-01-24T18:32:40.004583,11.102696,-8.858229,-0.205782,-0.488692,-0.268780,0.568104
2026-01-24T18:32:40.014583,9.891928,-8.939585,0.492921,-0.656069,0.256563,0.781907
2026-01-24T18:32:40.023583,8.092526,-8.700302,1.196411,-0.874758,0.557108,0.900415
2026-01-24T18:32:40.033583,6.226124,-9.198010,2.431107,-1.039692,0.593760,0.957836
2026-01-24T18:32:40.043583,4.670789,-10.260423,1.804188,-1.123991,0.287106,0.708603
2026-01-24T18:32:40.052583,5.268995,-10.174281,0.579063,-0.602312,-0.250454,0.594982
2026-01-24T18:32:40.062583,7.408178,-7.633104,-0.540777,0.091629,-0.529009,0.592539
2026-01-24T18:32:40.072583,9.083154,-4.766502,-2.330609,0.232128,-0.430049,0.621860
2026-01-24T18:32:40.081583,9.719645,-3.689732,-3.565305,-0.441044,-0.081855,0.778242
2026-01-24T18:32:40.091583,9.614361,-4.149154,-3.929014,-1.387885,0.381179,0.951727
2026-01-24T18:32:40.100583,8.867800,-5.326423,-3.431307,-2.096489,0.841772,1.081231
2026-01-24T18:32:40.110583,7.479963,-6.647261,-2.622533,-2.605950,1.134987,1.180191
2026-01-24T18:32:40.120583,5.690132,-8.604590,-2.522035,-2.905274,1.170417,1.152091
2026-01-24T18:32:40.129583,4.130011,-10.777272,-2.459821,-2.884505,0.972497,1.043357
2026-01-24T18:32:40.139583,3.211167,-12.887742,-2.967100,-2.461786,0.581543,0.849102
2026-01-24T18:32:40.148583,3.464807,-13.887942,-2.866601,-1.587027,0.234572,0.635299
2026-01-24T18:32:40.158583,3.924229,-12.993026,-3.637090,-0.467922,0.028099,0.547335
2026-01-24T18:32:40.168583,4.910071,-10.801201,-4.130011,0.186924,-0.015882,0.492357
2026-01-24T18:32:40.177583,6.240481,-8.657232,-4.053441,0.222354,0.194255,0.530230
2026-01-24T18:32:40.187583,6.283552,-7.417750,-3.699303,-0.045204,0.673173,0.616973
2026-01-24T18:32:40.197583,4.847858,-7.432106,-3.263810,-0.587652,1.156978,0.687834
2026-01-24T18:32:40.206583,2.732603,-8.939585,-1.794616,-1.012814,1.391550,0.757472
2026-01-24T18:32:40.216583,0.445065,-10.920842,-0.981057,-1.067792,1.251051,0.651182
2026-01-24T18:32:40.225583,-1.105484,-12.447463,-1.512263,-0.625525,0.780685,0.384845
2026-01-24T18:32:40.235583,-1.311266,-12.303893,-1.473978,0.171042,0.197920,0.206472
2026-01-24T18:32:40.245583,-0.263210,-9.676574,-0.641276,1.036027,-0.294436,0.199142
2026-01-24T18:32:40.254583,1.019342,-5.158925,-0.215354,1.330464,-0.572991,0.474031
2026-01-24T18:32:40.264583,1.191625,-2.517249,-0.033499,0.361632,-0.560774,0.450818
2026-01-24T18:32:40.273583,1.014556,-5.020141,-1.071984,-1.058018,-0.598647,0.041538
2026-01-24T18:32:40.283583,1.296909,-8.403592,-2.632104,-1.302364,-0.733038,-0.211359
2026-01-24T18:32:40.293583,2.182254,-10.217352,-2.459821,-0.615752,-0.662177,-0.437379
2026-01-24T18:32:40.302583,3.091526,-11.495119,-0.143569,0.304210,-0.367740,-0.877202
2026-01-24T18:32:40.312583,3.842873,-12.504890,0.770488,1.445306,-0.079412,-1.461189
2026-01-24T18:32:40.322583,3.708875,-12.691531,0.330209,2.967582,0.196698,-1.949881
2026-01-24T18:32:40.331583,3.330809,-11.471191,-0.847059,4.440989,0.362853,-2.585181
2026-01-24T18:32:40.341583,3.397808,-9.164510,-2.569891,5.597967,0.403170,-3.163059
2026-01-24T18:32:40.350583,3.522234,-5.838487,-4.919643,6.307793,0.398284,-3.406183
2026-01-24T18:32:40.360583,3.905086,-1.990828,-5.240281,6.206389,0.333532,-3.363423
2026-01-24T18:32:40.370583,5.096712,1.004985,-3.550948,4.995655,0.282219,-3.198489
2026-01-24T18:32:40.379583,7.240681,1.411765,-1.627119,2.957808,0.403170,-2.988352
2026-01-24T18:32:40.389583,8.030312,-1.119840,-1.775474,0.972497,0.664621,-2.868622
2026-01-24T18:32:40.398583,7.781459,-5.192425,-1.555334,-0.322536,0.791681,-2.744006
2026-01-24T18:32:40.408583,7.456035,-9.882357,-1.579262,-0.795346,0.712268,-2.615724
2026-01-24T18:32:40.418583,5.675775,-13.868799,-0.957129,-0.111177,0.557108,-2.322509
2026-01-24T18:32:40.427583,5.245067,-14.639288,-1.732403,1.341459,0.014660,-2.112371
2026-01-24T18:32:40.437583,6.317051,-13.878371,-2.378465,2.274861,-0.280997,-2.432464
2026-01-24T18:32:40.447583,5.163711,-13.323236,-2.038684,3.148398,-0.244346,-2.367713
2026-01-24T18:32:40.456583,3.756731,-10.327422,-2.488535,4.306599,-0.525343,-1.745852
2026-01-24T18:32:40.466583,3.168097,-6.422335,-1.210768,4.423885,-0.836885,-1.599244
2026-01-24T18:32:40.475583,3.163311,-5.067998,-0.296710,3.303558,-1.230282,-1.590692
2026-01-24T18:32:40.485583,3.077169,-5.446064,-0.057427,2.487442,-1.480737,-1.462411
2026-01-24T18:32:40.495583,2.943171,-5.374279,0.234496,2.113593,-1.728748,-1.379333
2026-01-24T18:32:40.504583,3.196810,-5.986842,0.138783,1.676213,-1.964542,-1.252273
2026-01-24T18:32:40.514583,3.728017,-7.168896,0.239282,1.550375,-2.161240,-0.979827
2026-01-24T18:32:40.523583,4.575076,-7.503891,1.119840,1.905899,-2.354274,-0.674395
2026-01-24T18:32:40.533583,5.848058,-6.762116,1.703689,2.065945,-2.452012,-0.514348
2026-01-24T18:32:40.543583,7.561319,-5.694917,2.076970,1.835038,-2.350608,-0.364075
2026-01-24T18:32:40.552583,9.202795,-3.785445,2.502892,1.425759,-1.933998,-0.065973
2026-01-24T18:32:40.562583,10.633703,-1.100698,2.785245,0.773355,-1.259603,0.310319
2026-01-24T18:32:40.572583,13.725230,0.665204,4.259224,-0.554665,-0.355523,0.458148
2026-01-24T18:32:40.581583,15.792629,-0.722632,5.010570,-2.298074,0.984714,0.219911
2026-01-24T18:32:40.591583,14.065011,-3.919443,3.991228,-3.310888,2.245540,-0.221133
2026-01-24T18:32:40.600583,12.169895,-5.642275,5.532205,-3.076316,2.773327,-0.240680
2026-01-24T18:32:40.610583,7.604390,-4.895715,8.188238,-2.602285,2.894278,0.120951
2026-01-24T18:32:40.620583,2.301895,-4.527220,8.992227,-2.770884,2.157575,0.571769
2026-01-24T18:32:40.629583,1.048056,-6.541976,8.159525,-3.539352,0.742811,0.690277
2026-01-24T18:32:40.639583,3.187239,-9.968498,5.556134,-4.199086,-0.511904,0.511904
2026-01-24T18:32:40.648583,7.355536,-12.169895,2.646461,-3.721390,-1.345124,0.390953
2026-01-24T18:32:40.658583,11.605189,-11.485548,-0.220139,-2.553416,-1.452637,0.483805
2026-01-24T18:32:40.668583,13.083953,-10.059426,-2.871387,-1.720196,-0.819780,0.583987
2026-01-24T18:32:40.677583,12.744173,-10.179067,-2.665604,-1.473406,0.075747,0.536339
2026-01-24T18:32:40.687583,9.743573,-11.107482,-1.086341,-1.070235,0.825889,0.482583
2026-01-24T18:32:40.697583,6.585047,-11.073982,0.756131,-0.248011,0.939510,0.488692
2026-01-24T18:32:40.706583,5.020141,-9.958927,2.646461,0.525343,0.551000,0.312762
2026-01-24T18:32:40.716583,5.115854,-8.140382,3.249453,0.852767,0.013439,0.120951
2026-01-24T18:32:40.725583,6.436692,-6.757331,2.699103,0.855211,-0.386066,0.123394
2026-01-24T18:32:40.735583,7.843672,-5.876772,2.139183,0.663399,-0.514348,0.182037
2026-01-24T18:32:40.745583,7.484749,-5.714060,1.450050,0.399505,-0.447153,0.256563
2026-01-24T18:32:40.754583,6.422335,-5.766702,0.866201,0.096516,-0.458148,0.305432
2026-01-24T18:32:40.764583,6.312266,-6.766902,0.703489,-0.233350,-0.582765,0.285884
2026-01-24T18:32:40.773583,6.891329,-8.087740,-0.028713,-0.444709,-0.673173,0.234572
2026-01-24T18:32:40.783583,7.671389,-9.049655,-0.880558,-0.284663,-0.664621,0.172263
2026-01-24T18:32:40.793583,8.614161,-8.657232,-1.627119,0.085521,-0.467922,0.116064
2026-01-24T18:32:40.802583,9.585647,-7.657032,-1.531406,0.339641,-0.013439,0.114842
2026-01-24T18:32:40.812583,9.140582,-6.991827,-0.535992,0.427605,0.565661,0.208915
2026-01-24T18:32:40.822583,6.795616,-7.178467,0.368494,0.298102,0.791681,0.174707
2026-01-24T18:32:40.831583,4.488935,-7.532605,0.741775,0.213802,0.521678,0.124616
2026-01-24T18:32:40.841583,3.814159,-8.183453,0.406779,0.340862,0.003665,-0.084299
2026-01-24T18:32:40.850583,5.230710,-8.231309,-0.320638,0.559552,-0.423940,-0.201585
2026-01-24T18:32:40.860583,7.144968,-7.446463,-0.641276,0.984714,-0.532674,-0.261450
2026-01-24T18:32:40.870583,8.384450,-5.637490,-1.225125,1.275486,-0.245567,-0.342084
2026-01-24T18:32:40.879583,8.360522,-4.000799,-0.354137,1.033583,0.219911,-0.186924
2026-01-24T18:32:40.889583,6.049055,-4.220939,0.215354,0.300545,0.438601,0.019547
2026-01-24T18:32:40.898583,4.244867,-5.891129,2.000399,-0.442266,0.197920,0.067195
2026-01-24T18:32:40.908583,3.349951,-8.824729,1.579262,-0.795346,-0.296880,-0.138055
2026-01-24T18:32:40.918583,3.421736,-10.782058,0.325423,-0.377514,-0.905302,-0.372627
2026-01-24T18:32:40.927583,4.512863,-9.987641,-0.205782,0.626747,-1.433089,-0.445931
2026-01-24T18:32:40.937583,6.336194,-7.618747,-0.727418,1.197295,-1.637118,-0.460592
2026-01-24T18:32:40.947583,8.480163,-5.316851,-1.158126,1.069013,-1.435533,-0.346971
2026-01-24T18:32:40.956583,11.160124,-4.321437,-0.267996,0.531452,-0.894306,-0.234572
2026-01-24T18:32:40.966583,12.533604,-5.034498,0.684347,-0.069638,-0.012217,-0.331088
2026-01-24T18:32:40.975583,10.418349,-7.302894,0.564706,-0.309097,0.759916,-0.344527
2026-01-24T18:32:40.985583,7.992027,-8.757730,1.947757,0.123394,1.031140,-0.224798
2026-01-24T18:32:40.995583,5.761916,-8.149953,2.560320,0.789237,0.866206,-0.120951
2026-01-24T18:32:41.004583,5.149354,-6.465406,2.388036,1.042135,0.414166,-0.074525
2026-01-24T18:32:41.014583,6.321837,-4.910071,1.904686,0.867428,-0.079412,-0.003665
2026-01-24T18:32:41.023583,8.063812,-3.962514,1.464407,0.404392,-0.293215,0.053756
2026-01-24T18:32:41.033583,8.556733,-4.393222,0.693918,-0.250454,-0.188146,0.124616
2026-01-24T18:32:41.043583,7.767102,-5.675775,0.272781,-0.641408,-0.014660,0.180816
2026-01-24T18:32:41.052583,6.599404,-6.833901,0.229710,-0.697607,0.058643,0.180816
2026-01-24T18:32:41.062583,5.934200,-7.211967,0.224925,-0.536339,0.002443,0.193033
2026-01-24T18:32:41.072583,5.800201,-6.948756,-0.358923,-0.285884,-0.095294,0.191811
2026-01-24T18:32:41.081583,5.642275,-6.312266,-0.689132,-0.014660,-0.167377,0.279776
2026-01-24T18:32:41.091583,5.474778,-5.948556,-1.076770,0.141720,-0.243124,0.439822
2026-01-24T18:32:41.100583,6.628118,-6.192624,-0.540777,-0.063529,-0.257785,0.577878
2026-01-24T18:32:41.110583,7.920242,-7.819744,0.574277,-0.421496,-0.120951,0.553443
2026-01-24T18:32:41.120583,8.551947,-9.623932,0.244067,-0.416610,0.047647,0.348193
2026-01-24T18:32:41.129583,8.614161,-10.365707,-0.564706,0.113620,0.359188,0.202807
2026-01-24T18:32:41.139583,8.781658,-9.729216,0.071784,0.861319,0.816115,0.173485
2026-01-24T18:32:41.148583,9.111868,-7.006184,0.741775,1.320690,1.325577,0.196698
2026-01-24T18:32:41.158583,7.676174,-4.326223,0.392422,1.198517,1.696983,0.239459
2026-01-24T18:32:41.168583,6.929614,-2.550748,1.952543,0.450818,1.736078,0.304210
2026-01-24T18:32:41.177583,5.680560,-3.828516,2.024327,-0.654847,1.631009,0.205250
2026-01-24T18:32:41.187583,5.144568,-7.106683,1.689332,-1.450193,1.411098,-0.028099
2026-01-24T18:32:41.197583,6.044269,-10.078568,1.785045,-1.325577,1.149648,-0.146607
2026-01-24T18:32:41.206583,6.891329,-10.667203,1.469193,-0.409279,1.007927,-0.141720
2026-01-24T18:32:41.216583,6.656832,-9.245866,1.660618,0.510683,1.078787,-0.129503
2026-01-24T18:32:41.225583,4.656432,-7.939385,1.818545,0.802676,0.912632,-0.178372
2026-01-24T18:32:41.235583,4.488935,-7.695317,2.321037,0.833220,0.423940,-0.237015
2026-01-24T18:32:41.245583,4.847858,-6.924828,1.823330,0.977384,0.042760,-0.300545
2026-01-24T18:32:41.254583,5.948556,-6.369693,0.981057,0.799011,-0.210137,-0.450818
2026-01-24T18:32:41.264583,7.647461,-7.590033,-0.153140,0.411723,-0.195476,-0.603534
2026-01-24T18:32:41.273583,8.709874,-9.533005,-0.555134,0.538783,0.191811,-0.656069
2026-01-24T18:32:41.283583,8.135596,-10.236495,-0.306281,1.415985,0.744033,-0.652403
2026-01-24T18:32:41.293583,6.388836,-8.853443,0.813559,2.503325,1.033583,-0.615752
2026-01-24T18:32:41.302583,4.718646,-5.814558,1.808973,3.090977,0.922406,-0.572991
2026-01-24T18:32:41.312583,4.407579,-3.144168,2.526820,2.778214,0.532674,-0.493579
2026-01-24T18:32:41.322583,5.168496,-1.718046,3.211167,1.866803,0.146607,-0.378736
2026-01-24T18:32:41.331583,6.049055,-2.344966,3.105883,0.844215,-0.158824,-0.237015
2026-01-24T18:32:41.341583,7.235895,-4.618147,3.292523,0.087964,-0.328645,-0.046425
2026-01-24T18:32:41.350583,7.968099,-7.690531,3.048455,-0.284663,-0.397062,0.037873
2026-01-24T18:32:41.360583,8.575876,-9.820143,3.010170,-0.080634,-0.351858,-0.008552
2026-01-24T18:32:41.370583,8.116454,-10.188638,2.919243,0.742811,-0.223576,-0.062308
2026-01-24T18:32:41.379583,7.599604,-8.355736,4.259224,1.557706,-0.145385,-0.103847
2026-01-24T18:32:41.389583,6.498906,-6.264409,4.101297,1.797165,-0.244346,-0.139277
2026-01-24T18:32:41.398583,6.245266,-4.828716,4.043870,1.657887,-0.518013,-0.131946
2026-01-24T18:32:41.408583,6.790830,-4.713860,3.297309,1.237612,-0.729372,-0.125838
2026-01-24T18:32:41.418583,8.188238,-6.087340,2.919243,0.725707,-0.659734,-0.180816
2026-01-24T18:32:41.427583,8.743373,-8.283951,2.541177,0.656069,-0.361632,-0.260228
2026-01-24T18:32:41.437583,7.834101,-8.973084,2.574677,1.232725,-0.073303,-0.393397
2026-01-24T18:32:41.447583,7.207181,-8.327022,2.459821,1.853364,0.064751,-0.559552
2026-01-24T18:32:41.456583,8.020741,-7.245466,3.483949,2.131919,0.188146,-0.514348
2026-01-24T18:32:41.466583,7.030112,-5.785845,3.957728,2.390926,0.299323,-0.431270
2026-01-24T18:32:41.475583,5.465206,-3.857230,4.283152,2.498438,0.138055,-0.287106
2026-01-24T18:32:41.485583,4.934000,-2.885744,4.369294,2.072054,-0.235793,-0.196698
2026-01-24T18:32:41.495583,5.972485,-3.795016,4.302295,1.391550,-0.535117,-0.196698
2026-01-24T18:32:41.504583,6.848258,-5.331208,3.158525,1.070235,-0.640186,-0.255341
2026-01-24T18:32:41.514583,7.470392,-6.278766,2.244467,1.097113,-0.636521,-0.345749
2026-01-24T18:32:41.523583,8.623732,-6.575476,1.995614,1.296255,-0.427605,-0.353080
2026-01-24T18:32:41.533583,8.939585,-6.628118,2.335394,1.567479,-0.001221,-0.351858
2026-01-24T18:32:41.543583,8.322237,-5.934200,2.995813,1.883908,0.401949,-0.370184
2026-01-24T18:32:41.552583,6.867400,-4.661218,3.632304,2.169792,0.476474,-0.310319
2026-01-24T18:32:41.562583,6.144768,-2.684746,4.536791,2.182010,0.296880,-0.180816
2026-01-24T18:32:41.572583,6.790830,-2.024327,4.651647,1.604131,0.085521,-0.050090
2026-01-24T18:32:41.581583,8.111668,-3.393022,4.067798,0.802676,0.048869,0.007330
2026-01-24T18:32:41.591583,8.886943,-6.235695,2.852244,0.370184,0.178372,0.019547
2026-01-24T18:32:41.600583,8.738588,-6.977470,3.460021,0.607199,0.482583,0.037873
2026-01-24T18:32:41.610583,6.427121,-4.589433,4.130011,1.130100,0.566882,-0.006108
2026-01-24T18:32:41.620583,5.852844,-2.488535,4.508077,0.877202,0.326201,-0.008552
2026-01-24T18:32:41.629583,7.226324,-2.512463,4.321437,0.153938,0.205250,0.064751
2026-01-24T18:32:41.639583,9.030512,-2.746960,4.924428,-0.364075,0.355523,0.122173
2026-01-24T18:32:41.648583,8.633303,-2.703889,5.182853,-0.764803,0.581543,0.193033
2026-01-24T18:32:41.658583,7.149753,-1.493121,5.996413,-1.150869,0.604756,0.218689
2026-01-24T18:32:41.668583,6.465406,-0.248853,5.527420,-1.848477,0.442266,0.262671
2026-01-24T18:32:41.677583,7.393821,0.009571,4.957928,-2.930930,0.338419,0.361632
2026-01-24T18:32:41.687583,8.236095,-0.942772,4.015156,-3.953518,0.416610,0.463035
2026-01-24T18:32:41.697583,8.121239,-2.488535,3.498306,-4.658457,0.612086,0.549778
2026-01-24T18:32:41.706583,6.661618,-4.517649,3.450450,-5.006650,0.768468,0.518013
2026-01-24T18:32:41.716583,5.158925,-6.853043,3.273381,-4.977328,0.670729,0.417831
2026-01-24T18:32:41.725583,4.627718,-8.346165,2.924029,-4.509406,0.337197,0.241902
2026-01-24T18:32:41.735583,5.493920,-7.570890,2.325823,-3.803246,-0.040317,0.097738
2026-01-24T18:32:41.745583,6.996613,-5.886343,2.330609,-3.505144,-0.248011,0.029321
2026-01-24T18:32:41.754583,7.384250,-6.537191,1.603191,-3.637090,-0.323758,-0.010995
2026-01-24T18:32:41.764583,7.613961,-9.241080,1.741974,-3.578447,-0.317649,0.076969
2026-01-24T18:32:41.773583,7.527819,-12.514462,1.990828,-2.994460,-0.339641,0.048869
2026-01-24T18:32:41.783583,7.977670,-15.089139,1.765903,-1.982868,-0.354301,-0.048869
2026-01-24T18:32:41.793583,8.633303,-15.739987,1.885544,-0.514348,-0.188146,-0.032986
2026-01-24T18:32:41.802583,8.571090,-13.418949,2.220539,1.050687,0.062308,0.000000
2026-01-24T18:32:41.812583,7.939385,-10.150353,2.991028,1.998750,0.245567,0.007330
2026-01-24T18:32:41.822583,6.479763,-7.159325,3.479164,2.144136,0.227241,0.040317
2026-01-24T18:32:41.831583,6.015556,-5.326423,3.517449,1.855808,0.089186,0.109955
2026-01-24T18:32:41.841583,6.269195,-4.613361,3.617947,1.380555,-0.048869,0.261450
2026-01-24T18:32:41.850583,6.206981,-4.785645,3.723231,0.813672,-0.087964,0.349414
2026-01-24T18:32:41.860583,5.828915,-5.642275,3.397808,0.324980,-0.140498,0.316428
2026-01-24T18:32:41.870583,6.010770,-6.417550,2.967100,0.120951,-0.204028,0.265115
2026-01-24T18:32:41.879583,6.125625,-6.422335,3.077169,0.133168,-0.226020,0.257785
2026-01-24T18:32:41.889583,6.192624,-5.546562,3.570091,0.103847,-0.215024,0.259006
2026-01-24T18:32:41.898583,5.852844,-4.331008,4.000799,-0.131946,-0.206472,0.237015
2026-01-24T18:32:41.908583,5.618347,-3.933800,4.149154,-0.586430,-0.251676,0.226020
2026-01-24T18:32:41.918583,5.259424,-3.211167,3.991228,-0.934623,-0.399505,0.309097
2026-01-24T18:32:41.927583,5.450849,-1.847259,3.565305,-1.240056,-0.657290,0.415388
2026-01-24T18:32:41.937583,7.106683,-0.765703,3.249453,-2.015854,-0.777020,0.485026
2026-01-24T18:32:41.947583,7.604390,-1.971685,2.660818,-3.071429,-0.627969,0.463035
2026-01-24T18:32:41.956583,9.528219,-3.823730,1.440479,-3.672521,-0.284663,0.246789
2026-01-24T18:32:41.966583,11.940184,-4.225724,5.972485,-4.273612,0.518013,0.313984
2026-01-24T18:32:41.975583,6.010770,-8.398807,4.532006,-4.720765,0.995710,0.142942
2026-01-24T18:32:41.985583,3.153740,-13.615160,5.761916,-3.958405,0.538783,-0.120951
2026-01-24T18:32:41.995583,2.598605,-14.830714,3.306880,-2.141693,-0.317649,-0.356745
2026-01-24T18:32:42.004583,4.862215,-11.332407,0.722632,-0.047647,-1.160643,-0.500909
2026-01-24T18:32:42.014583,8.226524,-7.546962,0.253639,0.717155,-1.594357,-0.597426
2026-01-24T18:32:42.023583,8.580661,-6.474977,-1.718046,0.135612,-1.615127,-0.612086
2026-01-24T18:32:42.033583,8.599804,-7.762316,-2.464607,-0.345749,-1.420872,-0.594982
2026-01-24T18:32:42.043583,8.059026,-8.164310,-2.593819,0.004886,-1.136209,-0.510683
2026-01-24T18:32:42.052583,7.298108,-6.733402,-2.675175,0.392175,-0.973718,-0.477696
2026-01-24T18:32:42.062583,7.173682,-5.240281,-2.268395,0.210137,-0.890641,-0.406836
2026-01-24T18:32:42.072583,7.063612,-4.780859,-2.120040,-0.226020,-0.797789,-0.300545
2026-01-24T18:32:42.081583,7.216752,-5.197210,-1.885544,-0.686612,-0.703716,-0.219911
2026-01-24T18:32:42.091583,7.494320,-6.384050,-1.244267,-1.036027,-0.586430,-0.087964
2026-01-24T18:32:42.100583,7.250252,-7.599604,-1.210768,-1.066570,-0.491135,0.002443
2026-01-24T18:32:42.110583,7.264609,-8.135596,-1.067198,-0.863763,-0.428827,0.054977
2026-01-24T18:32:42.120583,7.154539,-7.862815,-1.129412,-0.646295,-0.307876,0.127059
2026-01-24T18:32:42.129583,6.685546,-7.982456,-1.148554,-0.439822,-0.210137,0.182037
2026-01-24T18:32:42.139583,6.259623,-7.867600,-0.306281,-0.169820,-0.213802,0.280997
2026-01-24T18:32:42.148583,5.182853,-7.389036,-0.512064,0.117286,-0.372627,0.317649
2026-01-24T18:32:42.158583,4.728217,-6.302694,-1.531406,0.255341,-0.646295,0.300545
2026-01-24T18:32:42.168583,5.029713,-5.302494,-1.986042,0.028099,-0.829554,0.375071
2026-01-24T18:32:42.177583,5.302494,-5.426921,-2.268395,-0.437379,-0.875980,0.397062
2026-01-24T18:32:42.187583,5.522634,-7.331608,-2.488535,-0.912632,-0.861319,0.318871
2026-01-24T18:32:42.197583,5.580062,-9.772287,-2.871387,-0.966388,-0.784350,0.189368
2026-01-24T18:32:42.206583,5.848058,-11.126625,-3.115455,-0.332310,-0.614530,0.028099
2026-01-24T18:32:42.216583,6.187839,-10.499705,-2.541177,0.585208,-0.377514,-0.052534
2026-01-24T18:32:42.225583,6.183053,-8.719445,-1.636690,1.182634,-0.185702,-0.113620
2026-01-24T18:32:42.235583,6.206981,-7.010970,-1.320838,1.273042,-0.095294,-0.211359
2026-01-24T18:32:42.245583,6.077769,-6.235695,-0.713061,1.050687,-0.012217,-0.299323
2026-01-24T18:32:42.254583,5.699703,-6.369693,-0.291924,0.855211,-0.001221,-0.365297
2026-01-24T18:32:42.264583,5.982056,-6.747759,0.263210,0.762359,-0.108733,-0.368962
2026-01-24T18:32:42.273583,6.230910,-7.178467,0.502492,0.857654,-0.217467,-0.368962
2026-01-24T18:32:42.283583,6.719045,-6.991827,0.736989,1.042135,-0.298102,-0.375071
2026-01-24T18:32:42.293583,8.446663,-5.814558,2.608176,1.014036,-0.268780,-0.310319
2026-01-24T18:32:42.302583,7.968099,-4.847858,2.464607,0.822224,-0.183259,-0.294436
2026-01-24T18:32:42.312583,7.183253,-4.173082,2.761317,0.497244,-0.293215,-0.290771
2026-01-24T18:32:42.322583,7.264609,-3.924229,3.393022,0.012217,-0.465479,-0.136833
2026-01-24T18:32:42.331583,7.652246,-4.637290,2.790031,-0.466700,-0.586430,-0.172263
2026-01-24T18:32:42.341583,7.322037,-5.761916,1.708475,-0.724486,-0.651182,-0.204028
2026-01-24T18:32:42.350583,8.231309,-6.379265,1.311266,-0.780685,-0.707381,-0.122173
2026-01-24T18:32:42.360583,9.288937,-6.125625,1.387837,-0.725707,-0.564439,-0.054977
2026-01-24T18:32:42.370583,8.925228,-6.039484,0.765703,-0.891863,-0.271224,-0.007330
2026-01-24T18:32:42.379583,7.992027,-7.255038,0.684347,-1.142317,-0.068416,0.015882
2026-01-24T18:32:42.389583,7.001398,-8.441878,0.435493,-1.047022,-0.062308,0.056199
2026-01-24T18:32:42.398583,6.987041,-9.092725,0.526420,-0.784350,-0.171042,0.117286
2026-01-24T18:32:42.408583,7.159325,-9.700502,-0.234496,-0.624304,-0.278554,0.141720
2026-01-24T18:32:42.418583,7.609175,-10.169496,-1.038485,-0.404392,-0.321315,0.070860
2026-01-24T18:32:42.427583,8.130811,-10.360921,-0.799202,-0.156381,-0.222354,0.102625
2026-01-24T18:32:42.437583,7.771887,-10.336993,-0.358923,0.157603,-0.076969,0.157603
2026-01-24T18:32:42.447583,6.618547,-10.035497,-0.148355,0.542448,-0.056199,0.155159
2026-01-24T18:32:42.456583,5.905486,-9.355936,-0.124426,0.831998,-0.223576,0.098960
2026-01-24T18:32:42.466583,6.168696,-8.398807,-0.205782,1.015257,-0.432492,0.067195
2026-01-24T18:32:42.475583,7.183253,-7.594818,0.062213,1.098335,-0.513126,0.045204
2026-01-24T18:32:42.485583,7.752745,-7.322037,0.004785,1.122770,-0.441044,-0.015882
2026-01-24T18:32:42.495583,7.436892,-7.202396,0.023928,1.210734,-0.323758,-0.057421
2026-01-24T18:32:42.504583,6.781259,-7.034898,0.296710,1.307251,-0.259006,-0.052534
2026-01-24T18:32:42.514583,6.135197,-7.135396,-0.028713,1.330464,-0.340862,-0.029321
2026-01-24T18:32:42.523583,6.374479,-7.350751,-0.196211,1.361007,-0.478918,-0.069638
2026-01-24T18:32:42.533583,7.068397,-7.561319,-0.918843,1.417207,-0.507018,-0.114842
2026-01-24T18:32:42.543583,8.078169,-7.479963,-0.746560,1.435533,-0.337197,-0.101403
2026-01-24T18:32:42.552583,7.977670,-7.173682,-0.100498,1.473406,-0.056199,-0.114842
2026-01-24T18:32:42.562583,7.058826,-6.546762,0.569491,1.543045,0.042760,-0.175929
2026-01-24T18:32:42.572583,6.317051,-5.513063,1.182054,1.554040,-0.050090,-0.194255
2026-01-24T18:32:42.581583,5.862415,-4.532006,1.263410,1.356120,-0.238237,-0.096516
2026-01-24T18:32:42.591583,5.359922,-4.125226,0.751346,0.956614,-0.452040,0.045204
2026-01-24T18:32:42.600583,5.560919,-4.867001,-0.660419,0.255341,-0.675616,0.107512
2026-01-24T18:32:42.610583,6.719045,-6.838686,-1.009771,-0.323758,-0.770911,0.156381
2026-01-24T18:32:42.620583,7.709674,-8.183453,-0.823130,-0.226020,-0.712268,0.208915
2026-01-24T18:32:42.629583,8.126025,-7.728816,-0.770488,0.296880,-0.491135,0.175929
2026-01-24T18:32:42.639583,7.776673,-6.427121,-0.660419,0.588873,-0.240680,0.260228
2026-01-24T18:32:42.648583,7.255038,-5.508277,-0.090927,0.499687,-0.120951,0.439822
2026-01-24T18:32:42.658583,6.786044,-5.163711,0.114855,0.076969,-0.127059,0.580321
2026-01-24T18:32:42.668583,6.671189,-5.178068,0.162711,-0.299323,-0.199142,0.601091
2026-01-24T18:32:42.677583,6.613761,-6.015556,0.172283,-0.729372,-0.273667,0.707381
2026-01-24T18:32:42.687583,6.628118,-7.637889,0.057427,-0.968832,-0.350636,0.642630
2026-01-24T18:32:42.697583,6.900900,-8.796015,-0.569491,-0.794124,-0.412944,0.466700
2026-01-24T18:32:42.706583,7.302894,-8.556733,-0.263210,-0.283441,-0.376292,0.421496
2026-01-24T18:32:42.716583,7.087540,-7.939385,-0.559920,0.063529,-0.221133,0.415388
2026-01-24T18:32:42.725583,6.833901,-7.197610,-0.813559,0.113620,-0.112399,0.255341
2026-01-24T18:32:42.735583,6.364908,-6.336194,-0.617348,0.081855,-0.057421,0.102625
2026-01-24T18:32:42.745583,5.714060,-6.139982,-0.923629,-0.042760,-0.040317,0.054977
2026-01-24T18:32:42.754583,5.441278,-7.077969,-0.674775,-0.195476,-0.095294,-0.020769
2026-01-24T18:32:42.764583,5.718846,-8.015955,0.775274,-0.128281,-0.223576,-0.250454
2026-01-24T18:32:42.773583,5.388636,-7.915457,-0.239282,0.387288,-0.414166,-0.293215
2026-01-24T18:32:42.783583,5.627918,-5.709274,-0.445065,0.812450,-0.591317,-0.266337
2026-01-24T18:32:42.793583,6.393621,-4.130011,0.229710,0.465479,-0.667064,-0.217467
2026-01-24T18:32:42.802583,6.963113,-4.699503,-0.110069,-0.263893,-0.640186,-0.136833
2026-01-24T18:32:42.812583,7.307680,-6.077769,-0.344566,-0.675616,-0.541226,-0.075747
2026-01-24T18:32:42.822583,7.293323,-6.862615,-0.200997,-0.698829,-0.403170,-0.075747
2026-01-24T18:32:42.831583,7.503891,-6.967899,0.540777,-0.613308,-0.265115,-0.092851
2026-01-24T18:32:42.841583,7.585247,-7.092326,1.205982,-0.508239,-0.204028,-0.020769
2026-01-24T18:32:42.850583,7.642675,-6.900900,1.430907,-0.411723,-0.230907,-0.021991
2026-01-24T18:32:42.860583,7.810172,-6.642475,1.464407,-0.454483,-0.304210,-0.085521
2026-01-24T18:32:42.870583,8.059026,-6.541976,1.210768,-0.566882,-0.343306,-0.087964
2026-01-24T18:32:42.879583,8.322237,-6.862615,0.320638,-0.686612,-0.304210,-0.008552
2026-01-24T18:32:42.889583,8.580661,-7.489534,-0.047856,-0.812450,-0.190589,0.013439
2026-01-24T18:32:42.898583,8.403592,-8.733802,-0.157926,-0.899193,-0.050090,-0.057421
2026-01-24T18:32:42.908583,8.250452,-9.844072,-0.272781,-0.736703,0.087964,-0.076969
2026-01-24T18:32:42.918583,8.341379,-9.963713,0.263210,-0.321315,0.201585,-0.108733
2026-01-24T18:32:42.927583,8.456235,-9.446863,0.612562,0.070860,0.294436,-0.210137
2026-01-24T18:32:42.937583,7.853243,-8.685946,0.933200,0.379958,0.403170,-0.262671
2026-01-24T18:32:42.947583,6.819544,-7.532605,0.746560,0.627969,0.384845,-0.291993
2026-01-24T18:32:42.956583,6.226124,-6.345765,0.918843,0.515570,0.204028,-0.280997
2026-01-24T18:32:42.966583,5.833701,-6.613761,0.507278,0.072082,-0.062308,-0.265115
2026-01-24T18:32:42.975583,5.603990,-7.982456,-0.823130,-0.238237,-0.361632,-0.356745
2026-01-24T18:32:42.985583,5.919843,-9.140582,-1.205982,-0.261450,-0.607199,-0.445931
2026-01-24T18:32:42.995583,6.484549,-10.131210,-1.469193,-0.111177,-0.737925,-0.504574
2026-01-24T18:32:43.004583,6.857829,-11.021340,-2.148754,0.191811,-0.786794,-0.585208
2026-01-24T18:32:43.014583,7.393821,-11.145767,-2.593819,0.663399,-0.766024,-0.652403
2026-01-24T18:32:43.023583,7.623532,-10.719845,-2.378465,1.145982,-0.620638,-0.703716
2026-01-24T18:32:43.033583,7.202396,-9.729216,-1.718046,1.587027,-0.425162,-0.695164
2026-01-24T18:32:43.043583,6.163911,-8.547162,-1.512263,1.991420,-0.362853,-0.657290
2026-01-24T18:32:43.052583,5.498706,-7.456035,-1.421336,2.061058,-0.461814,-0.609643
2026-01-24T18:32:43.062583,5.503491,-8.154739,-1.569691,1.857029,-0.632856,-0.612086
2026-01-24T18:32:43.072583,5.867201,-9.595218,-2.344966,1.747074,-0.770911,-0.665842
2026-01-24T18:32:43.081583,6.762116,-10.849057,-2.790031,2.128254,-0.767246,-0.744033
2026-01-24T18:32:43.091583,7.891528,-10.738987,-2.215753,2.948035,-0.552222,-0.764803
2026-01-24T18:32:43.100583,8.260023,-8.671589,-1.636690,3.802024,-0.150272,-0.696386
2026-01-24T18:32:43.110583,7.843672,-5.479563,-0.981057,4.196643,0.212581,-0.586430
2026-01-24T18:32:43.120583,7.058826,-2.526820,0.153140,3.846006,0.356745,-0.456927
2026-01-24T18:32:43.129583,6.388836,-1.411765,0.823130,2.927265,0.321315,-0.312762
2026-01-24T18:32:43.139583,6.063412,-1.713260,1.330409,1.962098,0.173485,-0.177150
2026-01-24T18:32:43.148583,6.690331,-2.617747,1.354337,1.263269,0.029321,-0.112399
2026-01-24T18:32:43.158583,7.858029,-3.273381,1.550549,0.838106,0.051312,-0.063529
2026-01-24T18:32:43.168583,8.370093,-3.929014,1.641476,0.643851,0.302989,-0.092851
2026-01-24T18:32:43.177583,7.776673,-4.479363,0.961914,0.597426,0.569326,-0.135612
2026-01-24T18:32:43.187583,6.771687,-4.780859,0.875773,0.623082,0.726929,-0.127059
2026-01-24T18:32:43.197583,5.694917,-4.407579,1.009771,0.702494,0.715933,-0.141720
2026-01-24T18:32:43.206583,4.828716,-3.541377,0.909272,0.734259,0.535117,-0.144164
2026-01-24T18:32:43.216583,4.546362,-2.699103,0.636490,0.524122,0.195476,-0.080634
2026-01-24T18:32:43.225583,5.182853,-2.349751,0.545563,0.158824,-0.207694,0.059864
2026-01-24T18:32:43.235583,6.479763,-2.522035,0.210568,-0.200363,-0.477696,0.207694
2026-01-24T18:32:43.245583,7.925028,-3.388236,-0.023928,-0.613308,-0.454483,0.410501
2026-01-24T18:32:43.254583,8.752945,-4.608576,0.081355,-0.961501,-0.246789,0.582765
2026-01-24T18:32:43.264583,8.958727,-5.254638,0.406779,-1.110552,-0.009773,0.536339
2026-01-24T18:32:43.273583,8.379664,-5.551348,0.459421,-1.258382,0.178372,0.412944
2026-01-24T18:32:43.283583,7.523034,-6.130411,0.401994,-1.440419,0.259006,0.334754
2026-01-24T18:32:43.293583,6.982256,-6.833901,0.430708,-1.511280,0.202807,0.302989
2026-01-24T18:32:43.302583,7.001398,-7.178467,0.708275,-1.468519,0.039095,0.261450
2026-01-24T18:32:43.312583,7.489534,-7.173682,0.449850,-1.404989,-0.130725,0.191811
2026-01-24T18:32:43.322583,8.126025,-7.020541,-0.110069,-1.356120,-0.217467,0.221133
2026-01-24T18:32:43.331583,8.499305,-6.953542,-0.842273,-1.458745,-0.180816,0.272445
2026-01-24T18:32:43.341583,8.949156,-7.958527,-1.426122,-1.800830,-0.040317,0.277332
2026-01-24T18:32:43.350583,9.255437,-9.939785,-1.426122,-2.097710,0.182037,0.279776
2026-01-24T18:32:43.360583,9.317651,-11.542976,-0.717846,-1.881464,0.441044,0.267558
2026-01-24T18:32:43.370583,8.499305,-11.921042,-0.272781,-1.181413,0.715933,0.254119
2026-01-24T18:32:43.379583,7.125825,-11.447263,0.047856,-0.535117,0.807563,0.147829
2026-01-24T18:32:43.389583,6.197410,-10.528419,0.229710,-0.075747,0.679282,-0.024434
2026-01-24T18:32:43.398583,6.541976,-9.279366,0.181854,0.259006,0.469144,-0.122173
2026-01-24T18:32:43.408583,7.982456,-8.236095,0.076570,0.321315,0.377514,-0.223576
2026-01-24T18:32:43.418583,9.059226,-8.279166,-0.291924,0.246789,0.508239,-0.383623
2026-01-24T18:32:43.427583,9.327222,-9.317651,-0.832702,0.254119,0.810007,-0.469144
2026-01-24T18:32:43.437583,9.513862,-10.179067,-0.023928,0.607199,1.224173,-0.438601
2026-01-24T18:32:43.447583,8.906085,-9.719645,0.894915,1.275486,1.657887,-0.414166
2026-01-24T18:32:43.456583,7.752745,-8.518448,1.483550,1.816712,1.964542,-0.469144
2026-01-24T18:32:43.466583,7.159325,-7.709674,2.397608,1.863138,2.034180,-0.509461
2026-01-24T18:32:43.475583,5.560919,-7.661817,2.445464,1.813047,1.892460,-0.403170
2026-01-24T18:32:43.485583,5.154139,-6.508477,2.775674,1.761734,1.426980,-0.502131
2026-01-24T18:32:43.495583,7.824529,-5.752345,2.569891,1.525941,1.216843,-0.658512
2026-01-24T18:32:43.504583,9.513862,-5.158925,2.096112,1.408654,1.519832,-0.669508
2026-01-24T18:32:43.514583,8.374879,-4.283152,2.067398,1.511280,1.886351,-0.579100
2026-01-24T18:32:43.523583,6.130411,-2.909672,3.225524,1.484402,1.940107,-0.511904
2026-01-24T18:32:43.533583,5.091926,-2.598605,4.216153,1.268155,1.745852,-0.520457
2026-01-24T18:32:43.543583,3.287738,-2.431107,3.555734,1.198517,1.429424,-0.387288
2026-01-24T18:32:43.552583,4.082155,-1.808973,3.742374,0.937067,0.882089,-0.089186
2026-01-24T18:32:43.562583,6.719045,-2.818745,3.469592,0.237015,0.682947,-0.096516
2026-01-24T18:32:43.572583,6.345765,-4.163511,3.852444,-0.061086,0.886976,-0.097738
2026-01-24T18:32:43.581583,4.967499,-4.828716,4.766502,0.026878,0.845437,0.039095
2026-01-24T18:32:43.591583,4.216153,-4.474578,6.269195,0.102625,0.555887,0.197920
2026-01-24T18:32:43.600583,4.086941,-4.039084,6.680760,0.237015,0.188146,0.261450
2026-01-24T18:32:43.610583,4.723431,-3.866801,5.919843,0.145385,-0.145385,0.376292
2026-01-24T18:32:43.620583,6.278766,-4.350151,5.589633,-0.164933,-0.375071,0.450818
2026-01-24T18:32:43.629583,7.580461,-5.072783,5.264209,-0.349414,-0.359188,0.441044
2026-01-24T18:32:43.639583,8.365307,-5.398207,4.795216,-0.538783,-0.166155,0.437379
2026-01-24T18:32:43.648583,7.996813,-6.130411,4.488935,-0.816115,0.092851,0.298102
2026-01-24T18:32:43.658583,6.943971,-5.958128,4.584648,-0.812450,0.266337,0.094073
2026-01-24T18:32:43.668583,6.565905,-4.608576,4.417150,-0.744033,0.310319,0.024434
2026-01-24T18:32:43.677583,6.814758,-3.527020,4.163511,-0.933401,0.333532,0.094073
2026-01-24T18:32:43.687583,6.259623,-3.751945,3.948157,-1.260825,0.337197,0.234572
2026-01-24T18:32:43.697583,5.924628,-5.259424,4.278366,-1.596801,0.207694,0.360410
2026-01-24T18:32:43.706583,6.455835,-6.719045,4.220939,-1.793499,0.042760,0.419053
2026-01-24T18:32:43.716583,6.776473,-8.169096,4.201796,-1.761734,-0.074525,0.382401
2026-01-24T18:32:43.725583,6.431907,-9.044869,4.613361,-1.430646,-0.223576,0.427605
2026-01-24T18:32:43.735583,6.336194,-9.408578,4.709074,-1.055574,-0.437379,0.505796
2026-01-24T18:32:43.745583,7.044469,-10.442277,4.354937,-0.842993,-0.626747,0.563217
2026-01-24T18:32:43.754583,7.915457,-11.734402,4.307080,-0.494800,-0.667064,0.481361
2026-01-24T18:32:43.764583,7.767102,-11.691331,4.579862,0.197920,-0.583987,0.387288
2026-01-24T18:32:43.773583,7.283751,-9.872786,4.943571,0.902858,-0.566882,0.405614
2026-01-24T18:32:43.783583,6.699903,-8.202595,5.216353,1.167974,-0.626747,0.454483
2026-01-24T18:32:43.793583,6.393621,-7.757530,5.240281,1.214399,-0.790459,0.493579
2026-01-24T18:32:43.802583,6.235695,-7.695317,5.714060,1.307251,-0.993266,0.569326
2026-01-24T18:32:43.812583,5.800201,-7.484749,5.785845,1.457524,-1.175304,0.642630
2026-01-24T18:32:43.822583,5.584847,-6.929614,5.527420,1.528384,-1.419650,0.709825
2026-01-24T18:32:43.831583,5.111069,-7.135396,4.378865,1.188743,-1.617570,0.656069
2026-01-24T18:32:43.841583,5.292923,-7.972884,2.818745,0.687834,-1.817934,0.386066
2026-01-24T18:32:43.850583,6.369693,-8.484948,0.899701,0.570548,-1.896125,0.204028
2026-01-24T18:32:43.860583,7.384250,-8.384450,-0.502492,0.630412,-1.827708,0.298102
2026-01-24T18:32:43.870583,8.465806,-8.341379,-1.153340,0.616973,-1.406211,0.291993
2026-01-24T18:32:43.879583,8.475377,-7.819744,-0.933200,0.730594,-0.847880,0.163711
2026-01-24T18:32:43.889583,7.360322,-6.159125,0.033499,0.910189,-0.382401,0.083077
2026-01-24T18:32:43.898583,5.498706,-4.034298,1.268195,0.652403,-0.197920,0.045204
2026-01-24T18:32:43.908583,4.106083,-3.282952,1.660618,-0.114842,-0.384845,-0.035430
2026-01-24T18:32:43.918583,4.039084,-2.689532,1.081555,-0.872315,-0.714712,-0.023212
2026-01-24T18:32:43.927583,4.924428,-1.962114,1.560120,-1.436754,-0.950506,0.219911
2026-01-24T18:32:43.937583,5.508277,-2.976671,0.435493,-2.139249,-0.984714,0.436157
2026-01-24T18:32:43.947583,6.575476,-6.862615,-0.315852,-2.752558,-0.985936,0.393397
2026-01-24T18:32:43.956583,7.226324,-10.868200,-0.746560,-2.328617,-0.950506,0.376292
2026-01-24T18:32:43.966583,7.192824,-11.456834,-1.182054,-0.746477,-0.695164,0.280997
2026-01-24T18:32:43.975583,6.580262,-8.451449,-0.717846,0.750142,-0.404392,0.161268
2026-01-24T18:32:43.985583,5.742774,-4.651647,0.258424,1.175304,-0.300545,0.107512
2026-01-24T18:32:43.995583,5.005784,-2.407179,0.966700,0.722042,-0.388510,0.157603
2026-01-24T18:32:44.004583,4.642075,-1.335195,1.598405,-0.019547,-0.635299,0.222354
2026-01-24T18:32:44.014583,4.785645,-1.057627,1.866401,-0.888197,-0.943175,0.279776
2026-01-24T18:32:44.023583,4.790430,-1.325623,0.880558,-1.839925,-1.208291,0.348193
2026-01-24T18:32:44.033583,5.594419,-2.373680,0.009571,-2.752558,-1.452637,0.406836
2026-01-24T18:32:44.043583,6.570690,-4.005585,-0.669990,-3.772702,-1.483180,0.382401
2026-01-24T18:32:44.052583,7.121040,-6.369693,-0.579063,-4.274834,-1.370781,0.337197
2026-01-24T18:32:44.062583,7.312465,-7.719245,-0.942772,-4.053700,-1.202182,0.291993
2026-01-24T18:32:44.072583,7.221538,-8.015955,-1.612762,-3.772702,-0.983492,0.056199
2026-01-24T18:32:44.081583,7.278966,-8.341379,-2.191825,-3.499035,-0.886976,0.102625
2026-01-24T18:32:44.091583,7.312465,-8.197810,-2.751745,-3.225367,-0.792902,0.373849
2026-01-24T18:32:44.100583,7.116254,-7.738388,-2.895315,-2.916270,-0.690277,0.570548
2026-01-24T18:32:44.110583,6.470192,-7.417750,-3.694518,-2.913826,-0.678060,0.708603
2026-01-24T18:32:44.120583,6.120840,-7.666603,-4.383651,-3.290119,-0.708603,0.758694
2026-01-24T18:32:44.129583,6.005984,-8.982656,-4.747360,-3.662747,-0.720820,0.701273
2026-01-24T18:32:44.139583,5.886343,-10.710273,-5.134997,-3.676186,-0.704938,0.557108
2026-01-24T18:32:44.148583,5.857629,-12.433106,-5.627918,-3.255911,-0.707381,0.364075
2026-01-24T18:32:44.158583,5.871986,-13.060025,-5.867201,-2.461786,-0.724486,0.335975
2026-01-24T18:32:44.168583,6.379265,-12.026326,-5.173282,-1.328020,-0.724486,0.293215
2026-01-24T18:32:44.177583,7.231109,-9.604789,-3.402593,-0.482583,-0.615752,0.227241
2026-01-24T18:32:44.187583,7.594818,-7.551748,-2.196611,-0.361632,-0.420275,0.273667
2026-01-24T18:32:44.197583,7.235895,-6.575476,-1.981257,-0.693942,-0.245567,0.295658
2026-01-24T18:32:44.206583,6.800401,-6.752545,-1.531406,-1.167974,-0.150272,0.313984
2026-01-24T18:32:44.216583,6.312266,-7.570890,-1.421336,-1.544267,-0.083077,0.302989
2026-01-24T18:32:44.225583,5.924628,-8.379664,-2.024327,-1.468519,-0.056199,0.223576
2026-01-24T18:32:44.235583,6.029912,-7.858029,-2.254038,-1.011592,-0.037873,0.169820
2026-01-24T18:32:44.245583,6.379265,-6.991827,-1.679761,-0.802676,0.012217,0.249232
2026-01-24T18:32:44.254583,6.374479,-6.752545,-1.612762,-0.821002,0.019547,0.345749
2026-01-24T18:32:44.264583,6.254838,-6.982256,-2.139183,-0.861319,0.015882,0.382401
2026-01-24T18:32:44.273583,6.096911,-7.058826,-3.196810,-0.810007,0.054977,0.417831
2026-01-24T18:32:44.283583,6.364908,-6.819544,-3.594019,-0.682947,0.163711,0.421496
2026-01-24T18:32:44.293583,6.407978,-6.498906,-3.795016,-0.691499,0.324980,0.456927
2026-01-24T18:32:44.302583,6.130411,-6.403193,-4.125226,-0.777020,0.485026,0.465479
2026-01-24T18:32:44.312583,5.781059,-6.321837,-3.996013,-0.905302,0.608421,0.466700
2026-01-24T18:32:44.322583,5.139782,-6.302694,-3.996013,-1.196073,0.693942,0.427605
2026-01-24T18:32:44.331583,4.718646,-6.240481,-4.149154,-1.291368,0.635299,0.364075
2026-01-24T18:32:44.341583,5.431707,-5.398207,-2.885744,-1.288925,0.549778,0.376292
2026-01-24T18:32:44.350583,5.747559,-4.393222,-1.986042,-1.433089,0.530230,0.381179
2026-01-24T18:32:44.360583,4.733003,-4.354937,-2.593819,-1.751961,0.359188,0.399505
2026-01-24T18:32:44.370583,4.230510,-5.422136,-3.048455,-2.196670,0.023212,0.453261
2026-01-24T18:32:44.379583,4.742574,-6.953542,-3.646661,-2.464229,-0.340862,0.515570
2026-01-24T18:32:44.389583,6.020341,-8.111668,-4.149154,-2.421469,-0.533896,0.489913
2026-01-24T18:32:44.398583,6.915257,-8.714659,-4.857429,-2.190562,-0.508239,0.503352
2026-01-24T18:32:44.408583,7.322037,-8.834301,-4.847858,-1.964542,-0.389731,0.537561
2026-01-24T18:32:44.418583,7.293323,-8.671589,-4.354937,-1.814269,-0.244346,0.565661
2026-01-24T18:32:44.427583,6.939185,-8.575876,-3.833301,-1.787391,-0.133168,0.548556
2026-01-24T18:32:44.437583,6.455835,-9.035298,-3.254238,-1.831373,-0.117286,0.496022
2026-01-24T18:32:44.447583,6.001199,-9.714859,-3.038884,-1.710422,-0.218689,0.411723
2026-01-24T18:32:44.456583,5.838487,-10.011569,-3.493520,-1.263269,-0.346971,0.340862
2026-01-24T18:32:44.466583,5.757131,-9.513862,-4.173082,-0.687834,-0.475253,0.293215
2026-01-24T18:32:44.475583,5.618347,-9.174081,-3.866801,-0.276111,-0.588873,0.276111
2026-01-24T18:32:44.485583,6.297909,-9.260223,-4.019941,-0.173485,-0.717155,0.216246
2026-01-24T18:32:44.495583,6.336194,-10.308279,-4.388436,-0.025656,-0.660956,0.052534
2026-01-24T18:32:44.504583,5.948556,-11.643474,-5.613561,0.422718,-0.460592,-0.200363
2026-01-24T18:32:44.514583,5.824130,-12.136396,-5.221138,1.352455,-0.227241,-0.560774
2026-01-24T18:32:44.523583,6.446264,-10.662417,-5.216353,2.412917,0.006108,-0.717155
2026-01-24T18:32:44.533583,7.834101,-7.412964,-1.574477,3.370753,0.260228,-0.637743
2026-01-24T18:32:44.543583,7.384250,-5.077569,0.186640,3.287676,0.533896,-0.551000
2026-01-24T18:32:44.552583,6.317051,-5.307280,0.162711,2.097710,0.432492,-0.316428
2026-01-24T18:32:44.562583,6.518048,-6.972685,-0.464207,1.181413,0.186924,-0.046425
2026-01-24T18:32:44.572583,6.953542,-10.021141,-1.119840,0.775798,0.147829,-0.114842
2026-01-24T18:32:44.581583,7.121040,-12.193823,-1.469193,0.927293,0.194255,-0.083077
2026-01-24T18:32:44.591583,7.302894,-12.524033,-2.388036,1.830151,0.395840,-0.221133
2026-01-24T18:32:44.600583,6.891329,-11.633903,-2.794816,2.717128,0.676838,-0.439822
2026-01-24T18:32:44.610583,5.900700,-11.437692,-3.436093,3.235141,0.861319,-0.729372
2026-01-24T18:32:44.620583,5.532205,-11.720045,-3.388236,3.878993,0.902858,-1.081231
2026-01-24T18:32:44.629583,5.268995,-10.992627,-3.857230,4.581488,0.893084,-1.319468
2026-01-24T18:32:44.639583,5.599204,-9.288937,-4.292723,5.013980,0.796568,-1.304807
2026-01-24T18:32:44.648583,6.589833,-7.192824,-3.723231,5.138597,0.751364,-1.158200
2026-01-24T18:32:44.658583,7.566105,-5.077569,-2.684746,4.836829,0.896749,-1.010370
2026-01-24T18:32:44.668583,7.700103,-3.833301,-2.330609,3.969401,1.159421,-0.783129
2026-01-24T18:32:44.677583,7.360322,-4.359722,-1.579262,2.840522,1.459967,-0.509461
2026-01-24T18:32:44.687583,6.518048,-6.025127,-0.612562,1.915672,1.701870,-0.313984
2026-01-24T18:32:44.697583,5.307280,-8.015955,-0.679561,1.393994,1.732413,-0.113620
2026-01-24T18:32:44.706583,4.962714,-9.834500,-1.167697,1.210734,1.544267,0.009773
2026-01-24T18:32:44.716583,5.642275,-11.011769,-1.569691,1.284038,1.380555,0.026878
2026-01-24T18:32:44.725583,6.972685,-9.437292,-3.474378,1.655444,1.455080,0.158824
2026-01-24T18:32:44.735583,7.092326,-9.781858,-0.880558,2.493551,2.078163,0.731816
2026-01-24T18:32:44.745583,6.417550,-8.556733,-0.684347,2.608394,1.898568,0.350636
2026-01-24T18:32:44.754583,5.551348,-9.169296,-1.497906,2.001194,1.775174,0.285884
2026-01-24T18:32:44.764583,4.991427,-10.451849,-2.239681,1.655444,1.551597,0.389731
2026-01-24T18:32:44.773583,5.201996,-10.135996,-2.464607,2.021963,1.467297,0.474031
2026-01-24T18:32:44.783583,5.359922,-8.772087,-2.086541,2.333504,1.457524,0.508239
2026-01-24T18:32:44.793583,5.469992,-7.872386,-1.071984,2.177123,1.413541,0.569326
2026-01-24T18:32:44.802583,4.876572,-7.403393,-0.890130,1.977981,1.332907,0.604756
2026-01-24T18:32:44.812583,3.933800,-6.819544,-1.009771,1.886351,1.156978,0.615752
2026-01-24T18:32:44.822583,3.608376,-6.278766,-1.095912,1.673770,0.864984,0.645073
2026-01-24T18:32:44.831583,3.560520,-6.250052,-1.459621,1.375668,0.549778,0.667064
2026-01-24T18:32:44.841583,4.010370,-6.369693,-1.928615,1.145982,0.298102,0.671951
2026-01-24T18:32:44.850583,4.709074,-6.494120,-1.928615,1.015257,0.138055,0.703716
2026-01-24T18:32:44.860583,5.302494,-6.786044,-1.493121,1.071457,0.112399,0.747698
2026-01-24T18:32:44.870583,5.292923,-6.958328,-0.736989,1.204625,0.182037,0.852767
2026-01-24T18:32:44.879583,4.445864,-7.006184,0.066999,1.280373,0.171042,0.948062
2026-01-24T18:32:44.889583,3.426521,-6.953542,0.349352,1.341459,-0.007330,0.945619
2026-01-24T18:32:44.898583,3.115455,-6.331408,0.081355,1.353677,-0.296880,0.910189
2026-01-24T18:32:44.908583,3.656232,-5.120640,-0.043070,1.260825,-0.608421,0.992044
2026-01-24T18:32:44.918583,4.455435,-3.766302,0.023928,0.967610,-0.841772,1.139874
2026-01-24T18:32:44.927583,5.106283,-2.799602,-0.004785,0.448374,-0.989601,1.269377
2026-01-24T18:32:44.937583,5.517848,-2.574677,0.406779,-0.183259,-1.109331,1.472184
2026-01-24T18:32:44.947583,5.718846,-2.756531,1.540977,-0.828333,-1.205847,1.711644
2026-01-24T18:32:44.956583,5.197210,-3.263810,2.292324,-1.448972,-1.298699,1.794721
2026-01-24T18:32:44.966583,4.106083,-4.632504,2.469392,-1.930333,-1.523497,1.698205
2026-01-24T18:32:44.975583,3.814159,-6.168696,2.311466,-2.117258,-1.811825,1.420872
2026-01-24T18:32:44.985583,4.287938,-6.891329,1.727617,-1.903455,-2.109928,1.156978
2026-01-24T18:32:44.995583,5.091926,-6.996613,1.004985,-1.565036,-2.278526,0.891863
2026-01-24T18:32:45.004583,5.991627,-6.853043,0.650847,-1.252273,-2.276083,0.659734
2026-01-24T18:32:45.014583,6.556333,-6.570690,0.540777,-0.918741,-2.054950,0.572991
2026-01-24T18:32:45.023583,6.527620,-6.254838,0.636490,-0.663399,-1.755626,0.421496
2026-01-24T18:32:45.033583,6.297909,-6.206981,0.981057,-0.493579,-1.490510,0.155159
2026-01-24T18:32:45.043583,5.895914,-6.245266,1.043270,-0.304210,-1.297477,-0.147829
2026-01-24T18:32:45.052583,5.608776,-6.163911,0.995414,-0.067195,-1.160643,-0.503352
2026-01-24T18:32:45.062583,5.522634,-5.953342,0.923629,0.140498,-1.065348,-0.864984
2026-01-24T18:32:45.072583,5.532205,-6.139982,0.588634,0.205250,-0.999375,-1.232725
2026-01-24T18:32:45.081583,5.603990,-6.843472,0.282353,0.204028,-0.928514,-1.633453
2026-01-24T18:32:45.091583,5.953342,-7.901100,-0.296710,0.320093,-0.856432,-2.072054
2026-01-24T18:32:45.100583,6.398407,-8.810372,-0.531206,0.643851,-0.759916,-2.476447
2026-01-24T18:32:45.110583,7.034898,-9.327222,-0.387637,1.170417,-0.648738,-2.717128
2026-01-24T18:32:45.120583,7.824529,-9.327222,0.363709,1.786169,-0.449596,-2.840522
2026-01-24T18:32:45.129583,8.427521,-9.198010,1.292124,2.328617,-0.185702,-2.929709
2026-01-24T18:32:45.139583,8.427521,-8.963513,2.215753,2.659706,0.042760,-2.880839
2026-01-24T18:32:45.148583,7.728816,-8.489734,2.924029,2.971247,0.073303,-2.679254
2026-01-24T18:32:45.158583,6.963113,-7.432106,3.369094,3.108081,-0.157603,-2.481334
2026-01-24T18:32:45.168583,6.642475,-6.307480,3.713660,2.808757,-0.542448,-2.287078
2026-01-24T18:32:45.177583,6.661618,-5.938985,3.541377,2.274861,-0.937067,-2.074497
2026-01-24T18:32:45.187583,6.819544,-5.785845,3.211167,1.793499,-1.255938,-1.903455
2026-01-24T18:32:45.197583,7.408178,-6.135197,2.335394,1.264490,-1.474628,-1.788613
2026-01-24T18:32:45.206583,7.786244,-6.776473,2.062613,1.023809,-1.576031,-1.624901
2026-01-24T18:32:45.216583,8.537591,-7.322037,1.253839,0.998153,-1.558927,-1.467297
2026-01-24T18:32:45.225583,8.685946,-7.307680,1.210768,1.105665,-1.474628,-1.277929
2026-01-24T18:32:45.235583,8.537591,-7.149753,1.162911,1.120326,-1.339016,-1.099557
2026-01-24T18:32:45.245583,8.178667,-7.298108,1.287338,1.031140,-1.232725,-1.022588
2026-01-24T18:32:45.254583,8.020741,-7.168896,1.531406,1.007927,-1.163087,-0.990823
2026-01-24T18:32:45.264583,7.992027,-6.814758,2.100898,0.981049,-1.034805,-0.908967
2026-01-24T18:32:45.273583,8.298308,-6.628118,2.636890,0.855211,-0.932180,-0.825889
2026-01-24T18:32:45.283583,8.575876,-6.604190,3.105883,0.726929,-0.840550,-0.805120
2026-01-24T18:32:45.293583,8.819944,-6.709474,2.813959,0.619417,-0.813672,-0.847880
2026-01-24T18:32:45.302583,9.102297,-6.733402,2.402393,0.625525,-0.788015,-0.805120
2026-01-24T18:32:45.312583,9.475577,-6.781259,2.134397,0.830776,-0.706160,-0.730594
2026-01-24T18:32:45.322583,9.858429,-6.422335,2.330609,0.951727,-0.499687,-0.772133
2026-01-24T18:32:45.331583,9.614361,-6.269195,2.148754,0.944397,-0.194255,-0.778242
2026-01-24T18:32:45.341583,8.920442,-6.068198,2.033899,0.968832,0.105068,-0.646295
2026-01-24T18:32:45.350583,8.279166,-6.178267,2.392822,0.907745,0.282219,-0.525343
2026-01-24T18:32:45.360583,8.030312,-6.532405,2.885744,0.895528,0.332310,-0.482583
2026-01-24T18:32:45.370583,8.207381,-6.570690,3.311666,1.047022,0.306654,-0.455705
2026-01-24T18:32:45.379583,8.858229,-5.948556,3.646661,1.159421,0.304210,-0.433714
2026-01-24T18:32:45.389583,9.882357,-5.158925,4.364508,1.114217,0.384845,-0.393397
2026-01-24T18:32:45.398583,10.121639,-4.034298,4.977071,0.933401,0.516791,-0.215024
2026-01-24T18:32:45.408583,9.336793,-3.268595,4.493720,0.521678,0.632856,-0.144164
2026-01-24T18:32:45.418583,8.882157,-3.598805,4.742574,-0.164933,0.670729,-0.084299
2026-01-24T18:32:45.427583,8.724231,-4.747360,4.795216,-0.593760,0.670729,-0.006108
2026-01-24T18:32:45.437583,8.891728,-5.685346,4.661218,-0.601091,0.625525,0.020769
2026-01-24T18:32:45.447583,9.131011,-6.135197,4.206582,-0.383623,0.620638,0.062308
2026-01-24T18:32:45.456583,8.934799,-5.953342,3.699303,-0.150272,0.723264,0.131946
2026-01-24T18:32:45.466583,8.480163,-5.728417,3.062812,-0.106290,0.879645,0.136833
2026-01-24T18:32:45.475583,8.078169,-5.278566,2.684746,-0.142942,0.967610,0.146607
2026-01-24T18:32:45.485583,8.293523,-4.847858,3.330809,-0.312762,1.014036,0.249232
2026-01-24T18:32:45.495583,8.499305,-5.139782,3.144168,-0.696386,1.153313,0.362853
2026-01-24T18:32:45.504583,8.331808,-6.010770,2.656033,-0.941954,1.390328,0.377514
2026-01-24T18:32:45.514583,7.604390,-6.709474,3.077169,-0.949284,1.554040,0.392175
2026-01-24T18:32:45.523583,7.058826,-6.857829,3.081955,-0.781907,1.588249,0.412944
2026-01-24T18:32:45.533583,6.814758,-6.886543,3.522234,-0.592539,1.618792,0.452040
2026-01-24T18:32:45.543583,6.661618,-7.211967,3.785445,-0.434935,1.601688,0.509461
2026-01-24T18:32:45.552583,6.604190,-7.322037,4.110869,-0.213802,1.527162,0.548556
2026-01-24T18:32:45.562583,6.570690,-7.183253,4.216153,-0.130725,1.406211,0.543669
2026-01-24T18:32:45.572583,6.652046,-7.590033,4.197010,-0.116064,1.312138,0.527787
2026-01-24T18:32:45.581583,6.589833,-7.996813,4.240081,0.073303,1.182634,0.514348
2026-01-24T18:32:45.591583,6.202196,-7.561319,4.220939,0.447153,1.005483,0.487470
2026-01-24T18:32:45.600583,5.752345,-6.704688,3.924229,0.685390,0.773355,0.469144
2026-01-24T18:32:45.610583,6.144768,-5.900700,3.560520,0.603534,0.597426,0.499687
2026-01-24T18:32:45.620583,7.077969,-5.522634,3.268595,0.312762,0.553443,0.499687
2026-01-24T18:32:45.629583,6.824330,-4.914857,2.158325,0.083077,0.586430,0.452040
2026-01-24T18:32:45.639583,6.642475,-3.871586,2.450250,-0.116064,0.555887,0.510683
2026-01-24T18:32:45.648583,6.379265,-3.215953,2.560320,-0.425162,0.514348,0.642630
2026-01-24T18:32:45.658583,6.656832,-3.225524,3.321237,-0.790459,0.475253,0.704938
2026-01-24T18:32:45.668583,6.431907,-4.254438,2.986242,-0.988379,0.432492,0.637743
2026-01-24T18:32:45.677583,6.561119,-4.833501,2.995813,-0.818559,0.339641,0.575434
2026-01-24T18:32:45.687583,6.781259,-4.618147,3.235096,-0.634077,0.261450,0.605978
2026-01-24T18:32:45.697583,6.269195,-4.465006,2.933600,-0.640186,0.186924,0.557108
2026-01-24T18:32:45.706583,6.077769,-4.125226,3.168097,-0.638964,0.026878,0.470366
2026-01-24T18:32:45.716583,5.666203,-3.823730,3.230310,-0.546113,-0.219911,0.431270
2026-01-24T18:32:45.725583,5.670989,-3.460021,3.359522,-0.489913,-0.504574,0.372627
2026-01-24T18:32:45.735583,6.111268,-3.445664,3.278166,-0.638964,-0.728151,0.273667
2026-01-24T18:32:45.745583,6.427121,-4.125226,3.000599,-0.847880,-0.860098,0.153938
2026-01-24T18:32:45.754583,6.221338,-4.584648,2.282752,-0.878424,-0.929736,0.069638
2026-01-24T18:32:45.764583,6.604190,-4.086941,1.832902,-0.835663,-1.020144,0.076969
2026-01-24T18:32:45.773583,7.695317,-3.488735,2.038684,-1.050687,-0.985936,0.124616
2026-01-24T18:32:45.783583,8.159525,-3.842873,1.828116,-1.524719,-0.827111,0.161268
2026-01-24T18:32:45.793583,8.614161,-4.828716,2.081755,-1.951103,-0.631634,0.147829
2026-01-24T18:32:45.802583,8.250452,-5.771488,2.153540,-2.232101,-0.476474,0.186924
2026-01-24T18:32:45.812583,8.178667,-6.436692,2.636890,-2.298074,-0.376292,0.223576
2026-01-24T18:32:45.822583,7.518248,-6.967899,2.880958,-2.219883,-0.305432,0.240680
2026-01-24T18:32:45.831583,6.714260,-7.570890,3.259024,-2.001194,-0.356745,0.238237
2026-01-24T18:32:45.841583,5.953342,-7.829315,3.632304,-1.666440,-0.549778,0.267558
2026-01-24T18:32:45.850583,5.335994,-8.035098,3.268595,-1.284038,-0.877202,0.238237
2026-01-24T18:32:45.860583,5.407779,-7.805387,2.727817,-0.840550,-1.219286,0.163711
2026-01-24T18:32:45.870583,5.862415,-6.896114,2.043470,-0.401949,-1.458745,0.146607
2026-01-24T18:32:45.879583,6.202196,-5.848058,1.531406,-0.244346,-1.590692,0.166155
2026-01-24T18:32:45.889583,6.326622,-5.154139,1.119840,-0.300545,-1.644448,0.158824
2026-01-24T18:32:45.898583,6.431907,-4.589433,1.134197,-0.390953,-1.662774,0.151494
2026-01-24T18:32:45.908583,6.474977,-4.302295,1.540977,-0.530230,-1.635896,0.127059
2026-01-24T18:32:45.918583,6.211767,-4.608576,1.579262,-0.822224,-1.622457,-0.006108
2026-01-24T18:32:45.927583,6.230910,-5.819344,1.698904,-1.073900,-1.656666,-0.244346
2026-01-24T18:32:45.937583,6.719045,-7.690531,1.363908,-1.026253,-1.689652,-0.520457
2026-01-24T18:32:45.947583,7.240681,-9.556933,1.282552,-0.604756,-1.698205,-0.813672
2026-01-24T18:32:45.956583,7.613961,-10.959127,0.823130,0.057421,-1.689652,-0.974940
2026-01-24T18:32:45.966583,7.599604,-11.705688,0.019142,0.775798,-1.582140,-0.951727
2026-01-24T18:32:45.975583,7.087540,-11.657831,-0.995414,1.563814,-1.463632,-0.922406
2026-01-24T18:32:45.985583,6.867400,-10.518848,-0.669990,2.419025,-1.379333,-0.965166
2026-01-24T18:32:45.995583,6.479763,-8.504091,0.430708,3.003012,-1.451415,-0.904080
2026-01-24T18:32:46.004583,7.077969,-6.283552,0.416351,3.152063,-1.738522,-0.836885
2026-01-24T18:32:46.014583,8.461020,-4.570291,0.885344,2.753779,-1.877799,-0.671951
2026-01-24T18:32:46.023583,9.384650,-3.838087,1.229910,1.914451,-1.784947,-0.414166
2026-01-24T18:32:46.033583,9.351150,-4.819144,0.425922,0.852767,-1.649335,-0.076969
2026-01-24T18:32:46.043583,8.973084,-5.690132,0.129212,0.109955,-1.385442,0.050090
2026-01-24T18:32:46.052583,8.025527,-8.800801,2.163111,-0.594982,-1.451415,0.692721
2026-01-24T18:32:46.062583,7.312465,-11.251051,-0.124426,-0.612086,-1.561371,0.689055
2026-01-24T18:32:46.072583,8.063812,-11.184052,-1.239482,-0.162490,-1.541823,0.306654
2026-01-24T18:32:46.081583,8.585447,-10.710273,-0.933200,0.145385,-1.237612,0.320093
2026-01-24T18:32:46.091583,8.791230,-10.566704,-0.062213,0.376292,-0.766024,0.315206
2026-01-24T18:32:46.100583,8.279166,-10.116853,0.459421,0.714712,-0.477696,0.098960
2026-01-24T18:32:46.110583,7.336394,-8.939585,0.114855,1.183856,-0.313984,-0.161268
2026-01-24T18:32:46.120583,6.321837,-7.484749,-0.411565,1.591914,-0.235793,-0.379958
2026-01-24T18:32:46.129583,6.652046,-5.934200,2.000399,1.688431,-0.294436,-0.409279
2026-01-24T18:32:46.139583,7.551748,-4.412364,3.043670,1.682322,-0.310319,-0.408057
2026-01-24T18:32:46.148583,8.116454,-3.914657,2.354537,1.326799,-0.282219,-0.405614
2026-01-24T18:32:46.158583,9.044869,-4.656432,3.192025,0.960279,-0.205250,-0.393397
2026-01-24T18:32:46.168583,9.236295,-5.642275,3.445664,0.889419,-0.019547,-0.393397
2026-01-24T18:32:46.177583,8.532805,-6.307480,2.431107,1.058018,0.141720,-0.404392
2026-01-24T18:32:46.187583,8.169096,-6.838686,2.100898,1.238834,0.183259,-0.432492
2026-01-24T18:32:46.197583,8.216952,-7.073183,1.741974,1.436754,0.201585,-0.483805
2026-01-24T18:32:46.206583,8.212167,-6.340979,1.119840,1.665218,0.243124,-0.510683
2026-01-24T18:32:46.216583,8.590233,-5.469992,0.890130,1.677435,0.237015,-0.536339
2026-01-24T18:32:46.225583,9.317651,-4.867001,1.861615,1.467297,0.305432,-0.460592
2026-01-24T18:32:46.235583,9.059226,-5.034498,1.244267,1.142317,0.447153,-0.398284
2026-01-24T18:32:46.245583,8.216952,-5.402993,0.847059,0.965166,0.530230,-0.423940
2026-01-24T18:32:46.254583,7.202396,-5.580062,0.808774,0.912632,0.520457,-0.387288
2026-01-24T18:32:46.264583,6.106483,-5.857629,0.129212,0.915075,0.426383,-0.366519
2026-01-24T18:32:46.273583,6.508477,-6.096911,-0.291924,0.879645,0.167377,-0.355523
2026-01-24T18:32:46.283583,8.221738,-6.135197,0.526420,0.981049,0.023212,-0.302989
2026-01-24T18:32:46.293583,8.657232,-5.804987,-0.239282,1.144761,0.277332,-0.232128
2026-01-24T18:32:46.302583,9.083154,-4.890929,0.564706,1.158200,0.492357,-0.276111
2026-01-24T18:32:46.312583,8.968299,-4.005585,2.115255,1.012814,0.730594,-0.283441
2026-01-24T18:32:46.322583,7.384250,-3.957728,2.196611,0.657290,0.840550,-0.263893
2026-01-24T18:32:46.331583,6.527620,-4.704289,2.880958,0.249232,0.665842,-0.262671
2026-01-24T18:32:46.341583,6.101697,-6.891329,2.780459,0.142942,0.436157,-0.368962
2026-01-24T18:32:46.350583,6.072983,-8.930013,1.158126,0.397062,0.160046,-0.504574
2026-01-24T18:32:46.360583,6.254838,-7.666603,1.674975,1.374446,-0.138055,-0.591317
2026-01-24T18:32:46.370583,6.776473,-4.388436,2.431107,1.684765,-0.279776,-0.477696
2026-01-24T18:32:46.379583,7.484749,-3.613162,2.833101,1.080009,-0.270002,-0.392175
2026-01-24T18:32:46.389583,7.307680,-5.565705,2.383251,0.467922,-0.204028,-0.456927
2026-01-24T18:32:46.398583,6.269195,-7.728816,1.957328,0.464257,-0.184481,-0.511904
2026-01-24T18:32:46.408583,5.221138,-7.948956,2.239681,1.058018,-0.312762,-0.592539
2026-01-24T18:32:46.418583,5.173282,-5.886343,2.665604,1.695761,-0.620638,-0.660956
2026-01-24T18:32:46.427583,6.226124,-3.330809,3.259024,1.876577,-0.965166,-0.592539
2026-01-24T18:32:46.437583,7.853243,-2.158325,2.584248,1.456302,-1.174082,-0.557108
2026-01-24T18:32:46.447583,9.896714,-3.043670,2.847458,0.773355,-1.169195,-0.586430
2026-01-24T18:32:46.456583,11.672188,-4.694717,3.871586,0.520457,-0.908967,-0.524122
2026-01-24T18:32:46.466583,11.944970,-4.412364,3.665804,0.783129,-0.515570,-0.412944
2026-01-24T18:32:46.475583,12.155538,-2.871387,4.273581,0.824667,-0.156381,-0.223576
2026-01-24T18:32:46.485583,12.098111,-3.488735,4.608576,0.177150,0.261450,-0.094073
2026-01-24T18:32:46.495583,10.633703,-5.852844,3.852444,-0.300545,0.587652,-0.202807
2026-01-24T18:32:46.504583,9.279366,-7.168896,4.110869,-0.074525,0.647517,-0.357966
2026-01-24T18:32:46.514583,9.102297,-6.489334,3.957728,0.559552,0.520457,-0.437379
2026-01-24T18:32:46.523583,9.992427,-3.302095,5.020141,1.027475,0.390953,-0.309097
2026-01-24T18:32:46.533583,10.892128,-0.095712,5.125426,0.803898,0.423940,-0.134390
2026-01-24T18:32:46.543583,11.782258,-0.253639,5.781059,-0.317649,0.590095,0.012217
2026-01-24T18:32:46.552583,10.925627,-4.106083,4.938785,-1.174082,0.834441,-0.118507
2026-01-24T18:32:46.562583,9.308079,-7.508677,4.503292,-0.989601,0.841772,-0.322536
2026-01-24T18:32:46.572583,8.724231,-8.015955,5.441278,-0.106290,0.614530,-0.428827
2026-01-24T18:32:46.581583,8.657232,-6.943971,3.943371,0.825889,0.299323,-0.542448
2026-01-24T18:32:46.591583,8.705088,-5.321637,2.603390,1.331685,0.023212,-0.748920
2026-01-24T18:32:46.600583,9.068797,-3.436093,2.641676,1.495397,-0.101403,-0.899193
2026-01-24T18:32:46.610583,9.198010,-1.670190,2.809173,1.480737,-0.117286,-0.875980
2026-01-24T18:32:46.620583,9.623932,-0.780060,2.995813,1.089783,-0.101403,-0.750142
2026-01-24T18:32:46.629583,9.638289,-0.818345,3.498306,0.551000,-0.025656,-0.612086
2026-01-24T18:32:46.639583,9.083154,-1.038485,3.105883,0.153938,-0.036651,-0.497244
2026-01-24T18:32:46.648583,8.805587,-1.363908,2.876172,-0.185702,-0.122173,-0.350636
2026-01-24T18:32:46.658583,8.743373,-1.215553,3.282952,-0.449596,-0.224798,-0.160046
2026-01-24T18:32:46.668583,8.432306,-0.770488,3.201596,-0.831998,-0.356745,0.057421
2026-01-24T18:32:46.677583,8.437092,-1.545763,1.871187,-1.505171,-0.514348,0.136833
2026-01-24T18:32:46.687583,8.958727,-3.254238,1.014556,-2.046398,-0.574213,0.166155
2026-01-24T18:32:46.697583,9.853643,-5.010570,0.832702,-2.254092,-0.412944,0.218689
2026-01-24T18:32:46.706583,10.116853,-6.154339,0.784845,-2.056171,-0.080634,0.289550
2026-01-24T18:32:46.716583,9.475577,-6.321837,0.325423,-1.684765,0.301767,0.164933
2026-01-24T18:32:46.725583,8.030312,-6.211767,0.043070,-1.522275,0.657290,-0.048869
2026-01-24T18:32:46.735583,6.838686,-6.187839,1.162911,-1.517388,0.770911,-0.086742
2026-01-24T18:32:46.745583,5.819344,-5.991627,1.249053,-1.492954,0.873537,-0.223576
2026-01-24T18:32:46.754583,5.627918,-6.905686,0.153140,-1.609018,0.775798,-0.362853
2026-01-24T18:32:46.764583,6.202196,-9.064012,0.339780,-1.638340,0.527787,-0.285884
2026-01-24T18:32:46.773583,7.350751,-10.561918,0.124426,-1.165530,0.554665,-0.411723
2026-01-24T18:32:46.783583,7.972884,-9.853643,0.311066,-0.315206,0.803898,-0.592539
2026-01-24T18:32:46.793583,8.111668,-7.264609,1.143769,0.381179,1.055574,-0.728151
2026-01-24T18:32:46.802583,8.906085,-4.575076,2.651247,0.317649,1.049466,-0.511904
2026-01-24T18:32:46.812583,8.839086,-3.704089,1.813759,-0.085521,1.229060,-0.668286
2026-01-24T18:32:46.822583,8.365307,-3.589233,3.278166,-0.450818,1.448972,-0.780685
2026-01-24T18:32:46.831583,6.240481,-5.187639,3.187239,-0.717155,1.481958,-0.485026
2026-01-24T18:32:46.841583,4.565505,-6.417550,2.531606,-0.574213,1.020144,-0.410501
2026-01-24T18:32:46.850583,4.153940,-5.699703,1.507478,-0.050090,0.241902,-0.422718
2026-01-24T18:32:46.860583,5.010570,-3.555734,0.119641,0.312762,-0.483805,-0.423940
2026-01-24T18:32:46.870583,7.384250,-1.019342,0.047856,0.178372,-0.896749,-0.397062
2026-01-24T18:32:46.879583,10.241280,0.483350,0.780060,-0.311541,-0.831998,-0.360410
2026-01-24T18:32:46.889583,11.748758,0.674775,0.440279,-0.817337,-0.412944,-0.393397
2026-01-24T18:32:46.898583,11.408978,0.866201,0.698704,-1.067792,0.039095,-0.431270
2026-01-24T18:32:46.908583,9.796215,1.560120,0.837487,-1.196073,0.277332,-0.519235
2026-01-24T18:32:46.918583,7.633104,1.899901,0.047856,-1.332907,0.212581,-0.667064
2026-01-24T18:32:46.927583,6.848258,2.421536,-0.406779,-1.599244,-0.015882,-0.834441
2026-01-24T18:32:46.937583,5.876772,2.110469,-0.837487,-1.958433,-0.160046,-0.974940
2026-01-24T18:32:46.947583,4.575076,1.655833,-2.402393,-2.047619,-0.364075,-1.216843
2026-01-24T18:32:46.956583,3.818944,1.368694,-3.349951,-2.228435,-0.577878,-1.353677
2026-01-24T18:32:46.966583,3.900300,0.387637,-3.153740,-2.653598,-0.803898,-1.402546
2026-01-24T18:32:46.975583,8.461020,-0.588634,4.584648,-2.386039,-0.974940,-2.009746
2026-01-24T18:32:46.985583,11.873185,-0.291924,2.584248,-0.560774,-0.983492,-3.137403
2026-01-24T18:32:46.995583,12.208180,4.886143,-1.024128,1.656666,-0.823446,-3.695733
2026-01-24T18:32:47.004583,7.843672,10.786844,-5.986842,2.067167,-0.767246,-3.714059
2026-01-24T18:32:47.014583,3.455235,11.940184,-8.164310,-0.724486,-1.221730,-2.178344
2026-01-24T18:32:47.023583,1.440479,0.598205,-9.159724,-6.764720,-1.262047,-0.577878
2026-01-24T18:32:47.033583,-0.143569,-15.247065,-10.753344,-11.838565,-1.231504,-0.296880
2026-01-24T18:32:47.043583,1.081555,-29.316862,-11.097911,-13.153147,-2.240653,-0.216246
2026-01-24T18:32:47.052583,7.240681,-31.097122,-6.183053,-8.488581,-3.359758,-0.320093
2026-01-24T18:32:47.062583,15.395420,-27.311678,9.695717,-0.048869,-2.395812,-0.541226
2026-01-24T18:32:47.072583,18.922441,-21.401405,8.949156,1.040914,-1.689652,0.045204
2026-01-24T18:32:47.081583,21.717257,-20.109282,8.341379,-0.521678,-2.008524,0.940732
2026-01-24T18:32:47.091583,21.396620,-15.242279,8.561519,0.756251,-1.717752,1.335351
2026-01-24T18:32:47.100583,17.539389,-9.327222,5.345565,2.844187,-0.168598,0.808785
2026-01-24T18:32:47.110583,12.279965,-3.335594,5.551348,3.057990,1.149648,-0.168598
2026-01-24T18:32:47.120583,7.044469,-0.224925,6.197410,2.002415,1.180191,-0.454483
2026-01-24T18:32:47.129583,4.843072,-0.272781,4.302295,1.130100,0.423940,-0.312762
2026-01-24T18:32:47.139583,6.034698,-0.832702,3.029313,0.530230,-0.480139,-0.291993
2026-01-24T18:32:47.148583,9.097511,-2.790031,1.957328,0.028099,-1.032362,-0.080634
2026-01-24T18:32:47.158583,12.413963,-4.608576,2.297109,0.036651,-1.039692,0.122173
2026-01-24T18:32:47.168583,13.691730,-5.895914,1.847259,0.348193,-0.634077,0.212581
2026-01-24T18:32:47.177583,13.270594,-7.020541,2.005185,0.768468,-0.158824,0.196698
2026-01-24T18:32:47.187583,11.633903,-7.633104,2.952743,1.240056,0.087964,0.116064
2026-01-24T18:32:47.197583,9.523433,-8.087740,2.952743,1.800830,0.116064,-0.065973
2026-01-24T18:32:47.206583,8.465806,-7.561319,2.550748,2.414138,-0.028099,-0.232128
2026-01-24T18:32:47.216583,8.748159,-6.508477,1.560120,2.867400,-0.199142,-0.287106
2026-01-24T18:32:47.225583,9.963713,-5.091926,0.693918,3.111746,-0.213802,-0.276111
2026-01-24T18:32:47.235583,10.983055,-3.651447,0.071784,3.098307,0.031764,-0.223576
2026-01-24T18:32:47.245583,11.069197,-2.148754,-0.014356,2.662150,0.398284,-0.130725
2026-01-24T18:32:47.254583,10.552347,-2.129612,0.349352,1.976759,0.670729,-0.051312
2026-01-24T18:32:47.264583,9.705288,-2.627319,1.038485,1.475850,0.856432,-0.025656
2026-01-24T18:32:47.273583,8.341379,-3.326023,1.062413,1.139874,0.908967,0.069638
2026-01-24T18:32:47.283583,7.671389,-3.646661,1.282552,0.907745,0.825889,0.224798
2026-01-24T18:32:47.293583,7.451249,-4.101297,1.129412,0.711046,0.715933,0.394618
2026-01-24T18:32:47.302583,7.159325,-4.335794,0.540777,0.607199,0.583987,0.568104
2026-01-24T18:32:47.312583,7.288537,-4.488935,0.124426,0.498465,0.436157,0.755029
2026-01-24T18:32:47.322583,7.700103,-4.843072,-0.220139,0.351858,0.345749,0.928514
2026-01-24T18:32:47.331583,7.987241,-5.264209,-0.526420,0.257785,0.318871,1.076344
2026-01-24T18:32:47.341583,8.255237,-5.278566,-0.397208,0.226020,0.335975,1.215621
2026-01-24T18:32:47.350583,8.494520,-4.914857,0.004785,0.157603,0.365297,1.367116
2026-01-24T18:32:47.360583,8.446663,-4.666004,0.579063,0.043982,0.359188,1.545488
2026-01-24T18:32:47.370583,8.126025,-4.297509,1.062413,-0.056199,0.309097,1.678657
2026-01-24T18:32:47.379583,7.853243,-4.407579,1.445264,-0.116064,0.169820,1.727526
2026-01-24T18:32:47.389583,8.633303,-4.575076,1.718046,-0.160046,0.001221,1.742187
2026-01-24T18:32:47.398583,9.221938,-4.388436,1.359123,-0.067195,-0.070860,1.754404
2026-01-24T18:32:47.408583,8.939585,-3.948157,0.851844,-0.012217,-0.085521,1.813047
2026-01-24T18:32:47.418583,8.116454,-4.024727,0.579063,-0.195476,-0.134390,1.926668
2026-01-24T18:32:47.427583,7.862815,-3.943371,0.961914,-0.422718,-0.263893,1.941329
2026-01-24T18:32:47.437583,8.245666,-3.589233,1.019342,-0.591317,-0.394618,1.846034
2026-01-24T18:32:47.447583,7.747959,-4.230510,0.191425,-0.736703,-0.444709,1.794721
2026-01-24T18:32:47.456583,7.829315,-4.642075,-0.033499,-0.788015,-0.585208,1.699426
2026-01-24T18:32:47.466583,9.202795,-4.656432,0.540777,-0.714712,-0.620638,1.466076
2026-01-24T18:32:47.475583,9.628718,-4.249652,0.473778,-0.442266,-0.453261,1.258382
2026-01-24T18:32:47.485583,9.499505,-3.522234,0.641276,-0.222354,-0.252898,1.220508
2026-01-24T18:32:47.495583,9.710074,-3.732803,0.890130,-0.218689,-0.059864,1.084896
2026-01-24T18:32:47.504583,11.227123,-3.948157,1.923829,-0.262671,0.160046,0.774576
2026-01-24T18:32:47.514583,12.078968,-2.957528,1.962114,0.048869,0.536339,0.206472
2026-01-24T18:32:47.523583,10.935199,-1.416550,1.282552,0.267558,0.875980,-0.054977
2026-01-24T18:32:47.533583,9.896714,-0.133998,2.402393,0.061086,1.028696,0.237015
2026-01-24T18:32:47.543583,8.556733,-0.378065,2.392822,-0.270002,0.834441,0.280997
2026-01-24T18:32:47.552583,7.724031,-1.009771,2.053041,-0.574213,0.436157,0.262671
