Timestamp,Acceleration_X,Acceleration_Y,Acceleration_Z,Gyro_X,Gyro_Y,Gyro_Z
2026-03-09T22:15:27.960741,-9.729216,0.086141,2.239681,0.009773,-0.050090,-0.008552
2026-03-09T22:15:27.970741,-9.815358,0.124426,2.268395,0.009773,-0.052534,-0.007330
2026-03-09T22:15:27.979741,-9.714859,0.133998,2.282752,0.010995,-0.052534,-0.007330
2026-03-09T22:15:27.989741,-9.695717,0.071784,2.244467,0.010995,-0.052534,-0.008552
2026-03-09T22:15:27.998741,-9.772287,0.124426,2.287538,0.012217,-0.053756,-0.010995
2026-03-09T22:15:28.008741,-9.805787,0.090927,2.254038,0.012217,-0.053756,-0.012217
2026-03-09T22:15:28.018741,-9.743573,0.090927,2.249253,0.009773,-0.052534,-0.009773
2026-03-09T22:15:28.027741,-9.700502,0.062213,2.287538,0.010995,-0.053756,-0.008552
2026-03-09T22:15:28.037741,-9.738787,0.076570,2.277967,0.012217,-0.051312,-0.007330
2026-03-09T22:15:28.047741,-9.777073,0.076570,2.234896,0.012217,-0.050090,-0.008552
2026-03-09T22:15:28.056741,-9.753144,0.062213,2.277967,0.010995,-0.054977,-0.009773
2026-03-09T22:15:28.066741,-9.719645,0.153140,2.244467,0.009773,-0.052534,-0.008552
2026-03-09T22:15:28.075741,-9.829715,0.105284,2.301895,0.010995,-0.052534,-0.007330
2026-03-09T22:15:28.085741,-9.777073,0.114855,2.182254,0.012217,-0.053756,-0.007330
2026-03-09T22:15:28.095741,-9.738787,0.076570,2.230110,0.010995,-0.053756,-0.008552
2026-03-09T22:15:28.104741,-9.719645,0.100498,2.263610,0.012217,-0.053756,-0.010995
2026-03-09T22:15:28.114741,-9.796215,0.095712,2.292324,0.012217,-0.052534,-0.010995
2026-03-09T22:15:28.123741,-9.724431,0.124426,2.258824,0.009773,-0.051312,-0.010995
2026-03-09T22:15:28.133741,-9.748359,0.129212,2.230110,0.009773,-0.052534,-0.010995
2026-03-09T22:15:28.143741,-9.714859,0.105284,2.230110,0.009773,-0.053756,-0.009773
2026-03-09T22:15:28.152741,-9.753144,0.090927,2.292324,0.009773,-0.052534,-0.010995
2026-03-09T22:15:28.162741,-9.729216,0.062213,2.254038,0.012217,-0.053756,-0.009773
2026-03-09T22:15:28.172741,-9.700502,0.081355,2.277967,0.010995,-0.054977,-0.006108
2026-03-09T22:15:28.181741,-9.796215,0.138783,2.220539,0.012217,-0.052534,-0.008552
2026-03-09T22:15:28.191741,-9.724431,0.086141,2.215753,0.010995,-0.053756,-0.009773
2026-03-09T22:15:28.200741,-9.748359,0.081355,2.206182,0.013439,-0.053756,-0.007330
2026-03-09T22:15:28.210741,-9.695717,0.110069,2.282752,0.014660,-0.053756,-0.009773
2026-03-09T22:15:28.220741,-9.757930,0.043070,2.297109,0.012217,-0.053756,-0.010995
2026-03-09T22:15:28.229741,-9.801001,0.105284,2.201396,0.013439,-0.053756,-0.009773
2026-03-09T22:15:28.239741,-9.743573,0.090927,2.230110,0.008552,-0.051312,-0.010995
2026-03-09T22:15:28.248741,-9.734002,0.090927,2.239681,0.008552,-0.051312,-0.009773
2026-03-09T22:15:28.258741,-9.743573,0.100498,2.263610,0.009773,-0.051312,-0.009773
2026-03-09T22:15:28.268741,-9.753144,0.095712,2.263610,0.012217,-0.054977,-0.010995
2026-03-09T22:15:28.277741,-9.686145,0.095712,2.287538,0.013439,-0.052534,-0.009773
2026-03-09T22:15:28.287741,-9.734002,0.105284,2.282752,0.013439,-0.052534,-0.009773
2026-03-09T22:15:28.297741,-9.724431,0.100498,2.325823,0.010995,-0.052534,-0.008552
2026-03-09T22:15:28.306741,-9.748359,0.124426,2.249253,0.010995,-0.054977,-0.008552
2026-03-09T22:15:28.316741,-9.724431,0.100498,2.330609,0.010995,-0.053756,-0.008552
2026-03-09T22:15:28.325741,-9.724431,0.105284,2.301895,0.009773,-0.051312,-0.008552
2026-03-09T22:15:28.335741,-9.777073,0.071784,2.254038,0.009773,-0.053756,-0.009773
2026-03-09T22:15:28.345741,-9.767501,0.133998,2.273181,0.010995,-0.056199,-0.008552
2026-03-09T22:15:28.354741,-9.753144,0.124426,2.263610,0.012217,-0.052534,-0.008552
2026-03-09T22:15:28.364741,-9.753144,0.052642,2.330609,0.008552,-0.052534,-0.009773
2026-03-09T22:15:28.373741,-9.738787,0.105284,2.230110,0.010995,-0.052534,-0.009773
2026-03-09T22:15:28.383741,-9.714859,0.081355,2.254038,0.012217,-0.056199,-0.010995
2026-03-09T22:15:28.393741,-9.729216,0.076570,2.254038,0.012217,-0.052534,-0.009773
2026-03-09T22:15:28.402741,-9.767501,0.138783,2.230110,0.012217,-0.053756,-0.008552
2026-03-09T22:15:28.412741,-9.690931,0.133998,2.258824,0.008552,-0.053756,-0.009773
2026-03-09T22:15:28.422741,-9.757930,0.124426,2.239681,0.010995,-0.054977,-0.007330
2026-03-09T22:15:28.431741,-9.743573,0.124426,2.239681,0.010995,-0.052534,-0.009773
2026-03-09T22:15:28.441741,-9.734002,0.081355,2.254038,0.013439,-0.053756,-0.009773
2026-03-09T22:15:28.450741,-9.729216,0.129212,2.277967,0.010995,-0.053756,-0.007330
2026-03-09T22:15:28.460741,-9.738787,0.105284,2.292324,0.009773,-0.054977,-0.008552
2026-03-09T22:15:28.470741,-9.719645,0.095712,2.287538,0.010995,-0.054977,-0.009773
2026-03-09T22:15:28.479741,-9.796215,0.100498,2.249253,0.009773,-0.053756,-0.007330
2026-03-09T22:15:28.489741,-9.734002,0.110069,2.287538,0.009773,-0.051312,-0.008552
2026-03-09T22:15:28.498741,-9.772287,0.086141,2.234896,0.010995,-0.053756,-0.008552
2026-03-09T22:15:28.508741,-9.748359,0.100498,2.316252,0.012217,-0.052534,-0.009773
2026-03-09T22:15:28.518741,-9.786644,0.105284,2.301895,0.013439,-0.053756,-0.009773
2026-03-09T22:15:28.527741,-9.738787,0.133998,2.263610,0.012217,-0.054977,-0.009773
2026-03-09T22:15:28.537741,-9.719645,0.110069,2.220539,0.012217,-0.054977,-0.009773
2026-03-09T22:15:28.547741,-9.791430,0.081355,2.234896,0.010995,-0.051312,-0.010995
2026-03-09T22:15:28.556741,-9.738787,0.100498,2.254038,0.009773,-0.051312,-0.008552
2026-03-09T22:15:28.566741,-9.762716,0.081355,2.244467,0.009773,-0.053756,-0.009773
2026-03-09T22:15:28.575741,-9.753144,0.119641,2.244467,0.009773,-0.051312,-0.008552
2026-03-09T22:15:28.585741,-9.748359,0.114855,2.220539,0.010995,-0.048869,-0.008552
2026-03-09T22:15:28.595741,-9.762716,0.133998,2.282752,0.009773,-0.051312,-0.010995
2026-03-09T22:15:28.604741,-9.738787,0.086141,2.234896,0.010995,-0.054977,-0.010995
2026-03-09T22:15:28.614741,-9.743573,0.162711,2.287538,0.012217,-0.056199,-0.008552
2026-03-09T22:15:28.623741,-9.777073,0.143569,2.249253,0.012217,-0.051312,-0.008552
2026-03-09T22:15:28.633741,-9.757930,0.081355,2.254038,0.010995,-0.052534,-0.009773
2026-03-09T22:15:28.643741,-9.686145,0.090927,2.220539,0.009773,-0.053756,-0.009773
2026-03-09T22:15:28.652741,-9.801001,0.081355,2.249253,0.013439,-0.052534,-0.010995
2026-03-09T22:15:28.662741,-9.796215,0.133998,2.254038,0.008552,-0.052534,-0.009773
2026-03-09T22:15:28.672741,-9.695717,0.057427,2.220539,0.008552,-0.056199,-0.007330
2026-03-09T22:15:28.681741,-9.781858,0.124426,2.316252,0.010995,-0.053756,-0.008552
2026-03-09T22:15:28.691741,-9.820143,0.086141,2.321037,0.013439,-0.052534,-0.007330
2026-03-09T22:15:28.700741,-9.667003,0.124426,2.206182,0.012217,-0.054977,-0.004886
2026-03-09T22:15:28.710741,-9.647860,0.076570,2.254038,0.010995,-0.052534,-0.004886
2026-03-09T22:15:28.720741,-9.858429,0.129212,2.249253,0.009773,-0.047647,-0.006108
2026-03-09T22:15:28.729741,-9.820143,0.105284,2.239681,0.010995,-0.054977,-0.010995
2026-03-09T22:15:28.739741,-9.686145,0.138783,2.297109,0.010995,-0.054977,-0.010995
2026-03-09T22:15:28.748741,-9.753144,0.172283,2.244467,0.010995,-0.050090,-0.010995
2026-03-09T22:15:28.758741,-9.829715,0.086141,2.239681,0.008552,-0.051312,-0.009773
2026-03-09T22:15:28.768741,-9.743573,0.110069,2.234896,0.010995,-0.057421,-0.010995
2026-03-09T22:15:28.777741,-9.686145,0.114855,2.297109,0.010995,-0.054977,-0.013439
2026-03-09T22:15:28.787741,-9.781858,0.066999,2.249253,0.010995,-0.053756,-0.010995
2026-03-09T22:15:28.797741,-9.738787,0.162711,2.344966,0.010995,-0.052534,-0.008552
2026-03-09T22:15:28.806741,-9.777073,0.119641,2.263610,0.012217,-0.048869,-0.006108
2026-03-09T22:15:28.816741,-9.734002,0.081355,2.191825,0.012217,-0.053756,-0.006108
2026-03-09T22:15:28.825741,-9.700502,0.124426,2.349751,0.010995,-0.054977,-0.008552
2026-03-09T22:15:28.835741,-9.796215,0.090927,2.268395,0.012217,-0.051312,-0.008552
2026-03-09T22:15:28.845741,-9.743573,0.110069,2.258824,0.012217,-0.053756,-0.006108
2026-03-09T22:15:28.854741,-9.753144,0.133998,2.330609,0.012217,-0.054977,-0.007330
2026-03-09T22:15:28.864741,-9.781858,0.129212,2.220539,0.010995,-0.051312,-0.010995
2026-03-09T22:15:28.873741,-9.719645,0.124426,2.215753,0.012217,-0.054977,-0.012217
2026-03-09T22:15:28.883741,-9.734002,0.110069,2.239681,0.010995,-0.054977,-0.010995
2026-03-09T22:15:28.893741,-9.738787,0.105284,2.282752,0.009773,-0.052534,-0.010995
2026-03-09T22:15:28.902741,-9.738787,0.114855,2.268395,0.012217,-0.053756,-0.009773
2026-03-09T22:15:28.912741,-9.724431,0.095712,2.254038,0.010995,-0.053756,-0.010995
2026-03-09T22:15:28.922741,-9.772287,0.124426,2.287538,0.010995,-0.053756,-0.010995
2026-03-09T22:15:28.931741,-9.729216,0.119641,2.258824,0.012217,-0.053756,-0.009773
2026-03-09T22:15:28.941741,-9.743573,0.100498,2.268395,0.010995,-0.051312,-0.008552
2026-03-09T22:15:28.950741,-9.781858,0.129212,2.206182,0.012217,-0.051312,-0.007330
2026-03-09T22:15:28.960741,-9.719645,0.095712,2.234896,0.010995,-0.051312,-0.007330
2026-03-09T22:15:28.970741,-9.667003,0.095712,2.282752,0.010995,-0.050090,-0.008552
2026-03-09T22:15:28.979741,-9.757930,0.153140,2.230110,0.010995,-0.052534,-0.009773
2026-03-09T22:15:28.989741,-9.786644,0.057427,2.292324,0.010995,-0.054977,-0.008552
2026-03-09T22:15:28.998741,-9.757930,0.100498,2.287538,0.009773,-0.053756,-0.009773
2026-03-09T22:15:29.008741,-9.700502,0.086141,2.230110,0.009773,-0.052534,-0.009773
2026-03-09T22:15:29.018741,-9.748359,0.100498,2.249253,0.010995,-0.053756,-0.009773
2026-03-09T22:15:29.027741,-9.805787,0.100498,2.306680,0.013439,-0.053756,-0.009773
2026-03-09T22:15:29.037741,-9.796215,0.110069,2.287538,0.013439,-0.057421,-0.010995
2026-03-09T22:15:29.047741,-9.762716,0.119641,2.268395,0.010995,-0.054977,-0.008552
2026-03-09T22:15:29.056741,-9.753144,0.114855,2.292324,0.010995,-0.051312,-0.007330
2026-03-09T22:15:29.066741,-9.767501,0.062213,2.244467,0.009773,-0.052534,-0.007330
2026-03-09T22:15:29.075741,-9.753144,0.153140,2.230110,0.009773,-0.051312,-0.007330
2026-03-09T22:15:29.085741,-9.738787,0.114855,2.254038,0.009773,-0.052534,-0.009773
2026-03-09T22:15:29.095741,-9.710074,0.086141,2.249253,0.014660,-0.053756,-0.008552
2026-03-09T22:15:29.104741,-9.753144,0.090927,2.340180,0.010995,-0.052534,-0.007330
2026-03-09T22:15:29.114741,-9.714859,0.119641,2.292324,0.008552,-0.052534,-0.008552
2026-03-09T22:15:29.123741,-9.700502,0.138783,2.301895,0.010995,-0.053756,-0.009773
2026-03-09T22:15:29.133741,-9.786644,0.105284,2.268395,0.010995,-0.054977,-0.009773
2026-03-09T22:15:29.143741,-9.681360,0.081355,2.258824,0.010995,-0.052534,-0.009773
2026-03-09T22:15:29.152741,-9.757930,0.095712,2.249253,0.009773,-0.051312,-0.008552
2026-03-09T22:15:29.162741,-9.724431,0.095712,2.249253,0.010995,-0.051312,-0.009773
2026-03-09T22:15:29.172741,-9.734002,0.086141,2.292324,0.010995,-0.052534,-0.010995
2026-03-09T22:15:29.181741,-9.748359,0.114855,2.292324,0.009773,-0.053756,-0.009773
2026-03-09T22:15:29.191741,-9.748359,0.124426,2.220539,0.010995,-0.053756,-0.007330
2026-03-09T22:15:29.200741,-9.714859,0.066999,2.282752,0.009773,-0.053756,-0.007330
2026-03-09T22:15:29.210741,-9.757930,0.119641,2.239681,0.009773,-0.054977,-0.008552
2026-03-09T22:15:29.220741,-9.743573,0.114855,2.297109,0.009773,-0.054977,-0.007330
2026-03-09T22:15:29.229741,-9.729216,0.133998,2.225325,0.009773,-0.052534,-0.008552
2026-03-09T22:15:29.239741,-9.695717,0.095712,2.244467,0.010995,-0.052534,-0.009773
2026-03-09T22:15:29.248741,-9.786644,0.081355,2.287538,0.012217,-0.053756,-0.009773
2026-03-09T22:15:29.258741,-9.710074,0.133998,2.167897,0.010995,-0.052534,-0.010995
2026-03-09T22:15:29.268741,-9.738787,0.138783,2.249253,0.013439,-0.053756,-0.012217
2026-03-09T22:15:29.277741,-9.743573,0.119641,2.287538,0.012217,-0.054977,-0.010995
2026-03-09T22:15:29.287741,-9.724431,0.143569,2.239681,0.010995,-0.053756,-0.010995
2026-03-09T22:15:29.297741,-9.762716,0.062213,2.254038,0.009773,-0.052534,-0.009773
2026-03-09T22:15:29.306741,-9.767501,0.095712,2.263610,0.009773,-0.050090,-0.007330
2026-03-09T22:15:29.316741,-9.738787,0.124426,2.287538,0.012217,-0.052534,-0.008552
2026-03-09T22:15:29.325741,-9.757930,0.071784,2.230110,0.013439,-0.053756,-0.008552
2026-03-09T22:15:29.335741,-9.767501,0.076570,2.258824,0.012217,-0.051312,-0.007330
2026-03-09T22:15:29.345741,-9.729216,0.071784,2.225325,0.012217,-0.052534,-0.008552
2026-03-09T22:15:29.354741,-9.734002,0.066999,2.249253,0.009773,-0.053756,-0.009773
2026-03-09T22:15:29.364741,-9.671788,0.119641,2.297109,0.008552,-0.054977,-0.009773
2026-03-09T22:15:29.373741,-9.801001,0.110069,2.277967,0.009773,-0.054977,-0.010995
2026-03-09T22:15:29.383741,-9.753144,0.133998,2.225325,0.010995,-0.053756,-0.010995
2026-03-09T22:15:29.393741,-9.753144,0.066999,2.277967,0.012217,-0.053756,-0.010995
2026-03-09T22:15:29.402741,-9.748359,0.114855,2.244467,0.012217,-0.054977,-0.010995
2026-03-09T22:15:29.412741,-9.796215,0.066999,2.244467,0.010995,-0.052534,-0.009773
2026-03-09T22:15:29.422741,-9.748359,0.114855,2.282752,0.012217,-0.051312,-0.009773
2026-03-09T22:15:29.431741,-9.772287,0.076570,2.301895,0.010995,-0.053756,-0.008552
2026-03-09T22:15:29.441741,-9.700502,0.148355,2.316252,0.010995,-0.053756,-0.009773
2026-03-09T22:15:29.450741,-9.796215,0.086141,2.258824,0.010995,-0.052534,-0.009773
2026-03-09T22:15:29.460741,-9.729216,0.114855,2.277967,0.010995,-0.053756,-0.008552
2026-03-09T22:15:29.470741,-9.729216,0.081355,2.282752,0.012217,-0.052534,-0.007330
2026-03-09T22:15:29.479741,-9.762716,0.167497,2.230110,0.010995,-0.053756,-0.008552
2026-03-09T22:15:29.489741,-9.786644,0.110069,2.239681,0.008552,-0.052534,-0.008552
2026-03-09T22:15:29.498741,-9.748359,0.124426,2.287538,0.012217,-0.053756,-0.009773
2026-03-09T22:15:29.508741,-9.743573,0.076570,2.273181,0.013439,-0.056199,-0.009773
2026-03-09T22:15:29.518741,-9.681360,0.105284,2.277967,0.012217,-0.053756,-0.008552
2026-03-09T22:15:29.527741,-9.690931,0.157926,2.258824,0.009773,-0.052534,-0.008552
2026-03-09T22:15:29.537741,-9.724431,0.148355,2.225325,0.009773,-0.052534,-0.008552
2026-03-09T22:15:29.547741,-9.738787,0.167497,2.220539,0.010995,-0.053756,-0.008552
2026-03-09T22:15:29.556741,-9.777073,0.138783,2.287538,0.009773,-0.053756,-0.008552
2026-03-09T22:15:29.566741,-9.772287,0.143569,2.220539,0.010995,-0.053756,-0.008552
2026-03-09T22:15:29.575741,-9.762716,0.129212,2.239681,0.010995,-0.053756,-0.008552
2026-03-09T22:15:29.585741,-9.801001,0.124426,2.287538,0.012217,-0.052534,-0.009773
2026-03-09T22:15:29.595741,-9.781858,0.133998,2.254038,0.010995,-0.053756,-0.008552
2026-03-09T22:15:29.604741,-9.719645,0.066999,2.273181,0.012217,-0.052534,-0.008552
2026-03-09T22:15:29.614741,-9.757930,0.129212,2.187039,0.010995,-0.051312,-0.008552
2026-03-09T22:15:29.623741,-9.743573,0.119641,2.206182,0.010995,-0.051312,-0.009773
2026-03-09T22:15:29.633741,-9.676574,0.066999,2.297109,0.010995,-0.053756,-0.008552
2026-03-09T22:15:29.643741,-9.757930,0.133998,2.239681,0.009773,-0.052534,-0.009773
2026-03-09T22:15:29.652741,-9.777073,0.114855,2.306680,0.013439,-0.052534,-0.009773
2026-03-09T22:15:29.662741,-9.757930,0.086141,2.258824,0.010995,-0.052534,-0.009773
2026-03-09T22:15:29.672741,-9.671788,0.100498,2.225325,0.010995,-0.052534,-0.009773
2026-03-09T22:15:29.681741,-9.695717,0.105284,2.301895,0.013439,-0.052534,-0.010995
2026-03-09T22:15:29.691741,-9.714859,0.105284,2.287538,0.010995,-0.054977,-0.009773
2026-03-09T22:15:29.700741,-9.748359,0.143569,2.306680,0.010995,-0.053756,-0.007330
2026-03-09T22:15:29.710741,-9.724431,0.090927,2.258824,0.010995,-0.052534,-0.008552
2026-03-09T22:15:29.720741,-9.743573,0.124426,2.239681,0.012217,-0.056199,-0.009773
2026-03-09T22:15:29.729741,-9.710074,0.095712,2.258824,0.009773,-0.056199,-0.010995
2026-03-09T22:15:29.739741,-9.714859,0.100498,2.292324,0.013439,-0.052534,-0.009773
2026-03-09T22:15:29.748741,-9.762716,0.129212,2.225325,0.012217,-0.053756,-0.009773
2026-03-09T22:15:29.758741,-9.762716,0.062213,2.234896,0.010995,-0.052534,-0.008552
2026-03-09T22:15:29.768741,-9.781858,0.090927,2.201396,0.010995,-0.054977,-0.008552
2026-03-09T22:15:29.777741,-9.772287,0.110069,2.249253,0.010995,-0.054977,-0.008552
2026-03-09T22:15:29.787741,-9.690931,0.028713,2.225325,0.009773,-0.051312,-0.009773
2026-03-09T22:15:29.797741,-9.786644,0.124426,2.311466,0.008552,-0.052534,-0.009773
2026-03-09T22:15:29.806741,-9.734002,0.071784,2.268395,0.010995,-0.052534,-0.008552
2026-03-09T22:15:29.816741,-9.767501,0.153140,2.321037,0.012217,-0.051312,-0.009773
2026-03-09T22:15:29.825741,-9.762716,0.090927,2.287538,0.012217,-0.053756,-0.010995
2026-03-09T22:15:29.835741,-9.724431,0.143569,2.311466,0.013439,-0.056199,-0.010995
2026-03-09T22:15:29.845741,-9.772287,0.090927,2.225325,0.012217,-0.053756,-0.009773
2026-03-09T22:15:29.854741,-9.710074,0.105284,2.282752,0.010995,-0.053756,-0.009773
2026-03-09T22:15:29.864741,-9.743573,0.086141,2.254038,0.009773,-0.053756,-0.007330
2026-03-09T22:15:29.873741,-9.762716,0.100498,2.234896,0.010995,-0.052534,-0.007330
2026-03-09T22:15:29.883741,-9.786644,0.105284,2.263610,0.010995,-0.053756,-0.007330
2026-03-09T22:15:29.893741,-9.743573,0.129212,2.206182,0.013439,-0.053756,-0.008552
2026-03-09T22:15:29.902741,-9.738787,0.124426,2.234896,0.010995,-0.053756,-0.008552
2026-03-09T22:15:29.912741,-9.738787,0.100498,2.268395,0.012217,-0.053756,-0.009773
2026-03-09T22:15:29.922741,-9.815358,0.019142,2.277967,0.012217,-0.054977,-0.009773
2026-03-09T22:15:29.931741,-9.748359,0.095712,2.234896,0.010995,-0.052534,-0.009773
2026-03-09T22:15:29.941741,-9.705288,0.023928,2.282752,0.012217,-0.053756,-0.009773
2026-03-09T22:15:29.950741,-9.700502,0.110069,2.263610,0.010995,-0.053756,-0.009773
2026-03-09T22:15:29.960741,-9.734002,0.110069,2.249253,0.010995,-0.054977,-0.008552
2026-03-09T22:15:29.970741,-9.810572,0.119641,2.268395,0.012217,-0.053756,-0.008552
2026-03-09T22:15:29.979741,-9.748359,0.148355,2.311466,0.010995,-0.053756,-0.007330
2026-03-09T22:15:29.989741,-9.734002,0.143569,2.268395,0.010995,-0.054977,-0.008552
2026-03-09T22:15:29.998741,-9.753144,0.119641,2.277967,0.010995,-0.052534,-0.008552
2026-03-09T22:15:30.008741,-9.767501,0.143569,2.210968,0.012217,-0.053756,-0.009773
2026-03-09T22:15:30.018741,-9.762716,0.100498,2.244467,0.010995,-0.054977,-0.009773
2026-03-09T22:15:30.027741,-9.714859,0.119641,2.258824,0.012217,-0.056199,-0.009773
2026-03-09T22:15:30.037741,-9.753144,0.133998,2.268395,0.010995,-0.054977,-0.009773
2026-03-09T22:15:30.047741,-9.757930,0.114855,2.311466,0.010995,-0.053756,-0.009773
2026-03-09T22:15:30.056741,-9.762716,0.086141,2.244467,0.010995,-0.053756,-0.008552
2026-03-09T22:15:30.066741,-9.781858,0.086141,2.244467,0.009773,-0.052534,-0.009773
2026-03-09T22:15:30.075741,-9.772287,0.090927,2.277967,0.010995,-0.053756,-0.008552
2026-03-09T22:15:30.085741,-9.724431,0.105284,2.234896,0.013439,-0.052534,-0.009773
2026-03-09T22:15:30.095741,-9.743573,0.114855,2.220539,0.010995,-0.052534,-0.008552
2026-03-09T22:15:30.104741,-9.753144,0.153140,2.225325,0.012217,-0.052534,-0.009773
2026-03-09T22:15:30.114741,-9.757930,0.095712,2.225325,0.013439,-0.054977,-0.009773
2026-03-09T22:15:30.123741,-9.767501,0.119641,2.249253,0.012217,-0.053756,-0.009773
2026-03-09T22:15:30.133741,-9.719645,0.114855,2.220539,0.012217,-0.054977,-0.007330
2026-03-09T22:15:30.143741,-9.791430,0.105284,2.321037,0.010995,-0.054977,-0.008552
2026-03-09T22:15:30.152741,-9.738787,0.090927,2.230110,0.009773,-0.052534,-0.007330
2026-03-09T22:15:30.162741,-9.772287,0.100498,2.254038,0.012217,-0.054977,-0.008552
2026-03-09T22:15:30.172741,-9.719645,0.124426,2.297109,0.009773,-0.052534,-0.009773
2026-03-09T22:15:30.181741,-9.753144,0.086141,2.206182,0.010995,-0.052534,-0.009773
2026-03-09T22:15:30.191741,-9.748359,0.076570,2.287538,0.010995,-0.054977,-0.010995
2026-03-09T22:15:30.200741,-9.738787,0.138783,2.330609,0.010995,-0.053756,-0.009773
2026-03-09T22:15:30.210741,-9.748359,0.090927,2.230110,0.010995,-0.053756,-0.008552
2026-03-09T22:15:30.220741,-9.757930,0.100498,2.263610,0.010995,-0.052534,-0.009773
2026-03-09T22:15:30.229741,-9.781858,0.110069,2.249253,0.008552,-0.054977,-0.009773
2026-03-09T22:15:30.239741,-9.762716,0.062213,2.234896,0.010995,-0.054977,-0.008552
2026-03-09T22:15:30.248741,-9.762716,0.100498,2.254038,0.012217,-0.053756,-0.009773
2026-03-09T22:15:30.258741,-9.738787,0.095712,2.234896,0.008552,-0.053756,-0.008552
2026-03-09T22:15:30.268741,-9.705288,0.090927,2.234896,0.007330,-0.053756,-0.007330
2026-03-09T22:15:30.277741,-9.710074,0.143569,2.239681,0.009773,-0.054977,-0.008552
2026-03-09T22:15:30.287741,-9.695717,0.124426,2.292324,0.010995,-0.052534,-0.008552
2026-03-09T22:15:30.297741,-9.734002,0.105284,2.340180,0.012217,-0.052534,-0.010995
2026-03-09T22:15:30.306741,-9.777073,0.100498,2.282752,0.010995,-0.052534,-0.010995
2026-03-09T22:15:30.316741,-9.777073,0.086141,2.249253,0.010995,-0.052534,-0.008552
2026-03-09T22:15:30.325741,-9.777073,0.090927,2.230110,0.012217,-0.052534,-0.008552
2026-03-09T22:15:30.335741,-9.810572,0.133998,2.325823,0.009773,-0.052534,-0.007330
2026-03-09T22:15:30.345741,-9.748359,0.090927,2.273181,0.010995,-0.052534,-0.009773
2026-03-09T22:15:30.354741,-9.777073,0.114855,2.287538,0.010995,-0.052534,-0.009773
2026-03-09T22:15:30.364741,-9.748359,0.100498,2.215753,0.009773,-0.052534,-0.009773
2026-03-09T22:15:30.373741,-9.757930,0.095712,2.292324,0.009773,-0.054977,-0.009773
2026-03-09T22:15:30.383741,-9.743573,0.086141,2.287538,0.010995,-0.053756,-0.008552
2026-03-09T22:15:30.393741,-9.738787,0.105284,2.244467,0.010995,-0.054977,-0.008552
2026-03-09T22:15:30.402741,-9.748359,0.095712,2.258824,0.008552,-0.051312,-0.008552
2026-03-09T22:15:30.412741,-9.705288,0.095712,2.244467,0.009773,-0.051312,-0.010995
2026-03-09T22:15:30.422741,-9.762716,0.110069,2.244467,0.010995,-0.052534,-0.010995
2026-03-09T22:15:30.431741,-9.743573,0.071784,2.239681,0.009773,-0.051312,-0.009773
2026-03-09T22:15:30.441741,-9.767501,0.105284,2.244467,0.009773,-0.053756,-0.007330
2026-03-09T22:15:30.450741,-9.743573,0.124426,2.258824,0.010995,-0.054977,-0.008552
2026-03-09T22:15:30.460741,-9.767501,0.143569,2.244467,0.008552,-0.053756,-0.007330
2026-03-09T22:15:30.470741,-9.690931,0.110069,2.220539,0.010995,-0.053756,-0.008552
2026-03-09T22:15:30.479741,-9.753144,0.086141,2.268395,0.010995,-0.052534,-0.008552
2026-03-09T22:15:30.489741,-9.781858,0.157926,2.301895,0.010995,-0.050090,-0.007330
2026-03-09T22:15:30.498741,-9.772287,0.066999,2.268395,0.008552,-0.050090,-0.009773
2026-03-09T22:15:30.508741,-9.719645,0.105284,2.287538,0.009773,-0.053756,-0.009773
2026-03-09T22:15:30.518741,-9.753144,0.138783,2.292324,0.010995,-0.053756,-0.008552
2026-03-09T22:15:30.527741,-9.738787,0.133998,2.239681,0.009773,-0.052534,-0.009773
2026-03-09T22:15:30.537741,-9.748359,0.105284,2.268395,0.010995,-0.054977,-0.009773
2026-03-09T22:15:30.547741,-9.729216,0.110069,2.277967,0.010995,-0.051312,-0.008552
2026-03-09T22:15:30.556741,-9.729216,0.043070,2.277967,0.010995,-0.051312,-0.007330
2026-03-09T22:15:30.566741,-9.690931,0.062213,2.263610,0.010995,-0.052534,-0.008552
2026-03-09T22:15:30.575741,-9.796215,0.129212,2.215753,0.010995,-0.053756,-0.009773
2026-03-09T22:15:30.585741,-9.762716,0.114855,2.301895,0.012217,-0.054977,-0.009773
2026-03-09T22:15:30.595741,-9.738787,0.110069,2.230110,0.010995,-0.053756,-0.008552
2026-03-09T22:15:30.604741,-9.686145,0.129212,2.297109,0.012217,-0.052534,-0.008552
2026-03-09T22:15:30.614741,-9.724431,0.086141,2.258824,0.009773,-0.052534,-0.008552
2026-03-09T22:15:30.623741,-9.738787,0.105284,2.258824,0.012217,-0.053756,-0.009773
2026-03-09T22:15:30.633741,-9.767501,0.119641,2.244467,0.010995,-0.054977,-0.008552
2026-03-09T22:15:30.643741,-9.719645,0.143569,2.287538,0.009773,-0.053756,-0.008552
2026-03-09T22:15:30.652741,-9.734002,0.081355,2.258824,0.010995,-0.053756,-0.008552
2026-03-09T22:15:30.662741,-9.767501,0.047856,2.277967,0.009773,-0.051312,-0.008552
2026-03-09T22:15:30.672741,-9.762716,0.090927,2.316252,0.010995,-0.052534,-0.009773
2026-03-09T22:15:30.681741,-9.724431,0.124426,2.311466,0.008552,-0.050090,-0.008552
2026-03-09T22:15:30.691741,-9.719645,0.071784,2.316252,0.009773,-0.053756,-0.009773
2026-03-09T22:15:30.700741,-9.753144,0.071784,2.277967,0.010995,-0.052534,-0.008552
2026-03-09T22:15:30.710741,-9.748359,0.167497,2.287538,0.012217,-0.053756,-0.009773
2026-03-09T22:15:30.720741,-9.786644,0.105284,2.282752,0.010995,-0.053756,-0.010995
2026-03-09T22:15:30.729741,-9.695717,0.066999,2.277967,0.010995,-0.053756,-0.010995
2026-03-09T22:15:30.739741,-9.719645,0.105284,2.254038,0.010995,-0.048869,-0.007330
2026-03-09T22:15:30.748741,-9.810572,0.095712,2.292324,0.010995,-0.050090,-0.009773
2026-03-09T22:15:30.758741,-9.743573,0.110069,2.301895,0.010995,-0.052534,-0.009773
2026-03-09T22:15:30.768741,-9.781858,0.119641,2.297109,0.010995,-0.051312,-0.008552
2026-03-09T22:15:30.777741,-9.781858,0.110069,2.263610,0.010995,-0.052534,-0.010995
2026-03-09T22:15:30.787741,-9.705288,0.086141,2.230110,0.013439,-0.054977,-0.010995
2026-03-09T22:15:30.797741,-9.753144,0.100498,2.234896,0.010995,-0.052534,-0.009773
2026-03-09T22:15:30.806741,-9.748359,0.095712,2.254038,0.010995,-0.054977,-0.009773
2026-03-09T22:15:30.816741,-9.753144,0.114855,2.254038,0.010995,-0.050090,-0.009773
2026-03-09T22:15:30.825741,-9.762716,0.114855,2.263610,0.012217,-0.053756,-0.008552
2026-03-09T22:15:30.835741,-9.762716,0.119641,2.239681,0.012217,-0.053756,-0.008552
2026-03-09T22:15:30.845741,-9.757930,0.090927,2.316252,0.012217,-0.053756,-0.009773
2026-03-09T22:15:30.854741,-9.743573,0.119641,2.230110,0.012217,-0.052534,-0.009773
2026-03-09T22:15:30.864741,-9.743573,0.090927,2.277967,0.013439,-0.052534,-0.009773
2026-03-09T22:15:30.873741,-9.748359,0.124426,2.220539,0.010995,-0.052534,-0.008552
2026-03-09T22:15:30.883741,-9.710074,0.076570,2.254038,0.009773,-0.053756,-0.010995
2026-03-09T22:15:30.893741,-9.695717,0.090927,2.220539,0.010995,-0.053756,-0.010995
2026-03-09T22:15:30.902741,-9.753144,0.153140,2.277967,0.009773,-0.053756,-0.008552
2026-03-09T22:15:30.912741,-9.762716,0.110069,2.316252,0.010995,-0.053756,-0.009773
2026-03-09T22:15:30.922741,-9.729216,0.052642,2.244467,0.010995,-0.052534,-0.009773
2026-03-09T22:15:30.931741,-9.753144,0.110069,2.292324,0.010995,-0.050090,-0.009773
2026-03-09T22:15:30.941741,-9.738787,0.095712,2.249253,0.009773,-0.052534,-0.009773
2026-03-09T22:15:30.950741,-9.748359,0.119641,2.234896,0.010995,-0.054977,-0.009773
2026-03-09T22:15:30.960741,-9.748359,0.081355,2.230110,0.012217,-0.053756,-0.009773
2026-03-09T22:15:30.970741,-9.757930,0.081355,2.249253,0.009773,-0.053756,-0.009773
2026-03-09T22:15:30.979741,-9.714859,0.090927,2.321037,0.010995,-0.054977,-0.008552
2026-03-09T22:15:30.989741,-9.671788,0.110069,2.268395,0.013439,-0.053756,-0.009773
2026-03-09T22:15:30.998741,-9.772287,0.114855,2.306680,0.014660,-0.052534,-0.008552
2026-03-09T22:15:31.008741,-9.729216,0.119641,2.191825,0.010995,-0.053756,-0.008552
2026-03-09T22:15:31.018741,-9.719645,0.153140,2.234896,0.012217,-0.054977,-0.008552
2026-03-09T22:15:31.027741,-9.734002,0.090927,2.225325,0.012217,-0.052534,-0.009773
2026-03-09T22:15:31.037741,-9.729216,0.138783,2.249253,0.012217,-0.054977,-0.008552
2026-03-09T22:15:31.047741,-9.748359,0.066999,2.249253,0.012217,-0.054977,-0.008552
2026-03-09T22:15:31.056741,-9.753144,0.110069,2.234896,0.012217,-0.052534,-0.008552
2026-03-09T22:15:31.066741,-9.729216,0.076570,2.297109,0.010995,-0.054977,-0.008552
2026-03-09T22:15:31.075741,-9.695717,0.133998,2.273181,0.012217,-0.056199,-0.008552
2026-03-09T22:15:31.085741,-9.786644,0.133998,2.258824,0.010995,-0.053756,-0.009773
2026-03-09T22:15:31.095741,-9.781858,0.119641,2.215753,0.010995,-0.053756,-0.008552
2026-03-09T22:15:31.104741,-9.772287,0.114855,2.258824,0.010995,-0.053756,-0.008552
2026-03-09T22:15:31.114741,-9.743573,0.052642,2.215753,0.010995,-0.053756,-0.009773
2026-03-09T22:15:31.123741,-9.772287,0.062213,2.244467,0.012217,-0.053756,-0.008552
2026-03-09T22:15:31.133741,-9.734002,0.105284,2.215753,0.009773,-0.054977,-0.008552
2026-03-09T22:15:31.143741,-9.753144,0.071784,2.249253,0.014660,-0.053756,-0.009773
2026-03-09T22:15:31.152741,-9.748359,0.138783,2.225325,0.013439,-0.054977,-0.008552
2026-03-09T22:15:31.162741,-9.738787,0.153140,2.311466,0.012217,-0.054977,-0.008552
2026-03-09T22:15:31.172741,-9.757930,0.076570,2.230110,0.008552,-0.053756,-0.008552
2026-03-09T22:15:31.181741,-9.686145,0.110069,2.282752,0.009773,-0.052534,-0.009773
2026-03-09T22:15:31.191741,-9.805787,0.095712,2.268395,0.009773,-0.053756,-0.008552
2026-03-09T22:15:31.200741,-9.777073,0.143569,2.330609,0.009773,-0.052534,-0.009773
2026-03-09T22:15:31.210741,-9.748359,0.090927,2.239681,0.010995,-0.051312,-0.009773
2026-03-09T22:15:31.220741,-9.724431,0.133998,2.254038,0.010995,-0.052534,-0.010995
2026-03-09T22:15:31.229741,-9.700502,0.133998,2.292324,0.010995,-0.052534,-0.009773
2026-03-09T22:15:31.239741,-9.734002,0.071784,2.263610,0.010995,-0.052534,-0.007330
2026-03-09T22:15:31.248741,-9.757930,0.138783,2.282752,0.010995,-0.053756,-0.008552
2026-03-09T22:15:31.258741,-9.767501,0.143569,2.230110,0.012217,-0.052534,-0.009773
2026-03-09T22:15:31.268741,-9.777073,0.119641,2.249253,0.012217,-0.053756,-0.009773
2026-03-09T22:15:31.277741,-9.762716,0.110069,2.282752,0.010995,-0.056199,-0.010995
2026-03-09T22:15:31.287741,-9.772287,0.100498,2.220539,0.010995,-0.054977,-0.010995
2026-03-09T22:15:31.297741,-9.729216,0.090927,2.234896,0.010995,-0.052534,-0.010995
2026-03-09T22:15:31.306741,-9.777073,0.062213,2.277967,0.012217,-0.056199,-0.010995
2026-03-09T22:15:31.316741,-9.734002,0.110069,2.258824,0.012217,-0.053756,-0.009773
2026-03-09T22:15:31.325741,-9.753144,0.057427,2.277967,0.012217,-0.052534,-0.008552
2026-03-09T22:15:31.335741,-9.714859,0.110069,2.277967,0.012217,-0.054977,-0.009773
2026-03-09T22:15:31.345741,-9.772287,0.133998,2.316252,0.010995,-0.053756,-0.008552
2026-03-09T22:15:31.354741,-9.719645,0.081355,2.268395,0.010995,-0.052534,-0.008552
2026-03-09T22:15:31.364741,-9.734002,0.133998,2.210968,0.010995,-0.052534,-0.008552
2026-03-09T22:15:31.373741,-9.690931,0.066999,2.268395,0.009773,-0.050090,-0.008552
2026-03-09T22:15:31.383741,-9.671788,0.062213,2.254038,0.009773,-0.052534,-0.008552
2026-03-09T22:15:31.393741,-9.700502,0.110069,2.215753,0.010995,-0.053756,-0.009773
2026-03-09T22:15:31.402741,-9.791430,0.090927,2.287538,0.010995,-0.053756,-0.008552
2026-03-09T22:15:31.412741,-9.714859,0.062213,2.325823,0.013439,-0.052534,-0.008552
2026-03-09T22:15:31.422741,-9.762716,0.076570,2.230110,0.009773,-0.053756,-0.008552
2026-03-09T22:15:31.431741,-9.748359,0.129212,2.311466,0.009773,-0.052534,-0.009773
2026-03-09T22:15:31.441741,-9.801001,0.105284,2.268395,0.010995,-0.053756,-0.010995
2026-03-09T22:15:31.450741,-9.743573,0.148355,2.263610,0.009773,-0.056199,-0.008552
2026-03-09T22:15:31.460741,-9.767501,0.095712,2.196611,0.010995,-0.053756,-0.008552
2026-03-09T22:15:31.470741,-9.690931,0.129212,2.249253,0.009773,-0.051312,-0.008552
2026-03-09T22:15:31.479741,-9.743573,0.081355,2.244467,0.010995,-0.054977,-0.009773
2026-03-09T22:15:31.489741,-9.757930,0.086141,2.263610,0.008552,-0.054977,-0.009773
2026-03-09T22:15:31.498741,-9.767501,0.167497,2.292324,0.009773,-0.051312,-0.009773
2026-03-09T22:15:31.508741,-9.714859,0.100498,2.244467,0.008552,-0.053756,-0.007330
2026-03-09T22:15:31.518741,-9.729216,0.119641,2.282752,0.009773,-0.056199,-0.008552
2026-03-09T22:15:31.527741,-9.748359,0.086141,2.239681,0.012217,-0.053756,-0.009773
2026-03-09T22:15:31.537741,-9.791430,0.110069,2.273181,0.010995,-0.053756,-0.009773
2026-03-09T22:15:31.547741,-9.762716,0.066999,2.244467,0.009773,-0.052534,-0.010995
2026-03-09T22:15:31.556741,-9.801001,0.138783,2.191825,0.010995,-0.051312,-0.008552
2026-03-09T22:15:31.566741,-9.681360,0.066999,2.316252,0.009773,-0.052534,-0.008552
2026-03-09T22:15:31.575741,-9.729216,0.090927,2.263610,0.009773,-0.053756,-0.009773
2026-03-09T22:15:31.585741,-9.724431,0.057427,2.244467,0.010995,-0.051312,-0.009773
2026-03-09T22:15:31.595741,-9.734002,0.110069,2.273181,0.010995,-0.054977,-0.007330
2026-03-09T22:15:31.604741,-9.729216,0.081355,2.234896,0.010995,-0.054977,-0.008552
2026-03-09T22:15:31.614741,-9.757930,0.105284,2.292324,0.010995,-0.054977,-0.008552
2026-03-09T22:15:31.623741,-9.743573,0.071784,2.215753,0.013439,-0.054977,-0.010995
2026-03-09T22:15:31.633741,-9.753144,0.038285,2.301895,0.012217,-0.053756,-0.009773
2026-03-09T22:15:31.643741,-9.781858,0.114855,2.268395,0.012217,-0.051312,-0.008552
2026-03-09T22:15:31.652741,-9.757930,0.090927,2.254038,0.013439,-0.052534,-0.008552
2026-03-09T22:15:31.662741,-9.690931,0.105284,2.254038,0.013439,-0.052534,-0.008552
2026-03-09T22:15:31.672741,-9.738787,0.076570,2.268395,0.010995,-0.052534,-0.008552
2026-03-09T22:15:31.681741,-9.753144,0.086141,2.273181,0.008552,-0.052534,-0.008552
2026-03-09T22:15:31.691741,-9.772287,0.143569,2.220539,0.010995,-0.052534,-0.008552
2026-03-09T22:15:31.700741,-9.762716,0.114855,2.273181,0.012217,-0.051312,-0.007330
2026-03-09T22:15:31.710741,-9.786644,0.100498,2.249253,0.009773,-0.052534,-0.008552
2026-03-09T22:15:31.720741,-9.729216,0.057427,2.263610,0.010995,-0.052534,-0.008552
2026-03-09T22:15:31.729741,-9.757930,0.143569,2.297109,0.012217,-0.054977,-0.009773
2026-03-09T22:15:31.739741,-9.757930,0.090927,2.254038,0.012217,-0.054977,-0.009773
2026-03-09T22:15:31.748741,-9.734002,0.086141,2.201396,0.009773,-0.052534,-0.009773
2026-03-09T22:15:31.758741,-9.772287,0.114855,2.292324,0.012217,-0.052534,-0.008552
2026-03-09T22:15:31.768741,-9.738787,0.119641,2.282752,0.012217,-0.053756,-0.008552
2026-03-09T22:15:31.777741,-9.724431,0.148355,2.254038,0.012217,-0.051312,-0.009773
2026-03-09T22:15:31.787741,-9.724431,0.090927,2.268395,0.009773,-0.051312,-0.009773
2026-03-09T22:15:31.797741,-9.762716,0.110069,2.244467,0.009773,-0.053756,-0.008552
2026-03-09T22:15:31.806741,-9.748359,0.090927,2.249253,0.009773,-0.056199,-0.008552
2026-03-09T22:15:31.816741,-9.791430,0.119641,2.277967,0.010995,-0.054977,-0.008552
2026-03-09T22:15:31.825741,-9.734002,0.133998,2.268395,0.009773,-0.052534,-0.007330
2026-03-09T22:15:31.835741,-9.729216,0.110069,2.282752,0.010995,-0.051312,-0.008552
2026-03-09T22:15:31.845741,-9.781858,0.071784,2.254038,0.012217,-0.053756,-0.009773
2026-03-09T22:15:31.854741,-9.700502,0.157926,2.220539,0.010995,-0.052534,-0.009773
2026-03-09T22:15:31.864741,-9.724431,0.114855,2.220539,0.010995,-0.053756,-0.009773
2026-03-09T22:15:31.873741,-9.748359,0.114855,2.254038,0.010995,-0.051312,-0.009773
2026-03-09T22:15:31.883741,-9.810572,0.124426,2.263610,0.009773,-0.050090,-0.008552
2026-03-09T22:15:31.893741,-9.762716,0.081355,2.254038,0.010995,-0.052534,-0.010995
2026-03-09T22:15:31.902741,-9.734002,0.124426,2.220539,0.010995,-0.052534,-0.009773
2026-03-09T22:15:31.912741,-9.757930,0.157926,2.287538,0.010995,-0.054977,-0.008552
2026-03-09T22:15:31.922741,-9.743573,0.129212,2.277967,0.010995,-0.056199,-0.008552
2026-03-09T22:15:31.931741,-9.753144,0.100498,2.311466,0.010995,-0.053756,-0.008552
2026-03-09T22:15:31.941741,-9.681360,0.090927,2.220539,0.012217,-0.052534,-0.007330
2026-03-09T22:15:31.950741,-9.762716,0.090927,2.230110,0.012217,-0.052534,-0.007330
2026-03-09T22:15:31.960741,-9.719645,0.105284,2.268395,0.012217,-0.051312,-0.007330
2026-03-09T22:15:31.970741,-9.676574,0.119641,2.287538,0.012217,-0.053756,-0.008552
2026-03-09T22:15:31.979741,-9.700502,0.110069,2.249253,0.010995,-0.053756,-0.009773
2026-03-09T22:15:31.989741,-9.719645,0.105284,2.268395,0.009773,-0.052534,-0.009773
2026-03-09T22:15:31.998741,-9.777073,0.081355,2.301895,0.012217,-0.052534,-0.010995
2026-03-09T22:15:32.008741,-9.681360,0.105284,2.220539,0.012217,-0.052534,-0.010995
2026-03-09T22:15:32.018741,-9.748359,0.129212,2.215753,0.010995,-0.052534,-0.010995
2026-03-09T22:15:32.027741,-9.690931,0.071784,2.306680,0.009773,-0.054977,-0.010995
2026-03-09T22:15:32.037741,-9.724431,0.157926,2.254038,0.013439,-0.054977,-0.009773
2026-03-09T22:15:32.047741,-9.767501,0.076570,2.297109,0.012217,-0.052534,-0.009773
2026-03-09T22:15:32.056741,-9.757930,0.119641,2.258824,0.010995,-0.052534,-0.007330
2026-03-09T22:15:32.066741,-9.710074,0.148355,2.254038,0.012217,-0.053756,-0.008552
2026-03-09T22:15:32.075741,-9.767501,0.114855,2.206182,0.012217,-0.052534,-0.007330
2026-03-09T22:15:32.085741,-9.801001,0.081355,2.167897,0.012217,-0.052534,-0.006108
2026-03-09T22:15:32.095741,-9.705288,0.157926,2.239681,0.012217,-0.054977,-0.009773
2026-03-09T22:15:32.104741,-9.805787,0.066999,2.239681,0.010995,-0.053756,-0.010995
2026-03-09T22:15:32.114741,-9.705288,0.133998,2.258824,0.009773,-0.053756,-0.010995
2026-03-09T22:15:32.123741,-9.791430,0.090927,2.277967,0.010995,-0.053756,-0.009773
2026-03-09T22:15:32.133741,-9.719645,0.129212,2.263610,0.010995,-0.052534,-0.009773
2026-03-09T22:15:32.143741,-9.753144,0.143569,2.225325,0.012217,-0.052534,-0.008552
2026-03-09T22:15:32.152741,-9.762716,0.105284,2.210968,0.012217,-0.051312,-0.009773
2026-03-09T22:15:32.162741,-9.762716,0.114855,2.268395,0.010995,-0.054977,-0.010995
2026-03-09T22:15:32.172741,-9.738787,0.066999,2.196611,0.010995,-0.054977,-0.010995
2026-03-09T22:15:32.181741,-9.810572,0.114855,2.263610,0.012217,-0.053756,-0.010995
2026-03-09T22:15:32.191741,-9.738787,0.105284,2.301895,0.010995,-0.052534,-0.009773
2026-03-09T22:15:32.200741,-9.729216,0.129212,2.321037,0.013439,-0.054977,-0.008552
2026-03-09T22:15:32.210741,-9.757930,0.052642,2.230110,0.010995,-0.053756,-0.009773
2026-03-09T22:15:32.220741,-9.748359,0.062213,2.316252,0.013439,-0.053756,-0.008552
2026-03-09T22:15:32.229741,-9.724431,0.090927,2.282752,0.012217,-0.053756,-0.009773
2026-03-09T22:15:32.239741,-9.719645,0.143569,2.277967,0.010995,-0.052534,-0.009773
2026-03-09T22:15:32.248741,-9.738787,0.119641,2.297109,0.008552,-0.052534,-0.009773
2026-03-09T22:15:32.258741,-9.786644,0.129212,2.297109,0.010995,-0.051312,-0.010995
2026-03-09T22:15:32.268741,-9.710074,0.110069,2.306680,0.012217,-0.053756,-0.009773
2026-03-09T22:15:32.277741,-9.695717,0.100498,2.292324,0.013439,-0.056199,-0.010995
2026-03-09T22:15:32.287741,-9.710074,0.090927,2.249253,0.009773,-0.053756,-0.010995
2026-03-09T22:15:32.297741,-9.738787,0.148355,2.249253,0.009773,-0.054977,-0.008552
2026-03-09T22:15:32.306741,-9.729216,0.153140,2.273181,0.012217,-0.054977,-0.007330
2026-03-09T22:15:32.316741,-9.671788,0.076570,2.225325,0.012217,-0.053756,-0.007330
2026-03-09T22:15:32.325741,-9.824929,0.124426,2.306680,0.010995,-0.053756,-0.008552
2026-03-09T22:15:32.335741,-9.729216,0.124426,2.287538,0.009773,-0.053756,-0.009773
2026-03-09T22:15:32.345741,-9.748359,0.162711,2.244467,0.010995,-0.052534,-0.009773
2026-03-09T22:15:32.354741,-9.757930,0.119641,2.225325,0.009773,-0.053756,-0.009773
2026-03-09T22:15:32.364741,-9.781858,0.100498,2.258824,0.010995,-0.052534,-0.009773
2026-03-09T22:15:32.373741,-9.714859,0.157926,2.277967,0.009773,-0.053756,-0.010995
2026-03-09T22:15:32.383741,-9.734002,0.100498,2.210968,0.010995,-0.054977,-0.012217
2026-03-09T22:15:32.393741,-9.714859,0.129212,2.239681,0.012217,-0.053756,-0.010995
2026-03-09T22:15:32.402741,-9.772287,0.086141,2.268395,0.010995,-0.053756,-0.008552
2026-03-09T22:15:32.412741,-9.796215,0.090927,2.230110,0.013439,-0.052534,-0.007330
2026-03-09T22:15:32.422741,-9.781858,0.033499,2.239681,0.008552,-0.051312,-0.007330
2026-03-09T22:15:32.431741,-9.748359,0.043070,2.292324,0.009773,-0.052534,-0.007330
2026-03-09T22:15:32.441741,-9.714859,0.105284,2.263610,0.009773,-0.053756,-0.007330
2026-03-09T22:15:32.450741,-9.719645,0.081355,2.244467,0.009773,-0.052534,-0.007330
2026-03-09T22:15:32.460741,-9.700502,0.095712,2.234896,0.010995,-0.052534,-0.007330
2026-03-09T22:15:32.470741,-9.738787,0.105284,2.220539,0.010995,-0.054977,-0.008552
2026-03-09T22:15:32.479741,-9.786644,0.076570,2.210968,0.009773,-0.053756,-0.009773
2026-03-09T22:15:32.489741,-9.757930,0.090927,2.254038,0.010995,-0.053756,-0.009773
2026-03-09T22:15:32.498741,-9.743573,0.114855,2.277967,0.010995,-0.053756,-0.008552
2026-03-09T22:15:32.508741,-9.738787,0.138783,2.249253,0.010995,-0.050090,-0.007330
2026-03-09T22:15:32.518741,-9.762716,0.100498,2.292324,0.010995,-0.054977,-0.009773
2026-03-09T22:15:32.527741,-9.729216,0.095712,2.277967,0.012217,-0.053756,-0.009773
2026-03-09T22:15:32.537741,-9.719645,0.110069,2.225325,0.012217,-0.052534,-0.010995
2026-03-09T22:15:32.547741,-9.714859,0.076570,2.287538,0.012217,-0.051312,-0.009773
2026-03-09T22:15:32.556741,-9.710074,0.038285,2.230110,0.009773,-0.052534,-0.009773
2026-03-09T22:15:32.566741,-9.753144,0.162711,2.215753,0.010995,-0.052534,-0.008552
2026-03-09T22:15:32.575741,-9.772287,0.133998,2.258824,0.013439,-0.052534,-0.009773
2026-03-09T22:15:32.585741,-9.815358,0.028713,2.282752,0.012217,-0.056199,-0.008552
2026-03-09T22:15:32.595741,-9.805787,0.095712,2.249253,0.010995,-0.056199,-0.008552
2026-03-09T22:15:32.604741,-9.700502,0.148355,2.316252,0.012217,-0.053756,-0.009773
2026-03-09T22:15:32.614741,-9.743573,0.086141,2.292324,0.009773,-0.054977,-0.009773
2026-03-09T22:15:32.623741,-9.738787,0.138783,2.254038,0.012217,-0.052534,-0.008552
2026-03-09T22:15:32.633741,-9.700502,0.138783,2.254038,0.010995,-0.052534,-0.008552
2026-03-09T22:15:32.643741,-9.690931,0.066999,2.215753,0.012217,-0.053756,-0.009773
2026-03-09T22:15:32.652741,-9.700502,0.086141,2.225325,0.012217,-0.052534,-0.008552
2026-03-09T22:15:32.662741,-9.748359,0.124426,2.254038,0.012217,-0.052534,-0.008552
2026-03-09T22:15:32.672741,-9.786644,0.081355,2.263610,0.009773,-0.051312,-0.009773
2026-03-09T22:15:32.681741,-9.700502,0.081355,2.277967,0.008552,-0.054977,-0.008552
2026-03-09T22:15:32.691741,-9.738787,0.090927,2.273181,0.012217,-0.053756,-0.009773
2026-03-09T22:15:32.700741,-9.738787,0.133998,2.244467,0.012217,-0.051312,-0.009773
2026-03-09T22:15:32.710741,-9.762716,0.143569,2.258824,0.012217,-0.052534,-0.007330
2026-03-09T22:15:32.720741,-9.729216,0.057427,2.210968,0.009773,-0.053756,-0.007330
2026-03-09T22:15:32.729741,-9.815358,0.057427,2.297109,0.010995,-0.054977,-0.008552
2026-03-09T22:15:32.739741,-9.738787,0.100498,2.258824,0.012217,-0.054977,-0.009773
2026-03-09T22:15:32.748741,-9.757930,0.129212,2.282752,0.010995,-0.053756,-0.009773
2026-03-09T22:15:32.758741,-9.748359,0.100498,2.215753,0.010995,-0.052534,-0.008552
2026-03-09T22:15:32.768741,-9.695717,0.105284,2.316252,0.010995,-0.053756,-0.008552
2026-03-09T22:15:32.777741,-9.734002,0.172283,2.215753,0.009773,-0.052534,-0.009773
2026-03-09T22:15:32.787741,-9.681360,0.090927,2.230110,0.010995,-0.051312,-0.009773
2026-03-09T22:15:32.797741,-9.714859,0.119641,2.225325,0.013439,-0.053756,-0.009773
2026-03-09T22:15:32.806741,-9.757930,0.124426,2.210968,0.012217,-0.053756,-0.008552
2026-03-09T22:15:32.816741,-9.700502,0.110069,2.239681,0.010995,-0.053756,-0.008552
2026-03-09T22:15:32.825741,-9.724431,0.110069,2.277967,0.012217,-0.053756,-0.008552
2026-03-09T22:15:32.835741,-9.753144,0.138783,2.273181,0.012217,-0.053756,-0.007330
2026-03-09T22:15:32.845741,-9.734002,0.100498,2.277967,0.010995,-0.053756,-0.008552
2026-03-09T22:15:32.854741,-9.772287,0.090927,2.206182,0.008552,-0.053756,-0.008552
2026-03-09T22:15:32.864741,-9.757930,0.052642,2.282752,0.010995,-0.053756,-0.007330
2026-03-09T22:15:32.873741,-9.734002,0.100498,2.258824,0.012217,-0.052534,-0.007330
2026-03-09T22:15:32.883741,-9.700502,0.129212,2.263610,0.012217,-0.056199,-0.007330
2026-03-09T22:15:32.893741,-9.729216,0.105284,2.215753,0.010995,-0.053756,-0.009773
2026-03-09T22:15:32.902741,-9.767501,0.110069,2.230110,0.010995,-0.053756,-0.009773
2026-03-09T22:15:32.912741,-9.781858,0.090927,2.263610,0.010995,-0.053756,-0.008552
2026-03-09T22:15:32.922741,-9.686145,0.100498,2.258824,0.010995,-0.054977,-0.008552
2026-03-09T22:15:32.931741,-9.772287,0.119641,2.301895,0.010995,-0.052534,-0.009773
2026-03-09T22:15:32.941741,-9.686145,0.095712,2.196611,0.009773,-0.054977,-0.008552
2026-03-09T22:15:32.950741,-9.734002,0.114855,2.306680,0.012217,-0.052534,-0.008552
2026-03-09T22:15:32.960741,-9.738787,0.086141,2.234896,0.010995,-0.054977,-0.009773
2026-03-09T22:15:32.970741,-9.705288,0.129212,2.258824,0.010995,-0.056199,-0.009773
2026-03-09T22:15:32.979741,-9.753144,0.043070,2.244467,0.009773,-0.053756,-0.009773
2026-03-09T22:15:32.989741,-9.777073,0.090927,2.306680,0.010995,-0.054977,-0.009773
2026-03-09T22:15:32.998741,-9.738787,0.153140,2.282752,0.010995,-0.054977,-0.009773
2026-03-09T22:15:33.008741,-9.753144,0.086141,2.258824,0.010995,-0.050090,-0.008552
2026-03-09T22:15:33.018741,-9.753144,0.057427,2.254038,0.009773,-0.051312,-0.008552
2026-03-09T22:15:33.027741,-9.791430,0.133998,2.225325,0.007330,-0.052534,-0.008552
2026-03-09T22:15:33.037741,-9.710074,0.114855,2.340180,0.009773,-0.053756,-0.009773
2026-03-09T22:15:33.047741,-9.824929,0.153140,2.277967,0.012217,-0.053756,-0.008552
2026-03-09T22:15:33.056741,-9.652646,0.081355,2.234896,0.009773,-0.054977,-0.009773
2026-03-09T22:15:33.066741,-9.638289,0.153140,2.230110,0.013439,-0.056199,-0.009773
2026-03-09T22:15:33.075741,-9.743573,0.090927,2.282752,0.010995,-0.052534,-0.010995
2026-03-09T22:15:33.085741,-9.796215,0.090927,2.177468,0.009773,-0.052534,-0.008552
2026-03-09T22:15:33.095741,-9.671788,0.090927,2.282752,0.010995,-0.053756,-0.007330
2026-03-09T22:15:33.104741,-9.772287,0.095712,2.201396,0.012217,-0.051312,-0.008552
2026-03-09T22:15:33.114741,-9.805787,0.100498,2.239681,0.010995,-0.053756,-0.009773
2026-03-09T22:15:33.123741,-9.710074,0.124426,2.325823,0.012217,-0.053756,-0.009773
2026-03-09T22:15:33.133741,-9.667003,0.110069,2.273181,0.010995,-0.052534,-0.008552
2026-03-09T22:15:33.143741,-9.705288,0.095712,2.182254,0.010995,-0.050090,-0.009773
2026-03-09T22:15:33.152741,-9.810572,0.057427,2.191825,0.012217,-0.054977,-0.008552
2026-03-09T22:15:33.162741,-9.777073,0.090927,2.225325,0.013439,-0.053756,-0.009773
2026-03-09T22:15:33.172741,-9.734002,0.129212,2.282752,0.009773,-0.054977,-0.010995
2026-03-09T22:15:33.181741,-9.772287,0.129212,2.258824,0.009773,-0.052534,-0.009773
2026-03-09T22:15:33.191741,-9.815358,0.062213,2.249253,0.010995,-0.053756,-0.008552
2026-03-09T22:15:33.200741,-9.748359,0.148355,2.220539,0.010995,-0.053756,-0.008552
2026-03-09T22:15:33.210741,-9.805787,0.110069,2.239681,0.010995,-0.057421,-0.010995
2026-03-09T22:15:33.220741,-9.891928,0.167497,2.301895,0.010995,-0.053756,-0.009773
2026-03-09T22:15:33.229741,-9.824929,0.124426,2.311466,0.010995,-0.051312,-0.008552
2026-03-09T22:15:33.239741,-9.738787,0.100498,2.263610,0.012217,-0.053756,-0.008552
2026-03-09T22:15:33.248741,-9.738787,0.081355,2.258824,0.012217,-0.052534,-0.009773
2026-03-09T22:15:33.258741,-9.734002,0.095712,2.268395,0.009773,-0.051312,-0.009773
2026-03-09T22:15:33.268741,-9.662217,0.129212,2.244467,0.012217,-0.053756,-0.007330
2026-03-09T22:15:33.277741,-9.724431,0.105284,2.316252,0.013439,-0.052534,-0.009773
2026-03-09T22:15:33.287741,-9.844072,0.172283,2.268395,0.009773,-0.050090,-0.008552
2026-03-09T22:15:33.297741,-9.748359,0.057427,2.297109,0.009773,-0.054977,-0.008552
2026-03-09T22:15:33.306741,-9.657432,0.081355,2.249253,0.009773,-0.056199,-0.008552
2026-03-09T22:15:33.316741,-9.839286,0.124426,2.234896,0.009773,-0.050090,-0.009773
2026-03-09T22:15:33.325741,-9.896714,0.071784,2.225325,0.010995,-0.053756,-0.008552
2026-03-09T22:15:33.335741,-9.671788,0.119641,2.273181,0.010995,-0.057421,-0.008552
2026-03-09T22:15:33.345741,-9.628718,0.086141,2.230110,0.010995,-0.052534,-0.010995
2026-03-09T22:15:33.354741,-9.801001,0.157926,2.258824,0.010995,-0.051312,-0.010995
2026-03-09T22:15:33.364741,-9.791430,0.124426,2.263610,0.012217,-0.053756,-0.009773
2026-03-09T22:15:33.373741,-9.647860,0.076570,2.254038,0.009773,-0.053756,-0.009773
2026-03-09T22:15:33.383741,-9.757930,0.124426,2.249253,0.007330,-0.051312,-0.008552
2026-03-09T22:15:33.393741,-9.805787,0.114855,2.239681,0.010995,-0.053756,-0.009773
2026-03-09T22:15:33.402741,-9.757930,0.100498,2.306680,0.012217,-0.053756,-0.009773
2026-03-09T22:15:33.412741,-9.762716,0.129212,2.258824,0.010995,-0.050090,-0.009773
2026-03-09T22:15:33.422741,-9.743573,0.119641,2.249253,0.012217,-0.052534,-0.008552
2026-03-09T22:15:33.431741,-9.738787,0.095712,2.254038,0.009773,-0.052534,-0.008552
2026-03-09T22:15:33.441741,-9.781858,0.066999,2.277967,0.009773,-0.053756,-0.008552
2026-03-09T22:15:33.450741,-9.786644,0.119641,2.234896,0.013439,-0.054977,-0.009773
2026-03-09T22:15:33.460741,-9.690931,0.114855,2.344966,0.012217,-0.053756,-0.008552
2026-03-09T22:15:33.470741,-9.743573,0.143569,2.244467,0.009773,-0.050090,-0.008552
2026-03-09T22:15:33.479741,-9.810572,0.143569,2.297109,0.010995,-0.052534,-0.008552
2026-03-09T22:15:33.489741,-9.695717,0.100498,2.277967,0.009773,-0.054977,-0.009773
2026-03-09T22:15:33.498741,-9.695717,0.086141,2.316252,0.010995,-0.054977,-0.010995
2026-03-09T22:15:33.508741,-9.738787,0.100498,2.282752,0.009773,-0.051312,-0.009773
2026-03-09T22:15:33.518741,-9.738787,0.114855,2.258824,0.010995,-0.051312,-0.008552
2026-03-09T22:15:33.527741,-9.705288,0.105284,2.225325,0.009773,-0.052534,-0.007330
2026-03-09T22:15:33.537741,-9.690931,0.133998,2.287538,0.009773,-0.054977,-0.007330
2026-03-09T22:15:33.547741,-9.729216,0.114855,2.244467,0.009773,-0.054977,-0.010995
2026-03-09T22:15:33.556741,-9.676574,0.095712,2.254038,0.012217,-0.054977,-0.007330
2026-03-09T22:15:33.566741,-9.719645,0.052642,2.277967,0.012217,-0.052534,-0.008552
2026-03-09T22:15:33.575741,-9.810572,0.086141,2.263610,0.012217,-0.054977,-0.009773
2026-03-09T22:15:33.585741,-9.729216,0.100498,2.287538,0.010995,-0.054977,-0.008552
2026-03-09T22:15:33.595741,-9.868000,0.124426,2.249253,0.010995,-0.053756,-0.009773
2026-03-09T22:15:33.604741,-9.954142,0.090927,2.330609,0.010995,-0.053756,-0.009773
2026-03-09T22:15:33.614741,-10.207781,0.119641,2.474178,0.007330,-0.058643,-0.009773
2026-03-09T22:15:33.623741,-10.250852,0.143569,2.431107,0.006108,-0.047647,-0.009773
2026-03-09T22:15:33.633741,-9.475577,0.028713,2.196611,0.004886,-0.052534,-0.006108
2026-03-09T22:15:33.643741,-9.312865,0.066999,2.234896,0.008552,-0.062308,-0.008552
2026-03-09T22:15:33.652741,-9.786644,0.167497,2.316252,0.014660,-0.048869,-0.014660
2026-03-09T22:15:33.662741,-9.710074,0.071784,2.177468,0.010995,-0.048869,-0.012217
2026-03-09T22:15:33.672741,-9.379864,0.033499,2.177468,0.012217,-0.061086,-0.001221
2026-03-09T22:15:33.681741,-9.442077,0.124426,2.201396,0.010995,-0.051312,-0.004886
2026-03-09T22:15:33.691741,-9.997212,0.047856,2.148754,0.008552,-0.047647,-0.014660
2026-03-09T22:15:33.700741,-9.762716,0.095712,2.196611,0.009773,-0.065973,-0.013439
2026-03-09T22:15:33.710741,-9.403792,0.196211,2.321037,0.010995,-0.059864,-0.007330
2026-03-09T22:15:33.720741,-9.858429,0.133998,2.230110,0.010995,-0.037873,-0.002443
2026-03-09T22:15:33.729741,-9.997212,0.076570,2.172682,0.013439,-0.050090,-0.006108
2026-03-09T22:15:33.739741,-9.748359,0.071784,2.258824,0.012217,-0.061086,-0.012217
2026-03-09T22:15:33.748741,-9.580861,0.086141,2.268395,0.010995,-0.057421,-0.015882
2026-03-09T22:15:33.758741,-9.848857,0.138783,2.383251,0.012217,-0.052534,-0.010995
2026-03-09T22:15:33.768741,-9.877571,0.105284,2.287538,0.010995,-0.048869,-0.001221
2026-03-09T22:15:33.777741,-9.647860,0.076570,2.182254,0.009773,-0.050090,-0.002443
2026-03-09T22:15:33.787741,-9.676574,0.071784,2.182254,0.010995,-0.054977,-0.014660
2026-03-09T22:15:33.797741,-9.772287,0.124426,2.325823,0.012217,-0.056199,-0.017104
2026-03-09T22:15:33.806741,-9.743573,0.124426,2.215753,0.010995,-0.052534,-0.008552
2026-03-09T22:15:33.816741,-9.690931,0.086141,2.196611,0.010995,-0.051312,-0.002443
2026-03-09T22:15:33.825741,-9.786644,0.081355,2.215753,0.010995,-0.051312,-0.007330
2026-03-09T22:15:33.835741,-9.844072,0.100498,2.167897,0.010995,-0.052534,-0.013439
2026-03-09T22:15:33.845741,-9.700502,0.066999,2.297109,0.010995,-0.058643,-0.013439
2026-03-09T22:15:33.854741,-9.686145,0.076570,2.249253,0.012217,-0.052534,-0.007330
2026-03-09T22:15:33.864741,-9.853643,0.071784,2.249253,0.010995,-0.047647,-0.007330
2026-03-09T22:15:33.873741,-9.748359,0.133998,2.254038,0.012217,-0.053756,-0.007330
2026-03-09T22:15:33.883741,-9.643075,0.105284,2.277967,0.012217,-0.057421,-0.009773
2026-03-09T22:15:33.893741,-9.762716,0.095712,2.249253,0.012217,-0.053756,-0.009773
2026-03-09T22:15:33.902741,-9.796215,0.095712,2.297109,0.012217,-0.053756,-0.008552
2026-03-09T22:15:33.912741,-9.671788,0.110069,2.263610,0.013439,-0.053756,-0.007330
2026-03-09T22:15:33.922741,-9.724431,0.143569,2.234896,0.009773,-0.048869,-0.008552
2026-03-09T22:15:33.931741,-9.801001,0.105284,2.249253,0.008552,-0.053756,-0.010995
2026-03-09T22:15:33.941741,-9.700502,0.133998,2.268395,0.010995,-0.054977,-0.010995
2026-03-09T22:15:33.950741,-9.753144,0.148355,2.258824,0.012217,-0.051312,-0.010995
2026-03-09T22:15:33.960741,-9.844072,0.071784,2.273181,0.012217,-0.053756,-0.008552
2026-03-09T22:15:33.970741,-9.676574,0.071784,2.244467,0.010995,-0.054977,-0.007330
2026-03-09T22:15:33.979741,-9.638289,0.105284,2.258824,0.012217,-0.054977,-0.008552
2026-03-09T22:15:33.989741,-9.767501,0.114855,2.311466,0.012217,-0.052534,-0.010995
2026-03-09T22:15:33.998741,-9.815358,0.095712,2.230110,0.010995,-0.054977,-0.010995
2026-03-09T22:15:34.008741,-9.590432,0.081355,2.220539,0.012217,-0.053756,-0.008552
2026-03-09T22:15:34.018741,-9.734002,0.114855,2.239681,0.010995,-0.050090,-0.008552
2026-03-09T22:15:34.027741,-9.872786,0.086141,2.244467,0.012217,-0.052534,-0.009773
2026-03-09T22:15:34.037741,-9.767501,0.119641,2.273181,0.013439,-0.054977,-0.010995
2026-03-09T22:15:34.047741,-9.719645,0.157926,2.282752,0.012217,-0.051312,-0.009773
2026-03-09T22:15:34.056741,-9.748359,0.090927,2.215753,0.012217,-0.050090,-0.008552
2026-03-09T22:15:34.066741,-9.710074,0.105284,2.254038,0.012217,-0.052534,-0.008552
2026-03-09T22:15:34.075741,-9.724431,0.114855,2.230110,0.009773,-0.052534,-0.009773
2026-03-09T22:15:34.085741,-9.710074,0.047856,2.239681,0.010995,-0.053756,-0.010995
2026-03-09T22:15:34.095741,-9.781858,0.105284,2.244467,0.013439,-0.054977,-0.008552
2026-03-09T22:15:34.104741,-9.700502,0.100498,2.306680,0.012217,-0.052534,-0.007330
2026-03-09T22:15:34.114741,-9.772287,0.124426,2.268395,0.012217,-0.054977,-0.009773
2026-03-09T22:15:34.123741,-9.753144,0.133998,2.297109,0.010995,-0.053756,-0.009773
2026-03-09T22:15:34.133741,-9.786644,0.095712,2.258824,0.012217,-0.051312,-0.008552
2026-03-09T22:15:34.143741,-9.695717,0.100498,2.239681,0.012217,-0.053756,-0.008552
2026-03-09T22:15:34.152741,-9.748359,0.119641,2.258824,0.010995,-0.053756,-0.009773
2026-03-09T22:15:34.162741,-9.757930,0.129212,2.254038,0.008552,-0.052534,-0.008552
2026-03-09T22:15:34.172741,-9.719645,0.090927,2.234896,0.009773,-0.056199,-0.008552
2026-03-09T22:15:34.181741,-9.647860,0.100498,2.244467,0.013439,-0.054977,-0.009773
2026-03-09T22:15:34.191741,-9.872786,0.110069,2.273181,0.013439,-0.053756,-0.009773
2026-03-09T22:15:34.200741,-9.891928,0.090927,2.287538,0.010995,-0.056199,-0.008552
2026-03-09T22:15:34.210741,-9.767501,0.105284,2.335394,0.012217,-0.054977,-0.010995
2026-03-09T22:15:34.220741,-9.681360,0.110069,2.292324,0.009773,-0.048869,-0.009773
2026-03-09T22:15:34.229741,-9.786644,0.100498,2.258824,0.007330,-0.051312,-0.009773
2026-03-09T22:15:34.239741,-9.700502,0.090927,2.263610,0.008552,-0.054977,-0.007330
2026-03-09T22:15:34.248741,-9.647860,0.143569,2.268395,0.010995,-0.053756,-0.009773
2026-03-09T22:15:34.258741,-9.748359,0.081355,2.277967,0.010995,-0.052534,-0.009773
2026-03-09T22:15:34.268741,-9.820143,0.133998,2.321037,0.013439,-0.053756,-0.009773
2026-03-09T22:15:34.277741,-9.714859,0.095712,2.182254,0.010995,-0.052534,-0.008552
2026-03-09T22:15:34.287741,-9.686145,0.124426,2.316252,0.010995,-0.052534,-0.008552
2026-03-09T22:15:34.297741,-9.738787,0.105284,2.201396,0.010995,-0.050090,-0.008552
2026-03-09T22:15:34.306741,-9.772287,0.129212,2.249253,0.012217,-0.052534,-0.009773
2026-03-09T22:15:34.316741,-9.690931,0.148355,2.297109,0.010995,-0.053756,-0.010995
2026-03-09T22:15:34.325741,-9.748359,0.129212,2.287538,0.012217,-0.056199,-0.010995
2026-03-09T22:15:34.335741,-9.748359,0.138783,2.306680,0.010995,-0.050090,-0.008552
2026-03-09T22:15:34.345741,-9.753144,0.119641,2.196611,0.010995,-0.050090,-0.008552
2026-03-09T22:15:34.354741,-9.734002,0.138783,2.263610,0.012217,-0.056199,-0.010995
2026-03-09T22:15:34.364741,-9.705288,0.110069,2.268395,0.010995,-0.056199,-0.010995
2026-03-09T22:15:34.373741,-9.786644,0.162711,2.301895,0.010995,-0.053756,-0.008552
2026-03-09T22:15:34.383741,-9.801001,0.086141,2.263610,0.012217,-0.053756,-0.007330
2026-03-09T22:15:34.393741,-9.705288,0.153140,2.282752,0.012217,-0.052534,-0.007330
2026-03-09T22:15:34.402741,-9.734002,0.052642,2.206182,0.010995,-0.052534,-0.010995
2026-03-09T22:15:34.412741,-9.791430,0.081355,2.277967,0.010995,-0.053756,-0.010995
2026-03-09T22:15:34.422741,-9.724431,0.086141,2.201396,0.013439,-0.054977,-0.008552
2026-03-09T22:15:34.431741,-9.738787,0.033499,2.220539,0.010995,-0.052534,-0.008552
2026-03-09T22:15:34.441741,-9.781858,0.153140,2.273181,0.009773,-0.054977,-0.007330
2026-03-09T22:15:34.450741,-9.738787,0.133998,2.254038,0.010995,-0.053756,-0.009773
2026-03-09T22:15:34.460741,-9.734002,0.110069,2.282752,0.009773,-0.054977,-0.009773
2026-03-09T22:15:34.470741,-9.738787,0.100498,2.254038,0.010995,-0.054977,-0.008552
2026-03-09T22:15:34.479741,-9.724431,0.119641,2.225325,0.010995,-0.053756,-0.008552
2026-03-09T22:15:34.489741,-9.748359,0.086141,2.306680,0.012217,-0.052534,-0.008552
2026-03-09T22:15:34.498741,-9.839286,0.119641,2.258824,0.009773,-0.054977,-0.009773
2026-03-09T22:15:34.508741,-9.748359,0.076570,2.292324,0.009773,-0.054977,-0.009773
2026-03-09T22:15:34.518741,-9.676574,0.105284,2.215753,0.010995,-0.053756,-0.009773
2026-03-09T22:15:34.527741,-9.724431,0.133998,2.301895,0.010995,-0.052534,-0.009773
2026-03-09T22:15:34.537741,-9.786644,0.110069,2.277967,0.008552,-0.053756,-0.008552
2026-03-09T22:15:34.547741,-9.671788,0.143569,2.177468,0.010995,-0.053756,-0.008552
2026-03-09T22:15:34.556741,-9.690931,0.090927,2.263610,0.013439,-0.052534,-0.009773
2026-03-09T22:15:34.566741,-9.815358,0.086141,2.254038,0.010995,-0.052534,-0.009773
2026-03-09T22:15:34.575741,-9.772287,0.133998,2.277967,0.009773,-0.054977,-0.009773
2026-03-09T22:15:34.585741,-9.714859,0.138783,2.316252,0.010995,-0.051312,-0.008552
2026-03-09T22:15:34.595741,-9.748359,0.133998,2.273181,0.009773,-0.052534,-0.008552
2026-03-09T22:15:34.604741,-9.796215,0.114855,2.254038,0.010995,-0.053756,-0.010995
2026-03-09T22:15:34.614741,-9.805787,0.114855,2.297109,0.013439,-0.056199,-0.010995
2026-03-09T22:15:34.623741,-9.681360,0.148355,2.239681,0.012217,-0.053756,-0.010995
2026-03-09T22:15:34.633741,-9.748359,0.057427,2.263610,0.009773,-0.052534,-0.009773
2026-03-09T22:15:34.643741,-9.786644,0.100498,2.268395,0.012217,-0.050090,-0.008552
2026-03-09T22:15:34.652741,-9.714859,0.124426,2.282752,0.013439,-0.054977,-0.009773
2026-03-09T22:15:34.662741,-9.714859,0.133998,2.277967,0.010995,-0.054977,-0.009773
2026-03-09T22:15:34.672741,-9.724431,0.110069,2.277967,0.010995,-0.052534,-0.010995
2026-03-09T22:15:34.681741,-9.753144,0.124426,2.225325,0.008552,-0.051312,-0.009773
2026-03-09T22:15:34.691741,-9.801001,0.124426,2.282752,0.012217,-0.053756,-0.010995
2026-03-09T22:15:34.700741,-9.714859,0.110069,2.210968,0.009773,-0.053756,-0.009773
2026-03-09T22:15:34.710741,-9.734002,0.086141,2.234896,0.009773,-0.052534,-0.008552
2026-03-09T22:15:34.720741,-9.786644,0.043070,2.258824,0.009773,-0.053756,-0.009773
2026-03-09T22:15:34.729741,-9.762716,0.124426,2.273181,0.009773,-0.054977,-0.008552
2026-03-09T22:15:34.739741,-9.734002,0.066999,2.220539,0.012217,-0.052534,-0.008552
2026-03-09T22:15:34.748741,-9.791430,0.124426,2.277967,0.012217,-0.054977,-0.010995
2026-03-09T22:15:34.758741,-9.762716,0.086141,2.273181,0.012217,-0.054977,-0.009773
2026-03-09T22:15:34.768741,-9.757930,0.095712,2.254038,0.010995,-0.053756,-0.010995
2026-03-09T22:15:34.777741,-9.700502,0.129212,2.292324,0.010995,-0.053756,-0.009773
2026-03-09T22:15:34.787741,-9.695717,0.100498,2.220539,0.009773,-0.053756,-0.008552
2026-03-09T22:15:34.797741,-9.734002,0.100498,2.215753,0.009773,-0.054977,-0.009773
2026-03-09T22:15:34.806741,-9.719645,0.100498,2.268395,0.010995,-0.054977,-0.008552
2026-03-09T22:15:34.816741,-9.734002,0.090927,2.268395,0.009773,-0.054977,-0.008552
2026-03-09T22:15:34.825741,-9.753144,0.100498,2.196611,0.012217,-0.054977,-0.008552
2026-03-09T22:15:34.835741,-9.791430,0.177068,2.311466,0.010995,-0.052534,-0.008552
2026-03-09T22:15:34.845741,-9.762716,0.133998,2.330609,0.008552,-0.052534,-0.009773
2026-03-09T22:15:34.854741,-9.695717,0.090927,2.254038,0.010995,-0.051312,-0.008552
2026-03-09T22:15:34.864741,-9.690931,0.100498,2.301895,0.010995,-0.054977,-0.010995
2026-03-09T22:15:34.873741,-9.757930,0.047856,2.282752,0.008552,-0.052534,-0.012217
2026-03-09T22:15:34.883741,-9.777073,0.119641,2.244467,0.010995,-0.053756,-0.009773
2026-03-09T22:15:34.893741,-9.700502,0.114855,2.254038,0.012217,-0.054977,-0.009773
2026-03-09T22:15:34.902741,-9.762716,0.095712,2.268395,0.008552,-0.054977,-0.009773
2026-03-09T22:15:34.912741,-9.753144,0.100498,2.244467,0.010995,-0.052534,-0.009773
2026-03-09T22:15:34.922741,-9.748359,0.110069,2.325823,0.012217,-0.054977,-0.009773
2026-03-09T22:15:34.931741,-9.681360,0.100498,2.249253,0.009773,-0.054977,-0.009773
2026-03-09T22:15:34.941741,-9.714859,0.105284,2.273181,0.012217,-0.053756,-0.009773
2026-03-09T22:15:34.950741,-9.753144,0.081355,2.234896,0.013439,-0.052534,-0.008552
2026-03-09T22:15:34.960741,-9.743573,0.119641,2.301895,0.012217,-0.051312,-0.008552
2026-03-09T22:15:34.970741,-9.762716,0.090927,2.297109,0.012217,-0.053756,-0.009773
2026-03-09T22:15:34.979741,-9.772287,0.095712,2.239681,0.009773,-0.053756,-0.009773
2026-03-09T22:15:34.989741,-9.743573,0.100498,2.206182,0.012217,-0.053756,-0.010995
2026-03-09T22:15:34.998741,-9.734002,0.057427,2.273181,0.009773,-0.053756,-0.008552
2026-03-09T22:15:35.008741,-9.724431,0.100498,2.225325,0.010995,-0.053756,-0.009773
2026-03-09T22:15:35.018741,-9.734002,0.105284,2.282752,0.012217,-0.054977,-0.009773
2026-03-09T22:15:35.027741,-9.748359,0.100498,2.268395,0.010995,-0.053756,-0.008552
2026-03-09T22:15:35.037741,-9.729216,0.138783,2.210968,0.010995,-0.052534,-0.008552
2026-03-09T22:15:35.047741,-9.738787,0.095712,2.297109,0.012217,-0.053756,-0.008552
2026-03-09T22:15:35.056741,-9.743573,0.086141,2.330609,0.009773,-0.054977,-0.009773
2026-03-09T22:15:35.066741,-9.724431,0.095712,2.263610,0.012217,-0.053756,-0.007330
2026-03-09T22:15:35.075741,-9.777073,0.133998,2.254038,0.012217,-0.053756,-0.008552
2026-03-09T22:15:35.085741,-9.714859,0.047856,2.330609,0.012217,-0.053756,-0.009773
2026-03-09T22:15:35.095741,-9.729216,0.129212,2.244467,0.010995,-0.053756,-0.008552
2026-03-09T22:15:35.104741,-9.695717,0.100498,2.316252,0.010995,-0.051312,-0.008552
2026-03-09T22:15:35.114741,-9.748359,0.124426,2.234896,0.010995,-0.053756,-0.008552
2026-03-09T22:15:35.123741,-9.781858,0.119641,2.239681,0.012217,-0.052534,-0.010995
2026-03-09T22:15:35.133741,-9.734002,0.095712,2.263610,0.012217,-0.056199,-0.009773
2026-03-09T22:15:35.143741,-9.734002,0.090927,2.263610,0.012217,-0.053756,-0.009773
2026-03-09T22:15:35.152741,-9.695717,0.090927,2.206182,0.012217,-0.053756,-0.007330
2026-03-09T22:15:35.162741,-9.810572,0.076570,2.215753,0.009773,-0.053756,-0.007330
2026-03-09T22:15:35.172741,-9.719645,0.081355,2.249253,0.012217,-0.054977,-0.008552
2026-03-09T22:15:35.181741,-9.705288,0.062213,2.292324,0.012217,-0.053756,-0.010995
2026-03-09T22:15:35.191741,-9.714859,0.105284,2.225325,0.010995,-0.053756,-0.008552
2026-03-09T22:15:35.200741,-9.743573,0.119641,2.273181,0.009773,-0.054977,-0.010995
2026-03-09T22:15:35.210741,-9.734002,0.114855,2.254038,0.010995,-0.053756,-0.009773
2026-03-09T22:15:35.220741,-9.738787,0.071784,2.268395,0.012217,-0.052534,-0.009773
2026-03-09T22:15:35.229741,-9.729216,0.066999,2.196611,0.012217,-0.054977,-0.008552
2026-03-09T22:15:35.239741,-9.690931,0.105284,2.282752,0.012217,-0.054977,-0.008552
2026-03-09T22:15:35.248741,-9.801001,0.105284,2.239681,0.009773,-0.054977,-0.008552
2026-03-09T22:15:35.258741,-9.781858,0.157926,2.258824,0.010995,-0.052534,-0.007330
2026-03-09T22:15:35.268741,-9.762716,0.143569,2.225325,0.012217,-0.053756,-0.008552
2026-03-09T22:15:35.277741,-9.762716,0.129212,2.258824,0.010995,-0.054977,-0.008552
2026-03-09T22:15:35.287741,-9.738787,0.129212,2.220539,0.012217,-0.053756,-0.009773
2026-03-09T22:15:35.297741,-9.700502,0.105284,2.277967,0.012217,-0.052534,-0.008552
2026-03-09T22:15:35.306741,-9.777073,0.100498,2.292324,0.010995,-0.054977,-0.008552
2026-03-09T22:15:35.316741,-9.690931,0.129212,2.282752,0.013439,-0.053756,-0.009773
2026-03-09T22:15:35.325741,-9.681360,0.177068,2.292324,0.013439,-0.053756,-0.010995
2026-03-09T22:15:35.335741,-9.748359,0.086141,2.225325,0.012217,-0.053756,-0.009773
2026-03-09T22:15:35.345741,-9.738787,0.071784,2.277967,0.013439,-0.054977,-0.010995
2026-03-09T22:15:35.354741,-9.738787,0.148355,2.282752,0.010995,-0.053756,-0.009773
2026-03-09T22:15:35.364741,-9.748359,0.110069,2.254038,0.010995,-0.056199,-0.008552
2026-03-09T22:15:35.373741,-9.762716,0.047856,2.206182,0.012217,-0.053756,-0.008552
2026-03-09T22:15:35.383741,-9.734002,0.076570,2.187039,0.012217,-0.053756,-0.007330
2026-03-09T22:15:35.393741,-9.734002,0.052642,2.239681,0.012217,-0.053756,-0.008552
2026-03-09T22:15:35.402741,-9.686145,0.110069,2.244467,0.012217,-0.052534,-0.008552
2026-03-09T22:15:35.412741,-9.757930,0.105284,2.234896,0.009773,-0.051312,-0.007330
2026-03-09T22:15:35.422741,-9.743573,0.110069,2.287538,0.012217,-0.052534,-0.010995
2026-03-09T22:15:35.431741,-9.719645,0.105284,2.297109,0.012217,-0.053756,-0.009773
2026-03-09T22:15:35.441741,-9.738787,0.095712,2.234896,0.010995,-0.053756,-0.009773
2026-03-09T22:15:35.450741,-9.748359,0.100498,2.254038,0.008552,-0.051312,-0.008552
2026-03-09T22:15:35.460741,-9.762716,0.052642,2.258824,0.010995,-0.052534,-0.008552
2026-03-09T22:15:35.470741,-9.748359,0.114855,2.263610,0.009773,-0.052534,-0.008552
2026-03-09T22:15:35.479741,-9.724431,0.143569,2.230110,0.012217,-0.053756,-0.008552
2026-03-09T22:15:35.489741,-9.729216,0.114855,2.277967,0.012217,-0.051312,-0.007330
2026-03-09T22:15:35.498741,-9.757930,0.114855,2.263610,0.009773,-0.051312,-0.008552
2026-03-09T22:15:35.508741,-9.738787,0.143569,2.292324,0.010995,-0.054977,-0.008552
2026-03-09T22:15:35.518741,-9.748359,0.133998,2.316252,0.012217,-0.054977,-0.008552
2026-03-09T22:15:35.527741,-9.772287,0.119641,2.220539,0.010995,-0.054977,-0.008552
2026-03-09T22:15:35.537741,-9.786644,0.129212,2.273181,0.009773,-0.054977,-0.008552
2026-03-09T22:15:35.547741,-9.743573,0.124426,2.301895,0.012217,-0.052534,-0.009773
2026-03-09T22:15:35.556741,-9.791430,0.110069,2.268395,0.009773,-0.052534,-0.010995
2026-03-09T22:15:35.566741,-9.743573,0.081355,2.225325,0.009773,-0.052534,-0.009773
2026-03-09T22:15:35.575741,-9.710074,0.153140,2.249253,0.010995,-0.052534,-0.008552
2026-03-09T22:15:35.585741,-9.724431,0.100498,2.249253,0.009773,-0.053756,-0.008552
2026-03-09T22:15:35.595741,-9.753144,0.143569,2.268395,0.009773,-0.051312,-0.008552
2026-03-09T22:15:35.604741,-9.700502,0.095712,2.311466,0.012217,-0.053756,-0.010995
2026-03-09T22:15:35.614741,-9.757930,0.090927,2.258824,0.012217,-0.053756,-0.009773
2026-03-09T22:15:35.623741,-9.772287,0.076570,2.191825,0.012217,-0.052534,-0.009773
2026-03-09T22:15:35.633741,-9.724431,0.090927,2.230110,0.010995,-0.051312,-0.009773
2026-03-09T22:15:35.643741,-9.729216,0.076570,2.258824,0.010995,-0.051312,-0.010995
2026-03-09T22:15:35.652741,-9.772287,0.090927,2.287538,0.010995,-0.052534,-0.008552
2026-03-09T22:15:35.662741,-9.700502,0.086141,2.311466,0.009773,-0.053756,-0.008552
2026-03-09T22:15:35.672741,-9.714859,0.114855,2.215753,0.010995,-0.051312,-0.008552
2026-03-09T22:15:35.681741,-9.719645,0.100498,2.234896,0.009773,-0.051312,-0.007330
2026-03-09T22:15:35.691741,-9.791430,0.143569,2.225325,0.010995,-0.053756,-0.008552
2026-03-09T22:15:35.700741,-9.748359,0.129212,2.244467,0.012217,-0.052534,-0.008552
2026-03-09T22:15:35.710741,-9.719645,0.133998,2.220539,0.009773,-0.052534,-0.008552
2026-03-09T22:15:35.720741,-9.695717,0.066999,2.258824,0.009773,-0.053756,-0.008552
2026-03-09T22:15:35.729741,-9.796215,0.081355,2.220539,0.010995,-0.053756,-0.009773
2026-03-09T22:15:35.739741,-9.810572,0.086141,2.258824,0.012217,-0.053756,-0.009773
2026-03-09T22:15:35.748741,-9.748359,0.052642,2.239681,0.010995,-0.053756,-0.008552
2026-03-09T22:15:35.758741,-9.738787,0.143569,2.225325,0.012217,-0.053756,-0.009773
2026-03-09T22:15:35.768741,-9.738787,0.090927,2.268395,0.012217,-0.054977,-0.010995
2026-03-09T22:15:35.777741,-9.719645,0.076570,2.263610,0.010995,-0.052534,-0.010995
2026-03-09T22:15:35.787741,-9.681360,0.100498,2.282752,0.012217,-0.052534,-0.008552
2026-03-09T22:15:35.797741,-9.748359,0.033499,2.254038,0.012217,-0.052534,-0.008552
2026-03-09T22:15:35.806741,-9.757930,0.119641,2.263610,0.013439,-0.052534,-0.008552
2026-03-09T22:15:35.816741,-9.686145,0.143569,2.277967,0.012217,-0.053756,-0.008552
2026-03-09T22:15:35.825741,-9.777073,0.153140,2.263610,0.010995,-0.053756,-0.009773
2026-03-09T22:15:35.835741,-9.757930,0.114855,2.258824,0.012217,-0.053756,-0.009773
2026-03-09T22:15:35.845741,-9.729216,0.081355,2.297109,0.013439,-0.053756,-0.010995
2026-03-09T22:15:35.854741,-9.757930,0.110069,2.177468,0.013439,-0.053756,-0.010995
2026-03-09T22:15:35.864741,-9.705288,0.066999,2.234896,0.010995,-0.054977,-0.009773
2026-03-09T22:15:35.873741,-9.710074,0.095712,2.249253,0.010995,-0.054977,-0.008552
2026-03-09T22:15:35.883741,-9.767501,0.090927,2.301895,0.012217,-0.052534,-0.008552
2026-03-09T22:15:35.893741,-9.757930,0.114855,2.297109,0.009773,-0.053756,-0.008552
2026-03-09T22:15:35.902741,-9.724431,0.100498,2.254038,0.012217,-0.053756,-0.008552
2026-03-09T22:15:35.912741,-9.748359,0.162711,2.244467,0.012217,-0.054977,-0.009773
2026-03-09T22:15:35.922741,-9.748359,0.119641,2.325823,0.009773,-0.053756,-0.009773
2026-03-09T22:15:35.931741,-9.724431,0.071784,2.273181,0.009773,-0.053756,-0.009773
2026-03-09T22:15:35.941741,-9.690931,0.114855,2.273181,0.008552,-0.053756,-0.009773
2026-03-09T22:15:35.950741,-9.719645,0.105284,2.254038,0.010995,-0.052534,-0.008552
2026-03-09T22:15:35.960741,-9.729216,0.071784,2.297109,0.010995,-0.052534,-0.008552
2026-03-09T22:15:35.970741,-9.724431,0.066999,2.277967,0.013439,-0.053756,-0.009773
2026-03-09T22:15:35.979741,-9.705288,0.167497,2.263610,0.010995,-0.054977,-0.009773
2026-03-09T22:15:35.989741,-9.734002,0.143569,2.234896,0.009773,-0.052534,-0.008552
2026-03-09T22:15:35.998741,-9.724431,0.114855,2.258824,0.010995,-0.052534,-0.008552
2026-03-09T22:15:36.008741,-9.734002,0.047856,2.297109,0.009773,-0.051312,-0.008552
2026-03-09T22:15:36.018741,-9.767501,0.114855,2.268395,0.012217,-0.052534,-0.007330
2026-03-09T22:15:36.027741,-9.700502,0.177068,2.201396,0.010995,-0.052534,-0.008552
2026-03-09T22:15:36.037741,-9.772287,0.052642,2.244467,0.009773,-0.052534,-0.009773
2026-03-09T22:15:36.047741,-9.757930,0.095712,2.239681,0.010995,-0.052534,-0.009773
2026-03-09T22:15:36.056741,-9.729216,0.133998,2.254038,0.009773,-0.056199,-0.008552
2026-03-09T22:15:36.066741,-9.738787,0.119641,2.282752,0.009773,-0.054977,-0.009773
2026-03-09T22:15:36.075741,-9.757930,0.100498,2.335394,0.009773,-0.053756,-0.008552
2026-03-09T22:15:36.085741,-9.757930,0.114855,2.249253,0.007330,-0.052534,-0.008552
2026-03-09T22:15:36.095741,-9.734002,0.129212,2.263610,0.012217,-0.052534,-0.008552
2026-03-09T22:15:36.104741,-9.753144,0.062213,2.230110,0.010995,-0.053756,-0.008552
2026-03-09T22:15:36.114741,-9.757930,0.133998,2.234896,0.010995,-0.053756,-0.008552
2026-03-09T22:15:36.123741,-9.729216,0.162711,2.273181,0.012217,-0.052534,-0.009773
2026-03-09T22:15:36.133741,-9.781858,0.129212,2.234896,0.012217,-0.052534,-0.008552
2026-03-09T22:15:36.143741,-9.743573,0.062213,2.234896,0.009773,-0.053756,-0.007330
2026-03-09T22:15:36.152741,-9.686145,0.105284,2.321037,0.010995,-0.052534,-0.008552
2026-03-09T22:15:36.162741,-9.714859,0.095712,2.316252,0.010995,-0.053756,-0.008552
2026-03-09T22:15:36.172741,-9.734002,0.086141,2.163111,0.010995,-0.054977,-0.008552
2026-03-09T22:15:36.181741,-9.734002,0.090927,2.220539,0.010995,-0.053756,-0.009773
2026-03-09T22:15:36.191741,-9.743573,0.124426,2.196611,0.012217,-0.054977,-0.008552
2026-03-09T22:15:36.200741,-9.757930,0.081355,2.249253,0.010995,-0.052534,-0.009773
2026-03-09T22:15:36.210741,-9.686145,0.086141,2.263610,0.010995,-0.051312,-0.008552
2026-03-09T22:15:36.220741,-9.729216,0.090927,2.220539,0.010995,-0.052534,-0.009773
2026-03-09T22:15:36.229741,-9.753144,0.129212,2.292324,0.012217,-0.054977,-0.009773
2026-03-09T22:15:36.239741,-9.753144,0.090927,2.282752,0.013439,-0.053756,-0.009773
2026-03-09T22:15:36.248741,-9.671788,0.162711,2.220539,0.012217,-0.053756,-0.009773
2026-03-09T22:15:36.258741,-9.748359,0.119641,2.277967,0.010995,-0.053756,-0.008552
2026-03-09T22:15:36.268741,-9.777073,0.138783,2.273181,0.009773,-0.056199,-0.009773
2026-03-09T22:15:36.277741,-9.762716,0.076570,2.277967,0.009773,-0.054977,-0.009773
2026-03-09T22:15:36.287741,-9.690931,0.081355,2.258824,0.012217,-0.052534,-0.009773
2026-03-09T22:15:36.297741,-9.753144,0.114855,2.287538,0.010995,-0.052534,-0.008552
2026-03-09T22:15:36.306741,-9.719645,0.086141,2.254038,0.008552,-0.052534,-0.007330
2026-03-09T22:15:36.316741,-9.791430,0.119641,2.215753,0.009773,-0.052534,-0.009773
2026-03-09T22:15:36.325741,-9.738787,0.124426,2.258824,0.012217,-0.053756,-0.009773
2026-03-09T22:15:36.335741,-9.652646,0.129212,2.277967,0.012217,-0.054977,-0.008552
2026-03-09T22:15:36.345741,-9.719645,0.133998,2.215753,0.013439,-0.052534,-0.009773
2026-03-09T22:15:36.354741,-9.729216,0.086141,2.244467,0.012217,-0.052534,-0.008552
2026-03-09T22:15:36.364741,-9.695717,0.114855,2.273181,0.010995,-0.053756,-0.009773
2026-03-09T22:15:36.373741,-9.705288,0.100498,2.263610,0.010995,-0.054977,-0.009773
2026-03-09T22:15:36.383741,-9.714859,0.081355,2.268395,0.013439,-0.054977,-0.008552
2026-03-09T22:15:36.393741,-9.753144,0.110069,2.220539,0.013439,-0.052534,-0.009773
2026-03-09T22:15:36.402741,-9.753144,0.138783,2.244467,0.009773,-0.054977,-0.008552
2026-03-09T22:15:36.412741,-9.810572,0.081355,2.316252,0.009773,-0.054977,-0.008552
2026-03-09T22:15:36.422741,-9.724431,0.052642,2.297109,0.012217,-0.053756,-0.009773
2026-03-09T22:15:36.431741,-9.753144,0.081355,2.244467,0.010995,-0.053756,-0.010995
2026-03-09T22:15:36.441741,-9.686145,0.114855,2.234896,0.009773,-0.053756,-0.009773
2026-03-09T22:15:36.450741,-9.753144,0.105284,2.268395,0.008552,-0.053756,-0.007330
2026-03-09T22:15:36.460741,-9.724431,0.148355,2.230110,0.009773,-0.052534,-0.008552
2026-03-09T22:15:36.470741,-9.671788,0.143569,2.230110,0.010995,-0.051312,-0.008552
2026-03-09T22:15:36.479741,-9.695717,0.095712,2.215753,0.012217,-0.053756,-0.008552
2026-03-09T22:15:36.489741,-9.743573,0.129212,2.277967,0.012217,-0.053756,-0.009773
2026-03-09T22:15:36.498741,-9.748359,0.105284,2.287538,0.009773,-0.052534,-0.010995
2026-03-09T22:15:36.508741,-9.791430,0.047856,2.297109,0.010995,-0.052534,-0.010995
2026-03-09T22:15:36.518741,-9.748359,0.095712,2.282752,0.010995,-0.050090,-0.008552
2026-03-09T22:15:36.527741,-9.719645,0.105284,2.225325,0.012217,-0.053756,-0.008552
2026-03-09T22:15:36.537741,-9.824929,0.119641,2.225325,0.012217,-0.054977,-0.008552
2026-03-09T22:15:36.547741,-9.757930,0.100498,2.230110,0.013439,-0.052534,-0.009773
2026-03-09T22:15:36.556741,-9.710074,0.153140,2.282752,0.010995,-0.053756,-0.009773
2026-03-09T22:15:36.566741,-9.700502,0.124426,2.292324,0.012217,-0.052534,-0.008552
2026-03-09T22:15:36.575741,-9.686145,0.119641,2.206182,0.009773,-0.053756,-0.008552
2026-03-09T22:15:36.585741,-9.734002,0.129212,2.273181,0.009773,-0.054977,-0.008552
2026-03-09T22:15:36.595741,-9.700502,0.124426,2.239681,0.012217,-0.053756,-0.008552
2026-03-09T22:15:36.604741,-9.777073,0.138783,2.239681,0.013439,-0.053756,-0.008552
2026-03-09T22:15:36.614741,-9.719645,0.133998,2.258824,0.012217,-0.053756,-0.008552
2026-03-09T22:15:36.623741,-9.734002,0.119641,2.306680,0.009773,-0.054977,-0.009773
2026-03-09T22:15:36.633741,-9.743573,0.090927,2.330609,0.008552,-0.054977,-0.009773
2026-03-09T22:15:36.643741,-9.714859,0.153140,2.330609,0.010995,-0.053756,-0.009773
2026-03-09T22:15:36.652741,-9.700502,0.090927,2.244467,0.012217,-0.053756,-0.009773
2026-03-09T22:15:36.662741,-9.705288,0.071784,2.230110,0.012217,-0.054977,-0.008552
2026-03-09T22:15:36.672741,-9.729216,0.095712,2.254038,0.009773,-0.053756,-0.008552
2026-03-09T22:15:36.681741,-9.757930,0.105284,2.292324,0.013439,-0.053756,-0.009773
2026-03-09T22:15:36.691741,-9.729216,0.076570,2.330609,0.012217,-0.053756,-0.008552
2026-03-09T22:15:36.700741,-9.777073,0.114855,2.277967,0.012217,-0.052534,-0.007330
2026-03-09T22:15:36.710741,-9.805787,0.153140,2.297109,0.012217,-0.052534,-0.009773
2026-03-09T22:15:36.720741,-9.734002,0.138783,2.239681,0.010995,-0.053756,-0.009773
2026-03-09T22:15:36.729741,-9.753144,0.076570,2.287538,0.009773,-0.052534,-0.009773
2026-03-09T22:15:36.739741,-9.753144,0.086141,2.239681,0.009773,-0.056199,-0.008552
2026-03-09T22:15:36.748741,-9.724431,0.157926,2.268395,0.009773,-0.054977,-0.007330
2026-03-09T22:15:36.758741,-9.762716,0.105284,2.297109,0.009773,-0.053756,-0.009773
2026-03-09T22:15:36.768741,-9.796215,0.057427,2.210968,0.010995,-0.054977,-0.008552
2026-03-09T22:15:36.777741,-9.738787,0.110069,2.273181,0.010995,-0.052534,-0.008552
2026-03-09T22:15:36.787741,-9.734002,0.157926,2.254038,0.013439,-0.050090,-0.008552
2026-03-09T22:15:36.797741,-9.748359,0.114855,2.239681,0.012217,-0.053756,-0.008552
2026-03-09T22:15:36.806741,-9.700502,0.114855,2.244467,0.010995,-0.053756,-0.009773
2026-03-09T22:15:36.816741,-9.753144,0.138783,2.201396,0.012217,-0.051312,-0.010995
2026-03-09T22:15:36.825741,-9.686145,0.114855,2.273181,0.013439,-0.052534,-0.009773
2026-03-09T22:15:36.835741,-9.738787,0.076570,2.234896,0.013439,-0.053756,-0.009773
2026-03-09T22:15:36.845741,-9.734002,0.124426,2.263610,0.010995,-0.053756,-0.008552
2026-03-09T22:15:36.854741,-9.700502,0.143569,2.215753,0.010995,-0.053756,-0.009773
2026-03-09T22:15:36.864741,-9.767501,0.119641,2.306680,0.010995,-0.054977,-0.008552
2026-03-09T22:15:36.873741,-9.753144,0.071784,2.244467,0.009773,-0.052534,-0.008552
2026-03-09T22:15:36.883741,-9.796215,0.129212,2.301895,0.008552,-0.053756,-0.008552
2026-03-09T22:15:36.893741,-9.753144,0.133998,2.268395,0.009773,-0.053756,-0.009773
2026-03-09T22:15:36.902741,-9.767501,0.095712,2.234896,0.009773,-0.053756,-0.009773
2026-03-09T22:15:36.912741,-9.743573,0.076570,2.292324,0.010995,-0.053756,-0.008552
2026-03-09T22:15:36.922741,-9.719645,0.114855,2.306680,0.012217,-0.053756,-0.009773
2026-03-09T22:15:36.931741,-9.762716,0.133998,2.230110,0.010995,-0.053756,-0.008552
2026-03-09T22:15:36.941741,-9.757930,0.076570,2.239681,0.010995,-0.053756,-0.008552
2026-03-09T22:15:36.950741,-9.767501,0.095712,2.273181,0.012217,-0.052534,-0.009773
2026-03-09T22:15:36.960741,-9.734002,0.110069,2.268395,0.012217,-0.053756,-0.009773
2026-03-09T22:15:36.970741,-9.772287,0.129212,2.301895,0.009773,-0.052534,-0.009773
2026-03-09T22:15:36.979741,-9.757930,0.133998,2.249253,0.010995,-0.052534,-0.010995
2026-03-09T22:15:36.989741,-9.695717,0.095712,2.268395,0.009773,-0.052534,-0.009773
2026-03-09T22:15:36.998741,-9.757930,0.076570,2.191825,0.010995,-0.054977,-0.008552
2026-03-09T22:15:37.008741,-9.757930,0.076570,2.282752,0.013439,-0.054977,-0.007330
2026-03-09T22:15:37.018741,-9.719645,0.119641,2.244467,0.010995,-0.053756,-0.007330
2026-03-09T22:15:37.027741,-9.695717,0.081355,2.249253,0.010995,-0.053756,-0.008552
2026-03-09T22:15:37.037741,-9.724431,0.153140,2.311466,0.012217,-0.052534,-0.009773
2026-03-09T22:15:37.047741,-9.777073,0.124426,2.325823,0.010995,-0.052534,-0.009773
2026-03-09T22:15:37.056741,-9.748359,0.076570,2.282752,0.010995,-0.053756,-0.008552
2026-03-09T22:15:37.066741,-9.767501,0.076570,2.301895,0.009773,-0.052534,-0.008552
2026-03-09T22:15:37.075741,-9.748359,0.110069,2.292324,0.012217,-0.052534,-0.009773
2026-03-09T22:15:37.085741,-9.743573,0.148355,2.249253,0.010995,-0.053756,-0.009773
2026-03-09T22:15:37.095741,-9.690931,0.047856,2.244467,0.012217,-0.051312,-0.010995
2026-03-09T22:15:37.104741,-9.729216,0.114855,2.249253,0.012217,-0.052534,-0.009773
2026-03-09T22:15:37.114741,-9.743573,0.143569,2.311466,0.014660,-0.052534,-0.009773
2026-03-09T22:15:37.123741,-9.738787,0.110069,2.230110,0.013439,-0.053756,-0.009773
2026-03-09T22:15:37.133741,-9.757930,0.124426,2.268395,0.010995,-0.053756,-0.008552
2026-03-09T22:15:37.143741,-9.748359,0.138783,2.301895,0.009773,-0.053756,-0.008552
2026-03-09T22:15:37.152741,-9.781858,0.157926,2.254038,0.008552,-0.053756,-0.009773
2026-03-09T22:15:37.162741,-9.724431,0.081355,2.234896,0.009773,-0.052534,-0.010995
2026-03-09T22:15:37.172741,-9.753144,0.043070,2.244467,0.010995,-0.054977,-0.009773
2026-03-09T22:15:37.181741,-9.734002,0.153140,2.249253,0.009773,-0.053756,-0.009773
2026-03-09T22:15:37.191741,-9.772287,0.090927,2.273181,0.009773,-0.053756,-0.009773
2026-03-09T22:15:37.200741,-9.719645,0.095712,2.273181,0.012217,-0.054977,-0.008552
2026-03-09T22:15:37.210741,-9.762716,0.143569,2.273181,0.010995,-0.053756,-0.008552
2026-03-09T22:15:37.220741,-9.781858,0.133998,2.249253,0.012217,-0.054977,-0.009773
2026-03-09T22:15:37.229741,-9.734002,0.047856,2.239681,0.013439,-0.053756,-0.009773
2026-03-09T22:15:37.239741,-9.724431,0.062213,2.254038,0.010995,-0.052534,-0.008552
2026-03-09T22:15:37.248741,-9.777073,0.081355,2.263610,0.012217,-0.054977,-0.007330
2026-03-09T22:15:37.258741,-9.743573,0.133998,2.263610,0.013439,-0.054977,-0.010995
2026-03-09T22:15:37.268741,-9.757930,0.086141,2.244467,0.012217,-0.053756,-0.008552
2026-03-09T22:15:37.277741,-9.734002,0.143569,2.201396,0.010995,-0.052534,-0.008552
2026-03-09T22:15:37.287741,-9.757930,0.081355,2.301895,0.012217,-0.054977,-0.009773
2026-03-09T22:15:37.297741,-9.757930,0.095712,2.249253,0.012217,-0.053756,-0.009773
2026-03-09T22:15:37.306741,-9.757930,0.086141,2.191825,0.012217,-0.054977,-0.008552
2026-03-09T22:15:37.316741,-9.729216,0.086141,2.230110,0.008552,-0.052534,-0.008552
2026-03-09T22:15:37.325741,-9.743573,0.105284,2.292324,0.009773,-0.052534,-0.009773
2026-03-09T22:15:37.335741,-9.762716,0.143569,2.282752,0.010995,-0.053756,-0.008552
2026-03-09T22:15:37.345741,-9.772287,0.071784,2.239681,0.010995,-0.053756,-0.009773
2026-03-09T22:15:37.354741,-9.705288,0.129212,2.268395,0.008552,-0.053756,-0.009773
2026-03-09T22:15:37.364741,-9.710074,0.110069,2.244467,0.008552,-0.053756,-0.007330
2026-03-09T22:15:37.373741,-9.805787,0.110069,2.306680,0.012217,-0.054977,-0.007330
2026-03-09T22:15:37.383741,-9.719645,0.100498,2.263610,0.010995,-0.054977,-0.008552
2026-03-09T22:15:37.393741,-9.762716,0.100498,2.340180,0.010995,-0.054977,-0.008552
2026-03-09T22:15:37.402741,-9.714859,0.129212,2.244467,0.008552,-0.054977,-0.009773
2026-03-09T22:15:37.412741,-9.724431,0.076570,2.316252,0.010995,-0.053756,-0.008552
2026-03-09T22:15:37.422741,-9.729216,0.095712,2.268395,0.010995,-0.053756,-0.008552
2026-03-09T22:15:37.431741,-9.743573,0.095712,2.258824,0.009773,-0.051312,-0.008552
2026-03-09T22:15:37.441741,-9.724431,0.129212,2.268395,0.013439,-0.052534,-0.009773
2026-03-09T22:15:37.450741,-9.729216,0.143569,2.282752,0.012217,-0.051312,-0.008552
2026-03-09T22:15:37.460741,-9.719645,0.186640,2.268395,0.010995,-0.054977,-0.008552
2026-03-09T22:15:37.470741,-9.772287,0.143569,2.249253,0.010995,-0.054977,-0.007330
2026-03-09T22:15:37.479741,-9.743573,0.138783,2.239681,0.010995,-0.052534,-0.008552
2026-03-09T22:15:37.489741,-9.743573,0.081355,2.273181,0.013439,-0.053756,-0.009773
2026-03-09T22:15:37.498741,-9.743573,0.124426,2.311466,0.012217,-0.056199,-0.008552
2026-03-09T22:15:37.508741,-9.738787,0.114855,2.287538,0.012217,-0.053756,-0.008552
2026-03-09T22:15:37.518741,-9.767501,0.110069,2.239681,0.012217,-0.053756,-0.008552
2026-03-09T22:15:37.527741,-9.686145,0.177068,2.234896,0.012217,-0.052534,-0.008552
2026-03-09T22:15:37.537741,-9.705288,0.081355,2.225325,0.012217,-0.054977,-0.009773
2026-03-09T22:15:37.547741,-9.738787,0.076570,2.182254,0.009773,-0.054977,-0.009773
2026-03-09T22:15:37.556741,-9.743573,0.076570,2.273181,0.008552,-0.056199,-0.009773
2026-03-09T22:15:37.566741,-9.734002,0.052642,2.220539,0.010995,-0.053756,-0.009773
2026-03-09T22:15:37.575741,-9.786644,0.124426,2.287538,0.012217,-0.054977,-0.008552
2026-03-09T22:15:37.585741,-9.700502,0.138783,2.220539,0.009773,-0.053756,-0.008552
2026-03-09T22:15:37.595741,-9.753144,0.095712,2.254038,0.010995,-0.052534,-0.009773
2026-03-09T22:15:37.604741,-9.762716,0.114855,2.330609,0.010995,-0.052534,-0.009773
2026-03-09T22:15:37.614741,-9.762716,0.076570,2.273181,0.012217,-0.054977,-0.008552
2026-03-09T22:15:37.623741,-9.757930,0.100498,2.258824,0.012217,-0.056199,-0.008552
2026-03-09T22:15:37.633741,-9.700502,0.095712,2.287538,0.010995,-0.053756,-0.012217
2026-03-09T22:15:37.643741,-9.815358,0.124426,2.254038,0.010995,-0.053756,-0.009773
2026-03-09T22:15:37.652741,-9.796215,0.129212,2.306680,0.009773,-0.053756,-0.009773
2026-03-09T22:15:37.662741,-9.753144,0.110069,2.263610,0.010995,-0.053756,-0.009773
2026-03-09T22:15:37.672741,-9.719645,0.114855,2.234896,0.008552,-0.053756,-0.009773
2026-03-09T22:15:37.681741,-9.748359,0.095712,2.258824,0.010995,-0.053756,-0.009773
2026-03-09T22:15:37.691741,-9.719645,0.100498,2.268395,0.010995,-0.053756,-0.009773
2026-03-09T22:15:37.700741,-9.748359,0.129212,2.239681,0.010995,-0.053756,-0.010995
2026-03-09T22:15:37.710741,-9.714859,0.047856,2.230110,0.009773,-0.054977,-0.009773
2026-03-09T22:15:37.720741,-9.686145,0.114855,2.215753,0.010995,-0.052534,-0.008552
2026-03-09T22:15:37.729741,-9.796215,0.105284,2.268395,0.009773,-0.053756,-0.008552
2026-03-09T22:15:37.739741,-9.743573,0.090927,2.287538,0.010995,-0.052534,-0.008552
2026-03-09T22:15:37.748741,-9.695717,0.110069,2.277967,0.009773,-0.054977,-0.009773
2026-03-09T22:15:37.758741,-9.738787,0.105284,2.263610,0.010995,-0.054977,-0.008552
2026-03-09T22:15:37.768741,-9.700502,0.114855,2.273181,0.012217,-0.053756,-0.008552
2026-03-09T22:15:37.777741,-9.714859,0.143569,2.277967,0.010995,-0.054977,-0.009773
2026-03-09T22:15:37.787741,-9.719645,0.119641,2.273181,0.012217,-0.057421,-0.009773
2026-03-09T22:15:37.797741,-9.710074,0.066999,2.273181,0.013439,-0.052534,-0.009773
2026-03-09T22:15:37.806741,-9.724431,0.119641,2.254038,0.010995,-0.052534,-0.009773
2026-03-09T22:15:37.816741,-9.743573,0.105284,2.225325,0.010995,-0.054977,-0.009773
2026-03-09T22:15:37.825741,-9.738787,0.110069,2.249253,0.013439,-0.053756,-0.008552
2026-03-09T22:15:37.835741,-9.767501,0.124426,2.230110,0.009773,-0.053756,-0.008552
2026-03-09T22:15:37.845741,-9.762716,0.076570,2.282752,0.010995,-0.054977,-0.010995
2026-03-09T22:15:37.854741,-9.724431,0.086141,2.215753,0.010995,-0.053756,-0.008552
2026-03-09T22:15:37.864741,-9.757930,0.148355,2.254038,0.013439,-0.052534,-0.009773
2026-03-09T22:15:37.873741,-9.724431,0.129212,2.258824,0.012217,-0.053756,-0.008552
2026-03-09T22:15:37.883741,-9.829715,0.114855,2.273181,0.013439,-0.051312,-0.008552
2026-03-09T22:15:37.893741,-9.743573,0.124426,2.234896,0.010995,-0.051312,-0.008552
2026-03-09T22:15:37.902741,-9.729216,0.105284,2.287538,0.012217,-0.052534,-0.009773
2026-03-09T22:15:37.912741,-9.762716,0.090927,2.215753,0.010995,-0.053756,-0.009773
2026-03-09T22:15:37.922741,-9.786644,0.076570,2.258824,0.009773,-0.053756,-0.009773
2026-03-09T22:15:37.931741,-9.724431,0.110069,2.234896,0.009773,-0.053756,-0.009773
2026-03-09T22:15:37.941741,-9.767501,0.105284,2.297109,0.012217,-0.053756,-0.009773
2026-03-09T22:15:37.950741,-9.724431,0.124426,2.225325,0.013439,-0.056199,-0.009773
2026-03-09T22:15:37.960741,-9.777073,0.066999,2.268395,0.012217,-0.053756,-0.009773
2026-03-09T22:15:37.970741,-9.753144,0.114855,2.273181,0.010995,-0.052534,-0.008552
2026-03-09T22:15:37.979741,-9.743573,0.071784,2.215753,0.012217,-0.053756,-0.009773
2026-03-09T22:15:37.989741,-9.757930,0.110069,2.230110,0.010995,-0.053756,-0.008552
2026-03-09T22:15:37.998741,-9.757930,0.114855,2.306680,0.010995,-0.054977,-0.009773
2026-03-09T22:15:38.008741,-9.724431,0.124426,2.254038,0.010995,-0.052534,-0.006108
2026-03-09T22:15:38.018741,-9.762716,0.124426,2.249253,0.010995,-0.052534,-0.009773
2026-03-09T22:15:38.027741,-9.743573,0.105284,2.292324,0.010995,-0.052534,-0.010995
2026-03-09T22:15:38.037741,-9.714859,0.062213,2.249253,0.009773,-0.052534,-0.008552
2026-03-09T22:15:38.047741,-9.748359,0.153140,2.292324,0.010995,-0.053756,-0.009773
2026-03-09T22:15:38.056741,-9.791430,0.129212,2.254038,0.010995,-0.053756,-0.008552
2026-03-09T22:15:38.066741,-9.743573,0.100498,2.297109,0.012217,-0.053756,-0.008552
2026-03-09T22:15:38.075741,-9.734002,0.114855,2.254038,0.010995,-0.052534,-0.009773
2026-03-09T22:15:38.085741,-9.738787,0.090927,2.287538,0.012217,-0.053756,-0.008552
2026-03-09T22:15:38.095741,-9.729216,0.114855,2.215753,0.012217,-0.054977,-0.008552
2026-03-09T22:15:38.104741,-9.748359,0.086141,2.230110,0.013439,-0.051312,-0.009773
2026-03-09T22:15:38.114741,-9.824929,0.105284,2.287538,0.010995,-0.052534,-0.009773
2026-03-09T22:15:38.123741,-9.738787,0.110069,2.301895,0.008552,-0.052534,-0.007330
2026-03-09T22:15:38.133741,-9.748359,0.119641,2.249253,0.010995,-0.052534,-0.009773
2026-03-09T22:15:38.143741,-9.700502,0.143569,2.254038,0.012217,-0.053756,-0.009773
2026-03-09T22:15:38.152741,-9.762716,0.110069,2.239681,0.010995,-0.053756,-0.009773
2026-03-09T22:15:38.162741,-9.801001,0.157926,2.249253,0.012217,-0.052534,-0.009773
2026-03-09T22:15:38.172741,-9.753144,0.105284,2.306680,0.012217,-0.050090,-0.009773
2026-03-09T22:15:38.181741,-9.714859,0.090927,2.249253,0.012217,-0.051312,-0.008552
2026-03-09T22:15:38.191741,-9.686145,0.100498,2.234896,0.010995,-0.053756,-0.008552
2026-03-09T22:15:38.200741,-9.762716,0.114855,2.239681,0.012217,-0.052534,-0.009773
2026-03-09T22:15:38.210741,-9.748359,0.043070,2.244467,0.012217,-0.056199,-0.009773
2026-03-09T22:15:38.220741,-9.719645,0.090927,2.287538,0.013439,-0.053756,-0.009773
2026-03-09T22:15:38.229741,-9.738787,0.047856,2.268395,0.010995,-0.052534,-0.008552
2026-03-09T22:15:38.239741,-9.724431,0.100498,2.196611,0.010995,-0.051312,-0.008552
2026-03-09T22:15:38.248741,-9.724431,0.066999,2.292324,0.012217,-0.052534,-0.008552
2026-03-09T22:15:38.258741,-9.705288,0.081355,2.249253,0.010995,-0.054977,-0.009773
2026-03-09T22:15:38.268741,-9.748359,0.076570,2.206182,0.012217,-0.054977,-0.009773
2026-03-09T22:15:38.277741,-9.767501,0.105284,2.263610,0.010995,-0.054977,-0.007330
2026-03-09T22:15:38.287741,-9.777073,0.129212,2.282752,0.009773,-0.053756,-0.008552
2026-03-09T22:15:38.297741,-9.734002,0.052642,2.292324,0.013439,-0.051312,-0.008552
2026-03-09T22:15:38.306741,-9.714859,0.100498,2.215753,0.013439,-0.052534,-0.009773
2026-03-09T22:15:38.316741,-9.801001,0.119641,2.234896,0.010995,-0.053756,-0.008552
2026-03-09T22:15:38.325741,-9.767501,0.095712,2.244467,0.010995,-0.053756,-0.009773
2026-03-09T22:15:38.335741,-9.714859,0.124426,2.225325,0.012217,-0.053756,-0.009773
2026-03-09T22:15:38.345741,-9.753144,0.148355,2.263610,0.008552,-0.053756,-0.007330
2026-03-09T22:15:38.354741,-9.753144,0.095712,2.282752,0.009773,-0.053756,-0.009773
2026-03-09T22:15:38.364741,-9.743573,0.138783,2.277967,0.012217,-0.051312,-0.009773
2026-03-09T22:15:38.373741,-9.762716,0.105284,2.297109,0.013439,-0.052534,-0.009773
2026-03-09T22:15:38.383741,-9.757930,0.133998,2.287538,0.010995,-0.053756,-0.010995
2026-03-09T22:15:38.393741,-9.743573,0.066999,2.249253,0.012217,-0.053756,-0.009773
2026-03-09T22:15:38.402741,-9.786644,0.133998,2.254038,0.013439,-0.053756,-0.008552
2026-03-09T22:15:38.412741,-9.667003,0.100498,2.282752,0.012217,-0.051312,-0.008552
2026-03-09T22:15:38.422741,-9.743573,0.143569,2.277967,0.009773,-0.053756,-0.008552
2026-03-09T22:15:38.431741,-9.748359,0.110069,2.249253,0.009773,-0.052534,-0.009773
2026-03-09T22:15:38.441741,-9.738787,0.114855,2.297109,0.010995,-0.051312,-0.009773
2026-03-09T22:15:38.450741,-9.724431,0.095712,2.335394,0.010995,-0.052534,-0.008552
2026-03-09T22:15:38.460741,-9.738787,0.105284,2.206182,0.012217,-0.053756,-0.008552
2026-03-09T22:15:38.470741,-9.738787,0.100498,2.254038,0.010995,-0.051312,-0.007330
2026-03-09T22:15:38.479741,-9.724431,0.110069,2.234896,0.010995,-0.052534,-0.008552
2026-03-09T22:15:38.489741,-9.724431,0.090927,2.292324,0.012217,-0.051312,-0.009773
2026-03-09T22:15:38.498741,-9.762716,0.090927,2.277967,0.010995,-0.052534,-0.008552
2026-03-09T22:15:38.508741,-9.791430,0.095712,2.249253,0.010995,-0.051312,-0.008552
2026-03-09T22:15:38.518741,-9.734002,0.066999,2.249253,0.010995,-0.054977,-0.008552
2026-03-09T22:15:38.527741,-9.772287,0.138783,2.244467,0.010995,-0.053756,-0.008552
2026-03-09T22:15:38.537741,-9.753144,0.062213,2.254038,0.009773,-0.052534,-0.008552
2026-03-09T22:15:38.547741,-9.724431,0.177068,2.225325,0.009773,-0.052534,-0.009773
2026-03-09T22:15:38.556741,-9.757930,0.095712,2.220539,0.012217,-0.052534,-0.010995
2026-03-09T22:15:38.566741,-9.757930,0.172283,2.254038,0.010995,-0.052534,-0.009773
2026-03-09T22:15:38.575741,-9.801001,0.076570,2.258824,0.010995,-0.053756,-0.009773
2026-03-09T22:15:38.585741,-9.729216,0.124426,2.254038,0.009773,-0.052534,-0.009773
2026-03-09T22:15:38.595741,-9.762716,0.138783,2.206182,0.012217,-0.053756,-0.009773
2026-03-09T22:15:38.604741,-9.748359,0.110069,2.239681,0.010995,-0.053756,-0.009773
2026-03-09T22:15:38.614741,-9.719645,0.105284,2.297109,0.012217,-0.053756,-0.010995
2026-03-09T22:15:38.623741,-9.791430,0.086141,2.268395,0.009773,-0.053756,-0.009773
2026-03-09T22:15:38.633741,-9.719645,0.138783,2.268395,0.010995,-0.053756,-0.009773
2026-03-09T22:15:38.643741,-9.729216,0.114855,2.277967,0.009773,-0.053756,-0.008552
2026-03-09T22:15:38.652741,-9.757930,0.081355,2.249253,0.012217,-0.053756,-0.008552
2026-03-09T22:15:38.662741,-9.710074,0.081355,2.287538,0.010995,-0.054977,-0.008552
2026-03-09T22:15:38.672741,-9.729216,0.076570,2.301895,0.010995,-0.054977,-0.009773
2026-03-09T22:15:38.681741,-9.738787,0.129212,2.258824,0.010995,-0.052534,-0.008552
2026-03-09T22:15:38.691741,-9.714859,0.110069,2.244467,0.009773,-0.053756,-0.009773
2026-03-09T22:15:38.700741,-9.734002,0.105284,2.244467,0.012217,-0.052534,-0.009773
2026-03-09T22:15:38.710741,-9.767501,0.095712,2.287538,0.010995,-0.052534,-0.009773
2026-03-09T22:15:38.720741,-9.690931,0.143569,2.225325,0.009773,-0.052534,-0.008552
2026-03-09T22:15:38.729741,-9.729216,0.110069,2.268395,0.010995,-0.053756,-0.009773
2026-03-09T22:15:38.739741,-9.781858,0.124426,2.316252,0.010995,-0.053756,-0.009773
2026-03-09T22:15:38.748741,-9.748359,0.095712,2.297109,0.012217,-0.053756,-0.008552
2026-03-09T22:15:38.758741,-9.724431,0.100498,2.230110,0.012217,-0.053756,-0.008552
2026-03-09T22:15:38.768741,-9.748359,0.081355,2.277967,0.013439,-0.053756,-0.008552
2026-03-09T22:15:38.777741,-9.714859,0.110069,2.244467,0.010995,-0.052534,-0.008552
2026-03-09T22:15:38.787741,-9.772287,0.086141,2.268395,0.012217,-0.052534,-0.008552
2026-03-09T22:15:38.797741,-9.767501,0.119641,2.268395,0.010995,-0.053756,-0.008552
2026-03-09T22:15:38.806741,-9.753144,0.148355,2.230110,0.010995,-0.053756,-0.008552
2026-03-09T22:15:38.816741,-9.681360,0.129212,2.268395,0.010995,-0.053756,-0.008552
2026-03-09T22:15:38.825741,-9.791430,0.138783,2.239681,0.010995,-0.054977,-0.008552
2026-03-09T22:15:38.835741,-9.757930,0.119641,2.287538,0.009773,-0.053756,-0.009773
2026-03-09T22:15:38.845741,-9.734002,0.095712,2.287538,0.009773,-0.052534,-0.009773
2026-03-09T22:15:38.854741,-9.724431,0.119641,2.277967,0.010995,-0.052534,-0.009773
2026-03-09T22:15:38.864741,-9.777073,0.124426,2.196611,0.009773,-0.053756,-0.009773
2026-03-09T22:15:38.873741,-9.719645,0.095712,2.263610,0.009773,-0.053756,-0.008552
2026-03-09T22:15:38.883741,-9.714859,0.100498,2.301895,0.010995,-0.054977,-0.009773
2026-03-09T22:15:38.893741,-9.734002,0.100498,2.306680,0.012217,-0.054977,-0.010995
2026-03-09T22:15:38.902741,-9.748359,0.119641,2.297109,0.010995,-0.053756,-0.009773
2026-03-09T22:15:38.912741,-9.762716,0.033499,2.316252,0.009773,-0.053756,-0.009773
2026-03-09T22:15:38.922741,-9.757930,0.086141,2.249253,0.009773,-0.054977,-0.009773
2026-03-09T22:15:38.931741,-9.734002,0.090927,2.230110,0.008552,-0.056199,-0.010995
2026-03-09T22:15:38.941741,-9.748359,0.071784,2.244467,0.009773,-0.056199,-0.008552
2026-03-09T22:15:38.950741,-9.738787,0.076570,2.239681,0.010995,-0.053756,-0.008552
2026-03-09T22:15:38.960741,-9.738787,0.119641,2.239681,0.010995,-0.053756,-0.009773
2026-03-09T22:15:38.970741,-9.686145,0.119641,2.292324,0.013439,-0.052534,-0.008552
2026-03-09T22:15:38.979741,-9.743573,0.076570,2.258824,0.010995,-0.053756,-0.008552
2026-03-09T22:15:38.989741,-9.743573,0.090927,2.220539,0.010995,-0.054977,-0.008552
2026-03-09T22:15:38.998741,-9.791430,0.129212,2.282752,0.010995,-0.053756,-0.010995
2026-03-09T22:15:39.008741,-9.762716,0.124426,2.263610,0.009773,-0.053756,-0.009773
2026-03-09T22:15:39.018741,-9.714859,0.081355,2.201396,0.009773,-0.053756,-0.008552
2026-03-09T22:15:39.027741,-9.686145,0.138783,2.210968,0.010995,-0.052534,-0.009773
2026-03-09T22:15:39.037741,-9.724431,0.105284,2.273181,0.010995,-0.051312,-0.009773
2026-03-09T22:15:39.047741,-9.734002,0.133998,2.239681,0.009773,-0.053756,-0.009773
2026-03-09T22:15:39.056741,-9.757930,0.100498,2.201396,0.010995,-0.053756,-0.008552
2026-03-09T22:15:39.066741,-9.796215,0.110069,2.325823,0.012217,-0.053756,-0.009773
2026-03-09T22:15:39.075741,-9.767501,0.057427,2.225325,0.010995,-0.053756,-0.009773
2026-03-09T22:15:39.085741,-9.719645,0.129212,2.316252,0.010995,-0.053756,-0.008552
2026-03-09T22:15:39.095741,-9.767501,0.076570,2.258824,0.010995,-0.053756,-0.009773
2026-03-09T22:15:39.104741,-9.781858,0.105284,2.268395,0.008552,-0.052534,-0.009773
2026-03-09T22:15:39.114741,-9.743573,0.119641,2.230110,0.009773,-0.052534,-0.008552
2026-03-09T22:15:39.123741,-9.705288,0.114855,2.258824,0.009773,-0.052534,-0.009773
2026-03-09T22:15:39.133741,-9.714859,0.100498,2.301895,0.012217,-0.052534,-0.009773
2026-03-09T22:15:39.143741,-9.801001,0.114855,2.230110,0.009773,-0.051312,-0.008552
2026-03-09T22:15:39.152741,-9.777073,0.066999,2.292324,0.009773,-0.052534,-0.007330
2026-03-09T22:15:39.162741,-9.791430,0.095712,2.220539,0.012217,-0.053756,-0.008552
2026-03-09T22:15:39.172741,-9.757930,0.095712,2.206182,0.010995,-0.053756,-0.009773
2026-03-09T22:15:39.181741,-9.791430,0.124426,2.220539,0.010995,-0.053756,-0.009773
2026-03-09T22:15:39.191741,-9.710074,0.047856,2.311466,0.009773,-0.056199,-0.008552
2026-03-09T22:15:39.200741,-9.753144,0.105284,2.277967,0.009773,-0.053756,-0.008552
2026-03-09T22:15:39.210741,-9.753144,0.095712,2.268395,0.010995,-0.053756,-0.008552
2026-03-09T22:15:39.220741,-9.690931,0.105284,2.254038,0.009773,-0.052534,-0.008552
2026-03-09T22:15:39.229741,-9.719645,0.129212,2.249253,0.010995,-0.052534,-0.009773
2026-03-09T22:15:39.239741,-9.743573,0.090927,2.249253,0.012217,-0.053756,-0.008552
2026-03-09T22:15:39.248741,-9.777073,0.081355,2.239681,0.009773,-0.054977,-0.007330
2026-03-09T22:15:39.258741,-9.695717,0.114855,2.244467,0.012217,-0.053756,-0.007330
2026-03-09T22:15:39.268741,-9.786644,0.076570,2.230110,0.009773,-0.052534,-0.010995
2026-03-09T22:15:39.277741,-9.791430,0.086141,2.210968,0.012217,-0.053756,-0.010995
2026-03-09T22:15:39.287741,-9.738787,0.138783,2.254038,0.012217,-0.054977,-0.008552
2026-03-09T22:15:39.297741,-9.710074,0.090927,2.263610,0.010995,-0.052534,-0.008552
2026-03-09T22:15:39.306741,-9.714859,0.090927,2.273181,0.009773,-0.054977,-0.007330
2026-03-09T22:15:39.316741,-9.757930,0.100498,2.268395,0.010995,-0.053756,-0.008552
2026-03-09T22:15:39.325741,-9.724431,0.100498,2.234896,0.010995,-0.053756,-0.008552
2026-03-09T22:15:39.335741,-9.772287,0.095712,2.301895,0.013439,-0.054977,-0.009773
2026-03-09T22:15:39.345741,-9.695717,0.119641,2.297109,0.010995,-0.053756,-0.008552
2026-03-09T22:15:39.354741,-9.724431,0.124426,2.287538,0.013439,-0.054977,-0.009773
2026-03-09T22:15:39.364741,-9.757930,0.138783,2.201396,0.010995,-0.052534,-0.009773
2026-03-09T22:15:39.373741,-9.724431,0.062213,2.258824,0.012217,-0.052534,-0.010995
2026-03-09T22:15:39.383741,-9.781858,0.086141,2.254038,0.012217,-0.053756,-0.009773
2026-03-09T22:15:39.393741,-9.724431,0.133998,2.244467,0.010995,-0.051312,-0.008552
2026-03-09T22:15:39.402741,-9.714859,0.105284,2.292324,0.012217,-0.053756,-0.008552
2026-03-09T22:15:39.412741,-9.753144,0.153140,2.292324,0.010995,-0.051312,-0.009773
2026-03-09T22:15:39.422741,-9.748359,0.110069,2.249253,0.009773,-0.053756,-0.009773
2026-03-09T22:15:39.431741,-9.757930,0.071784,2.277967,0.009773,-0.052534,-0.009773
2026-03-09T22:15:39.441741,-9.757930,0.138783,2.220539,0.010995,-0.052534,-0.009773
2026-03-09T22:15:39.450741,-9.705288,0.105284,2.244467,0.009773,-0.053756,-0.008552
2026-03-09T22:15:39.460741,-9.772287,0.081355,2.215753,0.013439,-0.052534,-0.009773
2026-03-09T22:15:39.470741,-9.738787,0.081355,2.268395,0.009773,-0.051312,-0.008552
2026-03-09T22:15:39.479741,-9.719645,0.100498,2.258824,0.010995,-0.053756,-0.009773
2026-03-09T22:15:39.489741,-9.738787,0.157926,2.282752,0.012217,-0.052534,-0.009773
2026-03-09T22:15:39.498741,-9.734002,0.143569,2.249253,0.013439,-0.052534,-0.008552
2026-03-09T22:15:39.508741,-9.690931,0.100498,2.282752,0.012217,-0.052534,-0.009773
2026-03-09T22:15:39.518741,-9.772287,0.138783,2.287538,0.012217,-0.052534,-0.009773
2026-03-09T22:15:39.527741,-9.652646,0.138783,2.206182,0.012217,-0.053756,-0.010995
2026-03-09T22:15:39.537741,-9.757930,0.095712,2.244467,0.013439,-0.056199,-0.010995
2026-03-09T22:15:39.547741,-9.748359,0.038285,2.297109,0.009773,-0.054977,-0.010995
2026-03-09T22:15:39.556741,-9.734002,0.090927,2.225325,0.009773,-0.054977,-0.009773
2026-03-09T22:15:39.566741,-9.772287,0.138783,2.239681,0.009773,-0.053756,-0.007330
2026-03-09T22:15:39.575741,-9.724431,0.105284,2.244467,0.012217,-0.053756,-0.009773
2026-03-09T22:15:39.585741,-9.729216,0.133998,2.249253,0.012217,-0.054977,-0.010995
2026-03-09T22:15:39.595741,-9.710074,0.110069,2.282752,0.010995,-0.052534,-0.010995
2026-03-09T22:15:39.604741,-9.743573,0.100498,2.263610,0.012217,-0.052534,-0.009773
2026-03-09T22:15:39.614741,-9.757930,0.133998,2.316252,0.012217,-0.052534,-0.008552
2026-03-09T22:15:39.623741,-9.753144,0.090927,2.254038,0.009773,-0.052534,-0.008552
2026-03-09T22:15:39.633741,-9.710074,0.110069,2.287538,0.010995,-0.053756,-0.008552
2026-03-09T22:15:39.643741,-9.743573,0.133998,2.263610,0.010995,-0.052534,-0.009773
2026-03-09T22:15:39.652741,-9.738787,0.105284,2.287538,0.012217,-0.053756,-0.008552
2026-03-09T22:15:39.662741,-9.695717,0.105284,2.239681,0.010995,-0.052534,-0.007330
2026-03-09T22:15:39.672741,-9.724431,0.133998,2.287538,0.012217,-0.054977,-0.008552
2026-03-09T22:15:39.681741,-9.772287,0.110069,2.292324,0.012217,-0.052534,-0.010995
2026-03-09T22:15:39.691741,-9.714859,0.148355,2.220539,0.010995,-0.054977,-0.009773
2026-03-09T22:15:39.700741,-9.705288,0.129212,2.244467,0.012217,-0.054977,-0.007330
2026-03-09T22:15:39.710741,-9.705288,0.052642,2.268395,0.009773,-0.053756,-0.009773
2026-03-09T22:15:39.720741,-9.714859,0.124426,2.263610,0.010995,-0.053756,-0.010995
2026-03-09T22:15:39.729741,-9.705288,0.076570,2.249253,0.009773,-0.053756,-0.010995
2026-03-09T22:15:39.739741,-9.738787,0.148355,2.239681,0.010995,-0.053756,-0.009773
2026-03-09T22:15:39.748741,-9.690931,0.076570,2.297109,0.012217,-0.053756,-0.009773
2026-03-09T22:15:39.758741,-9.729216,0.076570,2.287538,0.010995,-0.053756,-0.009773
2026-03-09T22:15:39.768741,-9.729216,0.124426,2.244467,0.012217,-0.052534,-0.009773
2026-03-09T22:15:39.777741,-9.772287,0.157926,2.201396,0.012217,-0.051312,-0.008552
2026-03-09T22:15:39.787741,-9.724431,0.148355,2.297109,0.009773,-0.054977,-0.010995
2026-03-09T22:15:39.797741,-9.757930,0.133998,2.249253,0.012217,-0.054977,-0.010995
2026-03-09T22:15:39.806741,-9.719645,0.110069,2.206182,0.010995,-0.052534,-0.008552
2026-03-09T22:15:39.816741,-9.705288,0.133998,2.234896,0.012217,-0.053756,-0.009773
2026-03-09T22:15:39.825741,-9.724431,0.086141,2.234896,0.013439,-0.054977,-0.009773
2026-03-09T22:15:39.835741,-9.748359,0.057427,2.254038,0.012217,-0.056199,-0.008552
2026-03-09T22:15:39.845741,-9.753144,0.076570,2.239681,0.010995,-0.054977,-0.008552
2026-03-09T22:15:39.854741,-9.729216,0.052642,2.277967,0.010995,-0.051312,-0.009773
2026-03-09T22:15:39.864741,-9.700502,0.124426,2.210968,0.012217,-0.053756,-0.009773
2026-03-09T22:15:39.873741,-9.719645,0.138783,2.230110,0.009773,-0.051312,-0.009773
2026-03-09T22:15:39.883741,-9.757930,0.100498,2.268395,0.009773,-0.051312,-0.008552
2026-03-09T22:15:39.893741,-9.719645,0.095712,2.210968,0.013439,-0.053756,-0.009773
2026-03-09T22:15:39.902741,-9.781858,0.086141,2.234896,0.012217,-0.052534,-0.008552
2026-03-09T22:15:39.912741,-9.734002,0.062213,2.244467,0.010995,-0.053756,-0.008552
2026-03-09T22:15:39.922741,-9.729216,0.100498,2.258824,0.010995,-0.054977,-0.008552
2026-03-09T22:15:39.931741,-9.690931,0.100498,2.277967,0.012217,-0.054977,-0.009773
2026-03-09T22:15:39.941741,-9.748359,0.095712,2.225325,0.012217,-0.052534,-0.009773
2026-03-09T22:15:39.950741,-9.671788,0.086141,2.268395,0.010995,-0.052534,-0.009773
2026-03-09T22:15:39.960741,-9.686145,0.090927,2.292324,0.010995,-0.052534,-0.009773
2026-03-09T22:15:39.970741,-9.781858,0.100498,2.249253,0.010995,-0.051312,-0.008552
2026-03-09T22:15:39.979741,-9.753144,0.110069,2.258824,0.010995,-0.054977,-0.008552
2026-03-09T22:15:39.989741,-9.719645,0.100498,2.273181,0.010995,-0.052534,-0.009773
2026-03-09T22:15:39.998741,-9.753144,0.066999,2.244467,0.010995,-0.052534,-0.007330
2026-03-09T22:15:40.008741,-9.734002,0.090927,2.263610,0.009773,-0.053756,-0.007330
2026-03-09T22:15:40.018741,-9.738787,0.105284,2.249253,0.008552,-0.054977,-0.008552
2026-03-09T22:15:40.027741,-9.719645,0.105284,2.263610,0.010995,-0.053756,-0.009773
2026-03-09T22:15:40.037741,-9.743573,0.119641,2.282752,0.010995,-0.054977,-0.008552
2026-03-09T22:15:40.047741,-9.705288,0.100498,2.258824,0.010995,-0.054977,-0.008552
2026-03-09T22:15:40.056741,-9.705288,0.167497,2.244467,0.010995,-0.053756,-0.008552
2026-03-09T22:15:40.066741,-9.705288,0.114855,2.325823,0.010995,-0.053756,-0.007330
2026-03-09T22:15:40.075741,-9.719645,0.110069,2.263610,0.010995,-0.052534,-0.007330
2026-03-09T22:15:40.085741,-9.705288,0.153140,2.263610,0.010995,-0.052534,-0.008552
2026-03-09T22:15:40.095741,-9.710074,0.148355,2.234896,0.010995,-0.053756,-0.008552
2026-03-09T22:15:40.104741,-9.805787,0.071784,2.301895,0.010995,-0.052534,-0.009773
2026-03-09T22:15:40.114741,-9.743573,0.110069,2.249253,0.009773,-0.053756,-0.008552
2026-03-09T22:15:40.123741,-9.729216,0.086141,2.239681,0.012217,-0.053756,-0.007330
2026-03-09T22:15:40.133741,-9.772287,0.081355,2.297109,0.009773,-0.052534,-0.007330
2026-03-09T22:15:40.143741,-9.738787,0.095712,2.273181,0.009773,-0.052534,-0.008552
2026-03-09T22:15:40.152741,-9.753144,0.100498,2.282752,0.010995,-0.053756,-0.009773
2026-03-09T22:15:40.162741,-9.781858,0.105284,2.273181,0.010995,-0.051312,-0.008552
2026-03-09T22:15:40.172741,-9.777073,0.062213,2.234896,0.009773,-0.052534,-0.009773
2026-03-09T22:15:40.181741,-9.801001,0.129212,2.268395,0.008552,-0.054977,-0.008552
2026-03-09T22:15:40.191741,-9.724431,0.133998,2.297109,0.010995,-0.053756,-0.008552
2026-03-09T22:15:40.200741,-9.714859,0.105284,2.254038,0.010995,-0.054977,-0.009773
2026-03-09T22:15:40.210741,-9.796215,0.081355,2.254038,0.009773,-0.052534,-0.010995
2026-03-09T22:15:40.220741,-9.738787,0.090927,2.282752,0.009773,-0.052534,-0.008552
2026-03-09T22:15:40.229741,-9.714859,0.028713,2.230110,0.012217,-0.052534,-0.009773
2026-03-09T22:15:40.239741,-9.801001,0.057427,2.258824,0.012217,-0.052534,-0.008552
2026-03-09T22:15:40.248741,-9.710074,0.114855,2.273181,0.012217,-0.051312,-0.009773
2026-03-09T22:15:40.258741,-9.753144,0.095712,2.321037,0.012217,-0.052534,-0.010995
2026-03-09T22:15:40.268741,-9.753144,0.095712,2.258824,0.010995,-0.053756,-0.009773
2026-03-09T22:15:40.277741,-9.772287,0.095712,2.230110,0.010995,-0.052534,-0.008552
2026-03-09T22:15:40.287741,-9.690931,0.076570,2.330609,0.012217,-0.053756,-0.009773
2026-03-09T22:15:40.297741,-9.714859,0.090927,2.230110,0.010995,-0.054977,-0.009773
2026-03-09T22:15:40.306741,-9.729216,0.090927,2.244467,0.010995,-0.052534,-0.010995
2026-03-09T22:15:40.316741,-9.729216,0.114855,2.306680,0.010995,-0.056199,-0.009773
2026-03-09T22:15:40.325741,-9.729216,0.100498,2.225325,0.010995,-0.054977,-0.007330
2026-03-09T22:15:40.335741,-9.748359,0.062213,2.268395,0.009773,-0.051312,-0.008552
2026-03-09T22:15:40.345741,-9.743573,0.081355,2.244467,0.009773,-0.052534,-0.009773
2026-03-09T22:15:40.354741,-9.710074,0.076570,2.239681,0.008552,-0.052534,-0.009773
2026-03-09T22:15:40.364741,-9.781858,0.076570,2.268395,0.012217,-0.053756,-0.009773
2026-03-09T22:15:40.373741,-9.738787,0.100498,2.268395,0.013439,-0.053756,-0.009773
2026-03-09T22:15:40.383741,-9.762716,0.076570,2.244467,0.010995,-0.053756,-0.009773
2026-03-09T22:15:40.393741,-9.734002,0.119641,2.244467,0.010995,-0.053756,-0.008552
2026-03-09T22:15:40.402741,-9.667003,0.086141,2.297109,0.012217,-0.054977,-0.008552
2026-03-09T22:15:40.412741,-9.729216,0.143569,2.277967,0.013439,-0.054977,-0.008552
2026-03-09T22:15:40.422741,-9.686145,0.157926,2.263610,0.012217,-0.053756,-0.009773
2026-03-09T22:15:40.431741,-9.762716,0.076570,2.268395,0.010995,-0.053756,-0.008552
2026-03-09T22:15:40.441741,-9.757930,0.114855,2.273181,0.012217,-0.051312,-0.008552
2026-03-09T22:15:40.450741,-9.781858,0.100498,2.287538,0.012217,-0.053756,-0.009773
2026-03-09T22:15:40.460741,-9.719645,0.114855,2.258824,0.014660,-0.053756,-0.009773
2026-03-09T22:15:40.470741,-9.729216,0.143569,2.239681,0.010995,-0.051312,-0.010995
2026-03-09T22:15:40.479741,-9.767501,0.105284,2.254038,0.010995,-0.052534,-0.010995
2026-03-09T22:15:40.489741,-9.786644,0.119641,2.268395,0.010995,-0.052534,-0.009773
2026-03-09T22:15:40.498741,-9.729216,0.148355,2.277967,0.012217,-0.051312,-0.008552
2026-03-09T22:15:40.508741,-9.724431,0.119641,2.263610,0.009773,-0.054977,-0.009773
2026-03-09T22:15:40.518741,-9.748359,0.086141,2.244467,0.010995,-0.053756,-0.009773
2026-03-09T22:15:40.527741,-9.810572,0.071784,2.311466,0.012217,-0.052534,-0.009773
2026-03-09T22:15:40.537741,-9.734002,0.119641,2.225325,0.009773,-0.054977,-0.009773
2026-03-09T22:15:40.547741,-9.757930,0.086141,2.244467,0.010995,-0.053756,-0.009773
2026-03-09T22:15:40.556741,-9.762716,0.119641,2.258824,0.010995,-0.054977,-0.008552
2026-03-09T22:15:40.566741,-9.743573,0.119641,2.239681,0.009773,-0.052534,-0.008552
2026-03-09T22:15:40.575741,-9.700502,0.110069,2.254038,0.009773,-0.052534,-0.008552
2026-03-09T22:15:40.585741,-9.753144,0.066999,2.268395,0.010995,-0.052534,-0.009773
2026-03-09T22:15:40.595741,-9.743573,0.100498,2.244467,0.012217,-0.053756,-0.008552
2026-03-09T22:15:40.604741,-9.738787,0.143569,2.220539,0.012217,-0.053756,-0.009773
2026-03-09T22:15:40.614741,-9.762716,0.095712,2.210968,0.010995,-0.052534,-0.009773
2026-03-09T22:15:40.623741,-9.729216,0.138783,2.234896,0.010995,-0.052534,-0.008552
2026-03-09T22:15:40.633741,-9.762716,0.114855,2.234896,0.012217,-0.052534,-0.009773
2026-03-09T22:15:40.643741,-9.710074,0.090927,2.225325,0.012217,-0.052534,-0.009773
2026-03-09T22:15:40.652741,-9.719645,0.124426,2.277967,0.012217,-0.053756,-0.009773
2026-03-09T22:15:40.662741,-9.748359,0.081355,2.297109,0.010995,-0.051312,-0.010995
2026-03-09T22:15:40.672741,-9.748359,0.114855,2.210968,0.010995,-0.053756,-0.009773
2026-03-09T22:15:40.681741,-9.748359,0.076570,2.297109,0.012217,-0.053756,-0.009773
2026-03-09T22:15:40.691741,-9.743573,0.129212,2.239681,0.012217,-0.053756,-0.010995
2026-03-09T22:15:40.700741,-9.753144,0.124426,2.230110,0.009773,-0.053756,-0.008552
2026-03-09T22:15:40.710741,-9.757930,0.148355,2.225325,0.012217,-0.053756,-0.009773
2026-03-09T22:15:40.720741,-9.705288,0.052642,2.287538,0.012217,-0.052534,-0.008552
2026-03-09T22:15:40.729741,-9.719645,0.110069,2.268395,0.008552,-0.052534,-0.009773
2026-03-09T22:15:40.739741,-9.738787,0.148355,2.301895,0.012217,-0.051312,-0.007330
2026-03-09T22:15:40.748741,-9.738787,0.138783,2.239681,0.012217,-0.051312,-0.008552
2026-03-09T22:15:40.758741,-9.753144,0.157926,2.297109,0.013439,-0.052534,-0.009773
2026-03-09T22:15:40.768741,-9.786644,0.100498,2.297109,0.009773,-0.053756,-0.012217
2026-03-09T22:15:40.777741,-9.762716,0.071784,2.292324,0.009773,-0.051312,-0.009773
2026-03-09T22:15:40.787741,-9.753144,0.110069,2.263610,0.010995,-0.051312,-0.009773
2026-03-09T22:15:40.797741,-9.710074,0.119641,2.297109,0.012217,-0.053756,-0.009773
2026-03-09T22:15:40.806741,-9.738787,0.043070,2.244467,0.009773,-0.053756,-0.008552
2026-03-09T22:15:40.816741,-9.729216,0.133998,2.263610,0.010995,-0.053756,-0.009773
2026-03-09T22:15:40.825741,-9.710074,0.133998,2.196611,0.012217,-0.054977,-0.009773
2026-03-09T22:15:40.835741,-9.777073,0.162711,2.244467,0.010995,-0.053756,-0.009773
2026-03-09T22:15:40.845741,-9.772287,0.119641,2.258824,0.009773,-0.053756,-0.008552
2026-03-09T22:15:40.854741,-9.724431,0.133998,2.225325,0.014660,-0.053756,-0.008552
2026-03-09T22:15:40.864741,-9.738787,0.086141,2.220539,0.010995,-0.053756,-0.009773
2026-03-09T22:15:40.873741,-9.757930,0.052642,2.273181,0.010995,-0.053756,-0.007330
2026-03-09T22:15:40.883741,-9.772287,0.057427,2.273181,0.009773,-0.054977,-0.008552
2026-03-09T22:15:40.893741,-9.772287,0.133998,2.234896,0.009773,-0.052534,-0.008552
2026-03-09T22:15:40.902741,-9.734002,0.124426,2.273181,0.012217,-0.054977,-0.008552
2026-03-09T22:15:40.912741,-9.714859,0.110069,2.282752,0.012217,-0.054977,-0.008552
2026-03-09T22:15:40.922741,-9.762716,0.081355,2.268395,0.012217,-0.053756,-0.009773
2026-03-09T22:15:40.931741,-9.748359,0.086141,2.268395,0.012217,-0.054977,-0.008552
2026-03-09T22:15:40.941741,-9.786644,0.105284,2.254038,0.010995,-0.054977,-0.006108
2026-03-09T22:15:40.950741,-9.738787,0.138783,2.258824,0.009773,-0.053756,-0.008552
2026-03-09T22:15:40.960741,-9.662217,0.119641,2.230110,0.012217,-0.056199,-0.010995
2026-03-09T22:15:40.970741,-9.757930,0.148355,2.254038,0.009773,-0.053756,-0.008552
2026-03-09T22:15:40.979741,-9.796215,0.133998,2.258824,0.009773,-0.053756,-0.010995
2026-03-09T22:15:40.989741,-9.729216,0.105284,2.287538,0.012217,-0.052534,-0.009773
2026-03-09T22:15:40.998741,-9.786644,0.090927,2.249253,0.010995,-0.053756,-0.009773
2026-03-09T22:15:41.008741,-9.786644,0.076570,2.254038,0.012217,-0.052534,-0.009773
2026-03-09T22:15:41.018741,-9.772287,0.129212,2.196611,0.009773,-0.051312,-0.009773
2026-03-09T22:15:41.027741,-9.748359,0.129212,2.292324,0.010995,-0.051312,-0.008552
2026-03-09T22:15:41.037741,-9.772287,0.133998,2.254038,0.010995,-0.050090,-0.008552
2026-03-09T22:15:41.047741,-9.762716,0.095712,2.277967,0.010995,-0.052534,-0.008552
2026-03-09T22:15:41.056741,-9.757930,0.129212,2.263610,0.009773,-0.054977,-0.008552
2026-03-09T22:15:41.066741,-9.772287,0.014356,2.225325,0.010995,-0.053756,-0.010995
2026-03-09T22:15:41.075741,-9.753144,0.086141,2.277967,0.009773,-0.053756,-0.009773
2026-03-09T22:15:41.085741,-9.705288,0.090927,2.277967,0.010995,-0.054977,-0.010995
2026-03-09T22:15:41.095741,-9.743573,0.071784,2.297109,0.009773,-0.052534,-0.008552
2026-03-09T22:15:41.104741,-9.743573,0.095712,2.177468,0.010995,-0.052534,-0.008552
2026-03-09T22:15:41.114741,-9.710074,0.057427,2.258824,0.009773,-0.053756,-0.008552
2026-03-09T22:15:41.123741,-9.729216,0.129212,2.249253,0.008552,-0.052534,-0.009773
2026-03-09T22:15:41.133741,-9.757930,0.110069,2.234896,0.009773,-0.054977,-0.009773
2026-03-09T22:15:41.143741,-9.705288,0.114855,2.325823,0.009773,-0.053756,-0.008552
2026-03-09T22:15:41.152741,-9.757930,0.081355,2.268395,0.010995,-0.054977,-0.009773
2026-03-09T22:15:41.162741,-9.743573,0.057427,2.263610,0.009773,-0.054977,-0.008552
2026-03-09T22:15:41.172741,-9.729216,0.110069,2.254038,0.013439,-0.054977,-0.009773
2026-03-09T22:15:41.181741,-9.796215,0.143569,2.220539,0.012217,-0.053756,-0.008552
2026-03-09T22:15:41.191741,-9.729216,0.110069,2.268395,0.009773,-0.053756,-0.009773
2026-03-09T22:15:41.200741,-9.777073,0.119641,2.330609,0.010995,-0.050090,-0.008552
2026-03-09T22:15:41.210741,-9.729216,0.119641,2.273181,0.009773,-0.053756,-0.009773
2026-03-09T22:15:41.220741,-9.767501,0.157926,2.254038,0.008552,-0.056199,-0.007330
2026-03-09T22:15:41.229741,-9.724431,0.119641,2.277967,0.009773,-0.052534,-0.008552
2026-03-09T22:15:41.239741,-9.700502,0.086141,2.273181,0.012217,-0.052534,-0.008552
2026-03-09T22:15:41.248741,-9.734002,0.052642,2.306680,0.012217,-0.053756,-0.008552
2026-03-09T22:15:41.258741,-9.772287,0.105284,2.230110,0.009773,-0.053756,-0.009773
2026-03-09T22:15:41.268741,-9.767501,0.119641,2.234896,0.009773,-0.053756,-0.009773
2026-03-09T22:15:41.277741,-9.748359,0.095712,2.220539,0.012217,-0.053756,-0.010995
2026-03-09T22:15:41.287741,-9.729216,0.071784,2.268395,0.010995,-0.051312,-0.008552
2026-03-09T22:15:41.297741,-9.724431,0.157926,2.196611,0.012217,-0.052534,-0.009773
2026-03-09T22:15:41.306741,-9.757930,0.148355,2.321037,0.012217,-0.054977,-0.009773
2026-03-09T22:15:41.316741,-9.753144,0.090927,2.292324,0.010995,-0.050090,-0.008552
2026-03-09T22:15:41.325741,-9.748359,0.138783,2.292324,0.012217,-0.052534,-0.009773
2026-03-09T22:15:41.335741,-9.714859,0.095712,2.263610,0.009773,-0.052534,-0.009773
2026-03-09T22:15:41.345741,-9.762716,0.062213,2.273181,0.010995,-0.053756,-0.008552
2026-03-09T22:15:41.354741,-9.738787,0.105284,2.234896,0.010995,-0.052534,-0.008552
2026-03-09T22:15:41.364741,-9.681360,0.100498,2.210968,0.009773,-0.052534,-0.008552
2026-03-09T22:15:41.373741,-9.719645,0.153140,2.282752,0.009773,-0.052534,-0.009773
2026-03-09T22:15:41.383741,-9.686145,0.191425,2.254038,0.010995,-0.052534,-0.009773
2026-03-09T22:15:41.393741,-9.772287,0.110069,2.306680,0.010995,-0.053756,-0.007330
2026-03-09T22:15:41.402741,-9.753144,0.129212,2.244467,0.010995,-0.053756,-0.008552
2026-03-09T22:15:41.412741,-9.714859,0.110069,2.234896,0.009773,-0.054977,-0.009773
2026-03-09T22:15:41.422741,-9.777073,0.066999,2.244467,0.009773,-0.054977,-0.010995
2026-03-09T22:15:41.431741,-9.757930,0.133998,2.239681,0.013439,-0.053756,-0.009773
2026-03-09T22:15:41.441741,-9.724431,0.133998,2.249253,0.012217,-0.053756,-0.008552
2026-03-09T22:15:41.450741,-9.734002,0.066999,2.249253,0.010995,-0.052534,-0.009773
2026-03-09T22:15:41.460741,-9.772287,0.114855,2.225325,0.012217,-0.053756,-0.009773
2026-03-09T22:15:41.470741,-9.772287,0.038285,2.268395,0.010995,-0.053756,-0.009773
2026-03-09T22:15:41.479741,-9.738787,0.167497,2.268395,0.010995,-0.054977,-0.009773
2026-03-09T22:15:41.489741,-9.729216,0.095712,2.244467,0.010995,-0.052534,-0.009773
2026-03-09T22:15:41.498741,-9.796215,0.157926,2.249253,0.010995,-0.053756,-0.008552
2026-03-09T22:15:41.508741,-9.757930,0.129212,2.277967,0.010995,-0.053756,-0.008552
