Timestamp,Acceleration_X,Acceleration_Y,Acceleration_Z,Gyro_X,Gyro_Y,Gyro_Z
2026-03-04T18:45:26.834748,-1.167697,-9.537790,3.120240,0.021991,-0.043982,0.014660
2026-03-04T18:45:26.844748,-1.191625,-9.513862,3.158525,0.019547,-0.045204,0.013439
2026-03-04T18:45:26.853748,-1.186840,-9.461220,3.110669,0.018325,-0.041538,0.015882
2026-03-04T18:45:26.863748,-1.196411,-9.504291,3.081955,0.017104,-0.041538,0.015882
2026-03-04T18:45:26.872748,-1.172483,-9.537790,3.096312,0.018325,-0.041538,0.015882
2026-03-04T18:45:26.882748,-1.196411,-9.561719,3.053241,0.019547,-0.041538,0.015882
2026-03-04T18:45:26.892748,-1.138983,-9.576076,3.115455,0.021991,-0.043982,0.015882
2026-03-04T18:45:26.901748,-1.129412,-9.571290,3.086741,0.023212,-0.041538,0.017104
2026-03-04T18:45:26.911748,-1.124626,-9.533005,3.096312,0.021991,-0.041538,0.015882
2026-03-04T18:45:26.921748,-1.177268,-9.552147,3.091526,0.023212,-0.041538,0.015882
2026-03-04T18:45:26.930748,-1.158126,-9.590432,3.115455,0.024434,-0.045204,0.014660
2026-03-04T18:45:26.940748,-1.148554,-9.504291,3.134597,0.025656,-0.043982,0.013439
2026-03-04T18:45:26.949748,-1.129412,-9.533005,3.110669,0.025656,-0.043982,0.010995
2026-03-04T18:45:26.959748,-1.162911,-9.547362,3.058027,0.020769,-0.042760,0.014660
2026-03-04T18:45:26.969748,-1.095912,-9.528219,3.058027,0.021991,-0.042760,0.015882
2026-03-04T18:45:26.978748,-1.186840,-9.533005,3.110669,0.025656,-0.043982,0.014660
2026-03-04T18:45:26.988748,-1.201196,-9.513862,3.129811,0.029321,-0.046425,0.017104
2026-03-04T18:45:26.997748,-1.172483,-9.533005,3.182454,0.030543,-0.047647,0.014660
2026-03-04T18:45:27.007748,-1.210768,-9.513862,3.139383,0.029321,-0.045204,0.015882
2026-03-04T18:45:27.017748,-1.167697,-9.475577,3.120240,0.030543,-0.045204,0.013439
2026-03-04T18:45:27.026748,-1.119840,-9.509077,3.153740,0.021991,-0.045204,0.015882
2026-03-04T18:45:27.036748,-1.177268,-9.494720,3.158525,0.019547,-0.045204,0.015882
2026-03-04T18:45:27.046748,-1.162911,-9.561719,3.105883,0.018325,-0.046425,0.014660
2026-03-04T18:45:27.055748,-1.201196,-9.561719,3.125026,0.025656,-0.050090,0.013439
2026-03-04T18:45:27.065748,-1.220339,-9.633503,3.105883,0.043982,-0.053756,0.006108
2026-03-04T18:45:27.074748,-1.205982,-9.552147,3.168097,0.051312,-0.057421,0.004886
2026-03-04T18:45:27.084748,-1.143769,-9.528219,3.148954,0.061086,-0.061086,0.007330
2026-03-04T18:45:27.094748,-1.091127,-9.619146,3.139383,0.046425,-0.057421,0.008552
2026-03-04T18:45:27.103748,-1.229910,-9.695717,3.125026,0.043982,-0.054977,0.007330
2026-03-04T18:45:27.113748,-1.330409,-9.872786,3.158525,0.058643,-0.070860,-0.004886
2026-03-04T18:45:27.122748,-1.301695,-9.868000,3.259024,0.109955,-0.098960,-0.014660
2026-03-04T18:45:27.132748,-1.191625,-9.743573,3.192025,0.149051,-0.123394,-0.018325
2026-03-04T18:45:27.142748,-1.158126,-9.561719,3.105883,0.171042,-0.133168,-0.014660
2026-03-04T18:45:27.151748,-1.134197,-9.456434,3.024527,0.179594,-0.129503,-0.012217
2026-03-04T18:45:27.161748,-1.081555,-9.461220,3.048455,0.195476,-0.123394,-0.010995
2026-03-04T18:45:27.171748,-1.100698,-9.556933,3.077169,0.195476,-0.118507,-0.006108
2026-03-04T18:45:27.180748,-1.162911,-9.619146,3.072384,0.221133,-0.114842,-0.004886
2026-03-04T18:45:27.190748,-1.143769,-9.647860,3.072384,0.238237,-0.114842,0.001221
2026-03-04T18:45:27.199748,-1.138983,-9.714859,3.163311,0.263893,-0.113620,0.001221
2026-03-04T18:45:27.209748,-1.138983,-9.911071,3.239881,0.321315,-0.105068,-0.008552
2026-03-04T18:45:27.219748,-1.182054,-9.815358,3.388236,0.379958,-0.113620,-0.006108
2026-03-04T18:45:27.228748,-1.138983,-9.489934,3.306880,0.406836,-0.118507,0.004886
2026-03-04T18:45:27.238748,-1.091127,-9.346365,3.254238,0.432492,-0.118507,0.000000
2026-03-04T18:45:27.247748,-1.148554,-9.250652,3.565305,0.442266,-0.125838,0.000000
2026-03-04T18:45:27.257748,-1.062413,-9.279366,3.574876,0.425162,-0.127059,0.002443
2026-03-04T18:45:27.267748,-1.100698,-9.284151,3.617947,0.448374,-0.112399,-0.026878
2026-03-04T18:45:27.276748,-1.081555,-9.226723,3.684946,0.387288,-0.111177,-0.019547
2026-03-04T18:45:27.286748,-1.110269,-9.375078,3.464807,0.368962,-0.111177,-0.020769
2026-03-04T18:45:27.296748,-1.062413,-9.370293,3.598805,0.362853,-0.109955,-0.021991
2026-03-04T18:45:27.305748,-1.062413,-9.379864,3.512663,0.364075,-0.109955,-0.017104
2026-03-04T18:45:27.315748,-0.942772,-9.442077,3.541377,0.416610,-0.109955,-0.019547
2026-03-04T18:45:27.324748,-0.957129,-9.360722,3.728017,0.441044,-0.086742,-0.003665
2026-03-04T18:45:27.334748,-1.091127,-9.217152,3.742374,0.455705,-0.072082,-0.020769
2026-03-04T18:45:27.344748,-1.062413,-9.145367,3.785445,0.403170,-0.091629,-0.004886
2026-03-04T18:45:27.353748,-1.048056,-9.169296,3.680161,0.409279,-0.092851,-0.013439
2026-03-04T18:45:27.363748,-0.923629,-9.202795,4.067798,0.359188,-0.101403,-0.007330
2026-03-04T18:45:27.372748,-0.961914,-9.207581,3.871586,0.332310,-0.079412,0.000000
2026-03-04T18:45:27.382748,-1.033699,-9.092725,3.890729,0.318871,-0.065973,-0.007330
2026-03-04T18:45:27.392748,-1.048056,-8.968299,4.077369,0.255341,-0.076969,0.006108
2026-03-04T18:45:27.401748,-0.923629,-8.997012,3.943371,0.199142,-0.069638,0.008552
2026-03-04T18:45:27.411748,-0.899701,-9.111868,4.019941,0.162490,-0.047647,0.006108
2026-03-04T18:45:27.421748,-0.990628,-9.135796,4.053441,0.125838,-0.041538,0.003665
2026-03-04T18:45:27.430748,-1.009771,-9.193224,4.043870,0.096516,-0.045204,0.004886
2026-03-04T18:45:27.440748,-0.985842,-9.121439,4.077369,0.076969,-0.045204,0.007330
2026-03-04T18:45:27.449748,-0.971485,-9.083154,4.024727,0.054977,-0.040317,0.002443
2026-03-04T18:45:27.459748,-0.937986,-9.107082,4.058227,0.035430,-0.041538,0.001221
2026-03-04T18:45:27.469748,-0.966700,-9.102297,4.072584,0.012217,-0.028099,0.003665
2026-03-04T18:45:27.478748,-1.048056,-9.169296,3.933800,-0.010995,-0.018325,-0.001221
2026-03-04T18:45:27.488748,-1.038485,-9.226723,3.948157,-0.024434,-0.013439,0.001221
2026-03-04T18:45:27.497748,-1.033699,-9.217152,3.924229,-0.024434,-0.020769,0.003665
2026-03-04T18:45:27.507748,-1.028913,-9.245866,3.943371,-0.025656,-0.025656,0.007330
2026-03-04T18:45:27.517748,-1.043270,-9.226723,3.895515,-0.024434,-0.031764,0.006108
2026-03-04T18:45:27.526748,-1.268195,-9.121439,3.814159,-0.061086,-0.057421,-0.013439
2026-03-04T18:45:27.536748,-1.081555,-9.255437,3.905086,-0.084299,-0.079412,-0.006108
2026-03-04T18:45:27.546748,-0.803988,-9.446863,3.952942,-0.085521,-0.073303,0.021991
2026-03-04T18:45:27.555748,-0.799202,-9.509077,4.024727,-0.037873,-0.014660,0.032986
2026-03-04T18:45:27.565748,-1.153340,-9.265009,3.943371,-0.015882,0.002443,0.023212
2026-03-04T18:45:27.574748,-1.186840,-9.260223,3.747160,-0.023212,-0.034208,0.029321
2026-03-04T18:45:27.584748,-1.086341,-9.178867,3.962514,-0.029321,-0.056199,0.051312
2026-03-04T18:45:27.594748,-1.081555,-9.164510,3.842873,-0.043982,-0.053756,0.028099
2026-03-04T18:45:27.603748,-0.856630,-9.475577,3.771088,-0.039095,-0.030543,0.032986
2026-03-04T18:45:27.613748,-1.057627,-9.269794,3.885943,-0.009773,-0.021991,0.030543
2026-03-04T18:45:27.622748,-1.115055,-9.408578,3.838087,-0.010995,-0.021991,0.019547
2026-03-04T18:45:27.632748,-1.225125,-9.284151,3.890729,0.006108,-0.045204,0.018325
2026-03-04T18:45:27.642748,-1.004985,-9.303294,3.933800,0.002443,-0.058643,0.014660
2026-03-04T18:45:27.651748,-0.947557,-9.308079,3.967299,0.010995,-0.047647,0.023212
2026-03-04T18:45:27.661748,-1.000199,-9.308079,3.991228,0.008552,-0.031764,0.018325
2026-03-04T18:45:27.671748,-1.091127,-9.327222,3.909872,0.014660,-0.029321,0.021991
2026-03-04T18:45:27.680748,-1.182054,-9.193224,3.924229,0.018325,-0.040317,0.021991
2026-03-04T18:45:27.690748,-1.316052,-8.925228,3.871586,-0.012217,-0.065973,-0.009773
2026-03-04T18:45:27.699748,-0.957129,-9.035298,3.718446,-0.061086,-0.108733,-0.024434
2026-03-04T18:45:27.709748,-0.631705,-9.384650,3.665804,-0.095294,-0.119729,0.031764
2026-03-04T18:45:27.719748,-0.751346,-9.408578,3.809373,-0.098960,-0.083077,0.014660
2026-03-04T18:45:27.728748,-0.899701,-9.714859,3.617947,-0.085521,-0.048869,0.004886
2026-03-04T18:45:27.738748,-1.330409,-9.403792,3.737588,-0.007330,-0.051312,0.008552
2026-03-04T18:45:27.747748,-1.239482,-9.523433,3.704089,0.025656,-0.072082,-0.006108
2026-03-04T18:45:27.757748,-1.038485,-9.418149,3.804587,0.065973,-0.085521,0.023212
2026-03-04T18:45:27.767748,-0.894915,-9.178867,3.933800,0.065973,-0.084299,0.026878
2026-03-04T18:45:27.776748,-1.004985,-9.131011,3.967299,0.043982,-0.065973,0.015882
2026-03-04T18:45:27.786748,-0.985842,-9.202795,3.919443,0.040317,-0.056199,0.021991
2026-03-04T18:45:27.796748,-0.952343,-9.284151,3.933800,0.023212,-0.057421,0.012217
2026-03-04T18:45:27.805748,-1.009771,-9.298508,3.909872,0.039095,-0.058643,0.015882
2026-03-04T18:45:27.815748,-0.937986,-9.226723,3.967299,0.036651,-0.054977,0.013439
2026-03-04T18:45:27.824748,-0.933200,-9.303294,3.866801,0.034208,-0.053756,0.007330
2026-03-04T18:45:27.834748,-1.095912,-9.250652,3.871586,0.036651,-0.047647,0.006108
2026-03-04T18:45:27.844748,-0.971485,-9.336793,3.876372,0.035430,-0.042760,0.008552
2026-03-04T18:45:27.853748,-1.143769,-9.231509,3.795016,0.036651,-0.050090,-0.003665
2026-03-04T18:45:27.863748,-1.004985,-9.241080,3.842873,0.032986,-0.053756,-0.009773
2026-03-04T18:45:27.872748,-0.933200,-9.418149,3.890729,0.006108,-0.043982,0.001221
2026-03-04T18:45:27.882748,-1.091127,-9.470791,3.986442,0.014660,-0.034208,0.014660
2026-03-04T18:45:27.892748,-1.067198,-9.370293,3.838087,0.023212,-0.034208,0.009773
2026-03-04T18:45:27.901748,-1.009771,-9.212367,3.713660,0.040317,-0.051312,0.017104
2026-03-04T18:45:27.911748,-0.947557,-9.255437,3.780659,0.029321,-0.058643,0.017104
2026-03-04T18:45:27.921748,-0.866201,-9.336793,3.952942,0.018325,-0.050090,0.017104
2026-03-04T18:45:27.930748,-0.947557,-9.293722,3.876372,0.008552,-0.041538,0.010995
2026-03-04T18:45:27.940748,-1.076770,-9.298508,3.818944,0.019547,-0.039095,0.013439
2026-03-04T18:45:27.949748,-1.004985,-9.308079,3.914657,0.025656,-0.047647,0.012217
2026-03-04T18:45:27.959748,-0.995414,-9.255437,3.909872,0.030543,-0.050090,0.015882
2026-03-04T18:45:27.969748,-0.981057,-9.274580,3.924229,0.003665,-0.047647,0.017104
2026-03-04T18:45:27.978748,-1.033699,-9.265009,3.862015,0.003665,-0.037873,0.008552
2026-03-04T18:45:27.988748,-1.052841,-9.288937,3.924229,0.003665,-0.037873,0.009773
2026-03-04T18:45:27.997748,-0.985842,-9.245866,3.871586,-0.010995,-0.047647,0.015882
2026-03-04T18:45:28.007748,-0.947557,-9.269794,3.847658,-0.015882,-0.043982,0.015882
2026-03-04T18:45:28.017748,-0.990628,-9.293722,3.823730,-0.009773,-0.035430,0.013439
2026-03-04T18:45:28.026748,-1.086341,-9.375078,3.809373,-0.003665,-0.036651,0.012217
2026-03-04T18:45:28.036748,-1.028913,-9.346365,3.909872,0.007330,-0.041538,0.012217
2026-03-04T18:45:28.046748,-1.033699,-9.308079,3.814159,0.013439,-0.045204,0.012217
2026-03-04T18:45:28.055748,-0.961914,-9.274580,3.838087,0.014660,-0.047647,0.013439
2026-03-04T18:45:28.065748,-0.947557,-9.317651,3.866801,0.017104,-0.045204,0.015882
2026-03-04T18:45:28.074748,-1.004985,-9.312865,3.862015,0.018325,-0.042760,0.015882
2026-03-04T18:45:28.084748,-1.009771,-9.260223,3.823730,0.018325,-0.042760,0.019547
2026-03-04T18:45:28.094748,-1.043270,-9.317651,3.890729,0.021991,-0.045204,0.021991
2026-03-04T18:45:28.103748,-1.033699,-9.274580,3.828516,0.018325,-0.045204,0.020769
2026-03-04T18:45:28.113748,-1.024128,-9.255437,3.905086,0.014660,-0.046425,0.019547
2026-03-04T18:45:28.122748,-0.976271,-9.293722,3.866801,0.009773,-0.043982,0.017104
2026-03-04T18:45:28.132748,-0.971485,-9.284151,3.876372,0.008552,-0.041538,0.017104
2026-03-04T18:45:28.142748,-1.028913,-9.250652,3.933800,0.008552,-0.043982,0.017104
2026-03-04T18:45:28.151748,-1.028913,-9.265009,3.871586,0.007330,-0.041538,0.018325
2026-03-04T18:45:28.161748,-1.009771,-9.327222,3.828516,0.012217,-0.040317,0.014660
2026-03-04T18:45:28.171748,-0.971485,-9.341579,3.833301,0.014660,-0.042760,0.014660
2026-03-04T18:45:28.180748,-0.981057,-9.341579,3.833301,0.013439,-0.042760,0.017104
2026-03-04T18:45:28.190748,-1.043270,-9.293722,3.833301,0.009773,-0.042760,0.014660
2026-03-04T18:45:28.199748,-0.966700,-9.298508,3.852444,0.009773,-0.041538,0.017104
2026-03-04T18:45:28.209748,-1.004985,-9.250652,3.900300,0.007330,-0.040317,0.017104
2026-03-04T18:45:28.219748,-0.957129,-9.245866,3.866801,0.003665,-0.037873,0.015882
2026-03-04T18:45:28.228748,-0.966700,-9.269794,3.847658,-0.025656,-0.039095,0.026878
2026-03-04T18:45:28.238748,-1.009771,-9.245866,3.842873,-0.021991,-0.031764,0.015882
2026-03-04T18:45:28.247748,-1.095912,-9.293722,3.852444,-0.023212,-0.034208,0.014660
2026-03-04T18:45:28.257748,-0.990628,-9.384650,3.790230,-0.009773,-0.039095,0.015882
2026-03-04T18:45:28.267748,-1.033699,-9.370293,3.795016,0.004886,-0.041538,0.013439
2026-03-04T18:45:28.276748,-1.004985,-9.351150,3.838087,0.015882,-0.046425,0.014660
2026-03-04T18:45:28.286748,-1.004985,-9.327222,3.852444,0.020769,-0.046425,0.013439
2026-03-04T18:45:28.296748,-1.024128,-9.308079,3.871586,0.018325,-0.045204,0.012217
2026-03-04T18:45:28.305748,-0.995414,-9.312865,3.814159,0.019547,-0.043982,0.012217
2026-03-04T18:45:28.315748,-0.981057,-9.265009,3.838087,0.015882,-0.046425,0.012217
2026-03-04T18:45:28.324748,-1.052841,-9.260223,3.838087,0.010995,-0.048869,0.015882
2026-03-04T18:45:28.334748,-1.028913,-9.260223,3.919443,0.001221,-0.050090,0.017104
2026-03-04T18:45:28.344748,-0.961914,-9.312865,3.771088,-0.001221,-0.046425,0.013439
2026-03-04T18:45:28.353748,-1.028913,-9.351150,3.766302,0.014660,-0.045204,0.012217
2026-03-04T18:45:28.363748,-0.971485,-9.322436,3.818944,0.024434,-0.047647,0.012217
2026-03-04T18:45:28.372748,-1.019342,-9.327222,3.871586,0.032986,-0.050090,0.012217
2026-03-04T18:45:28.382748,-0.995414,-9.279366,3.905086,0.034208,-0.050090,0.010995
2026-03-04T18:45:28.392748,-0.961914,-9.279366,3.905086,0.029321,-0.048869,0.013439
2026-03-04T18:45:28.401748,-1.014556,-9.250652,3.900300,0.014660,-0.050090,0.014660
2026-03-04T18:45:28.411748,-1.014556,-9.332008,3.795016,0.004886,-0.046425,0.009773
2026-03-04T18:45:28.421748,-0.957129,-9.322436,3.857230,0.020769,-0.048869,0.009773
2026-03-04T18:45:28.430748,-0.952343,-9.379864,3.862015,0.035430,-0.047647,0.007330
2026-03-04T18:45:28.440748,-0.914058,-9.312865,3.828516,0.040317,-0.042760,0.006108
2026-03-04T18:45:28.449748,-1.019342,-9.298508,3.809373,0.048869,-0.041538,0.006108
2026-03-04T18:45:28.459748,-1.062413,-9.332008,3.814159,0.048869,-0.046425,0.006108
2026-03-04T18:45:28.469748,-0.981057,-9.269794,3.838087,0.045204,-0.047647,0.007330
2026-03-04T18:45:28.478748,-0.985842,-9.265009,3.814159,0.039095,-0.050090,0.004886
2026-03-04T18:45:28.488748,-0.961914,-9.274580,3.828516,0.028099,-0.047647,0.012217
2026-03-04T18:45:28.497748,-0.990628,-9.274580,3.929014,0.030543,-0.045204,0.013439
2026-03-04T18:45:28.507748,-1.004985,-9.332008,3.842873,0.031764,-0.047647,0.012217
2026-03-04T18:45:28.517748,-0.952343,-9.293722,3.876372,0.035430,-0.051312,0.009773
2026-03-04T18:45:28.526748,-1.062413,-9.236295,3.948157,0.024434,-0.051312,0.012217
2026-03-04T18:45:28.536748,-0.914058,-9.322436,3.838087,-0.004886,-0.062308,0.012217
2026-03-04T18:45:28.546748,-0.870987,-9.327222,3.857230,0.020769,-0.053756,0.012217
2026-03-04T18:45:28.555748,-0.981057,-9.260223,3.943371,0.031764,-0.047647,0.004886
2026-03-04T18:45:28.565748,-0.942772,-9.303294,3.862015,0.018325,-0.054977,0.002443
2026-03-04T18:45:28.574748,-0.870987,-9.341579,3.775874,0.017104,-0.059864,0.007330
2026-03-04T18:45:28.584748,-0.957129,-9.279366,3.828516,0.023212,-0.057421,0.003665
2026-03-04T18:45:28.594748,-0.971485,-9.284151,3.833301,0.009773,-0.054977,0.002443
2026-03-04T18:45:28.603748,-1.009771,-9.346365,3.751945,0.009773,-0.057421,0.006108
2026-03-04T18:45:28.613748,-0.947557,-9.298508,3.761517,0.021991,-0.051312,0.004886
2026-03-04T18:45:28.622748,-1.024128,-9.308079,3.847658,0.028099,-0.054977,0.002443
2026-03-04T18:45:28.632748,-0.928415,-9.322436,3.842873,0.031764,-0.059864,0.010995
2026-03-04T18:45:28.642748,-0.966700,-9.298508,3.943371,0.034208,-0.058643,0.010995
2026-03-04T18:45:28.651748,-0.995414,-9.346365,3.842873,0.032986,-0.061086,0.007330
2026-03-04T18:45:28.661748,-0.966700,-9.236295,3.799802,0.034208,-0.058643,0.013439
2026-03-04T18:45:28.671748,-0.952343,-9.308079,3.795016,0.026878,-0.056199,0.014660
2026-03-04T18:45:28.680748,-0.942772,-9.408578,3.818944,0.040317,-0.054977,0.019547
2026-03-04T18:45:28.690748,-0.961914,-9.322436,3.809373,0.030543,-0.045204,0.019547
2026-03-04T18:45:28.699748,-1.043270,-9.279366,3.909872,0.041538,-0.053756,0.015882
2026-03-04T18:45:28.709748,-0.880558,-9.245866,4.019941,0.047647,-0.053756,0.020769
2026-03-04T18:45:28.719748,-0.847059,-9.336793,3.857230,0.035430,-0.039095,0.020769
2026-03-04T18:45:28.728748,-0.995414,-9.317651,3.866801,0.051312,-0.039095,0.009773
2026-03-04T18:45:28.738748,-0.942772,-9.351150,3.900300,0.062308,-0.045204,0.010995
2026-03-04T18:45:28.747748,-0.923629,-9.399007,3.766302,0.072082,-0.042760,0.018325
2026-03-04T18:45:28.757748,-0.966700,-9.375078,3.704089,0.067195,-0.036651,0.019547
2026-03-04T18:45:28.767748,-1.038485,-9.327222,3.694518,0.064751,-0.041538,0.025656
2026-03-04T18:45:28.776748,-1.067198,-9.336793,3.795016,0.059864,-0.051312,0.024434
2026-03-04T18:45:28.786748,-0.995414,-9.255437,3.857230,0.053756,-0.057421,0.028099
2026-03-04T18:45:28.796748,-0.890130,-9.327222,3.914657,0.065973,-0.057421,0.035430
2026-03-04T18:45:28.805748,-0.952343,-9.217152,3.962514,0.052534,-0.047647,0.029321
2026-03-04T18:45:28.815748,-0.985842,-9.341579,3.809373,0.043982,-0.039095,0.029321
2026-03-04T18:45:28.824748,-1.043270,-9.279366,3.766302,0.054977,-0.050090,0.036651
2026-03-04T18:45:28.834748,-0.933200,-9.327222,3.905086,0.064751,-0.059864,0.037873
2026-03-04T18:45:28.844748,-0.923629,-9.422935,3.795016,0.061086,-0.040317,0.042760
2026-03-04T18:45:28.853748,-0.981057,-9.470791,3.809373,0.103847,-0.013439,0.040317
2026-03-04T18:45:28.863748,-1.038485,-9.542576,3.560520,0.109955,0.003665,0.048869
2026-03-04T18:45:28.872748,-1.134197,-9.628718,3.407379,0.142942,-0.003665,0.057421
2026-03-04T18:45:28.882748,-1.009771,-9.556933,3.469592,0.186924,-0.026878,0.069638
2026-03-04T18:45:28.892748,-1.000199,-9.600004,3.450450,0.271224,-0.020769,0.069638
2026-03-04T18:45:28.901748,-0.918843,-9.509077,3.818944,0.375071,-0.028099,0.053756
2026-03-04T18:45:28.911748,-0.947557,-9.370293,4.086941,0.399505,-0.029321,0.062308
2026-03-04T18:45:28.921748,-0.866201,-9.250652,3.895515,0.426383,-0.008552,0.074525
2026-03-04T18:45:28.930748,-0.914058,-9.255437,3.895515,0.419053,-0.015882,0.094073
2026-03-04T18:45:28.940748,-0.866201,-9.131011,4.110869,0.427605,-0.007330,0.098960
2026-03-04T18:45:28.949748,-0.722632,-9.011369,4.264009,0.405614,0.020769,0.090408
2026-03-04T18:45:28.959748,-0.957129,-8.877371,4.407579,0.389731,0.039095,0.068416
2026-03-04T18:45:28.969748,-1.043270,-8.762516,4.742574,0.310319,0.037873,0.076969
2026-03-04T18:45:28.978748,-1.177268,-8.748159,4.694717,0.234572,0.018325,0.067195
2026-03-04T18:45:28.988748,-0.981057,-8.776873,4.704289,0.186924,0.021991,0.051312
2026-03-04T18:45:28.997748,-1.091127,-8.604590,4.656432,0.138055,0.018325,0.041538
2026-03-04T18:45:29.007748,-1.124626,-8.762516,4.689932,0.059864,0.012217,0.035430
2026-03-04T18:45:29.017748,-1.081555,-8.877371,4.675575,0.028099,0.004886,0.019547
2026-03-04T18:45:29.026748,-1.186840,-8.752945,4.460221,-0.017104,0.021991,0.003665
2026-03-04T18:45:29.036748,-1.215553,-8.934799,4.144368,-0.068416,0.020769,-0.009773
2026-03-04T18:45:29.046748,-1.095912,-9.164510,4.292723,-0.096516,-0.006108,0.001221
2026-03-04T18:45:29.055748,-0.957129,-9.312865,4.388436,-0.100181,-0.017104,0.019547
2026-03-04T18:45:29.065748,-0.923629,-9.298508,4.302295,-0.058643,0.001221,0.008552
2026-03-04T18:45:29.074748,-1.105484,-9.030512,4.139583,-0.036651,-0.001221,0.001221
2026-03-04T18:45:29.084748,-1.277767,-8.953942,3.976871,-0.050090,-0.009773,-0.007330
2026-03-04T18:45:29.094748,-1.296909,-9.145367,3.929014,-0.059864,-0.028099,-0.003665
2026-03-04T18:45:29.103748,-1.110269,-9.260223,4.168296,-0.062308,-0.048869,0.013439
2026-03-04T18:45:29.113748,-0.981057,-9.332008,4.235296,-0.029321,-0.043982,0.008552
2026-03-04T18:45:29.122748,-1.009771,-9.322436,4.311866,0.006108,-0.045204,0.004886
2026-03-04T18:45:29.132748,-1.000199,-9.308079,4.436293,0.026878,-0.067195,-0.006108
2026-03-04T18:45:29.142748,-0.942772,-9.303294,4.646861,0.024434,-0.079412,-0.008552
2026-03-04T18:45:29.151748,-0.952343,-9.317651,4.517649,0.042760,-0.065973,-0.006108
2026-03-04T18:45:29.161748,-1.028913,-9.068797,4.283152,0.101403,-0.054977,-0.018325
2026-03-04T18:45:29.171748,-1.119840,-9.111868,3.991228,0.111177,-0.064751,-0.025656
2026-03-04T18:45:29.180748,-1.033699,-9.341579,3.723231,0.112399,-0.031764,-0.013439
2026-03-04T18:45:29.190748,-1.383051,-9.427721,3.474378,0.100181,-0.006108,0.007330
2026-03-04T18:45:29.199748,-1.588834,-9.408578,3.507877,0.127059,-0.048869,0.010995
2026-03-04T18:45:29.209748,-1.210768,-9.346365,4.120440,0.190589,-0.122173,0.017104
2026-03-04T18:45:29.219748,-0.909272,-9.150153,4.646861,0.239459,-0.130725,0.021991
2026-03-04T18:45:29.228748,-0.799202,-8.796015,4.728217,0.233350,-0.103847,0.014660
2026-03-04T18:45:29.238748,-0.799202,-8.633303,4.637290,0.191811,-0.073303,0.002443
2026-03-04T18:45:29.247748,-0.885344,-8.752945,4.828716,0.144164,-0.065973,-0.018325
2026-03-04T18:45:29.257748,-0.909272,-8.968299,4.876572,0.112399,-0.063529,-0.037873
2026-03-04T18:45:29.267748,-1.038485,-9.159724,4.541577,0.108733,-0.051312,-0.042760
2026-03-04T18:45:29.276748,-1.162911,-9.164510,4.163511,0.092851,-0.039095,-0.040317
2026-03-04T18:45:29.286748,-1.411765,-9.198010,3.742374,0.125838,-0.054977,-0.045204
2026-03-04T18:45:29.296748,-1.387837,-9.284151,3.570091,0.109955,-0.076969,-0.023212
2026-03-04T18:45:29.305748,-1.277767,-9.312865,3.799802,0.135612,-0.111177,-0.020769
2026-03-04T18:45:29.315748,-0.885344,-9.341579,3.981656,0.135612,-0.133168,-0.008552
2026-03-04T18:45:29.324748,-0.827916,-9.279366,4.220939,0.151494,-0.123394,0.001221
2026-03-04T18:45:29.334748,-0.885344,-9.145367,4.407579,0.155159,-0.096516,0.009773
2026-03-04T18:45:29.344748,-0.918843,-8.944370,4.412364,0.151494,-0.086742,0.010995
2026-03-04T18:45:29.353748,-0.866201,-8.848657,4.431507,0.135612,-0.081855,0.010995
2026-03-04T18:45:29.363748,-0.880558,-8.867800,4.517649,0.102625,-0.074525,0.017104
2026-03-04T18:45:29.372748,-0.942772,-8.805587,4.584648,0.068416,-0.068416,0.015882
2026-03-04T18:45:29.382748,-1.028913,-8.872586,4.541577,0.019547,-0.050090,0.014660
2026-03-04T18:45:29.392748,-1.009771,-8.915657,4.441078,-0.012217,-0.036651,0.013439
2026-03-04T18:45:29.401748,-1.028913,-9.011369,4.407579,-0.030543,-0.030543,0.010995
2026-03-04T18:45:29.411748,-0.976271,-9.049655,4.402793,-0.035430,-0.028099,0.007330
2026-03-04T18:45:29.421748,-0.961914,-9.020941,4.431507,-0.037873,-0.028099,0.001221
2026-03-04T18:45:29.430748,-0.909272,-9.054440,4.421936,-0.043982,-0.024434,0.001221
2026-03-04T18:45:29.440748,-0.909272,-9.064012,4.340580,-0.054977,-0.015882,0.001221
2026-03-04T18:45:29.449748,-0.918843,-9.087940,4.321437,-0.073303,-0.009773,0.002443
2026-03-04T18:45:29.459748,-1.033699,-9.068797,4.393222,-0.078190,-0.014660,0.009773
2026-03-04T18:45:29.469748,-1.004985,-9.035298,4.316651,-0.157603,-0.007330,0.030543
2026-03-04T18:45:29.478748,-1.095912,-8.920442,4.283152,-0.179594,-0.014660,0.039095
2026-03-04T18:45:29.488748,-0.933200,-8.853443,4.498506,-0.201585,-0.009773,0.035430
2026-03-04T18:45:29.497748,-0.890130,-9.064012,4.273581,-0.233350,0.003665,0.039095
2026-03-04T18:45:29.507748,-0.928415,-9.016155,4.225724,-0.234572,0.020769,0.035430
2026-03-04T18:45:29.517748,-1.038485,-9.183653,4.297509,-0.224798,0.013439,0.034208
2026-03-04T18:45:29.526748,-1.071984,-9.221938,4.244867,-0.234572,0.004886,0.037873
2026-03-04T18:45:29.536748,-1.110269,-9.231509,4.273581,-0.218689,0.000000,0.040317
2026-03-04T18:45:29.546748,-1.057627,-9.154939,4.149154,-0.195476,0.000000,0.037873
2026-03-04T18:45:29.555748,-1.048056,-9.164510,4.158725,-0.200363,-0.008552,0.043982
2026-03-04T18:45:29.565748,-0.952343,-9.250652,4.096512,-0.186924,-0.008552,0.045204
2026-03-04T18:45:29.574748,-0.909272,-9.284151,4.153940,-0.177150,0.008552,0.040317
2026-03-04T18:45:29.584748,-0.981057,-9.226723,4.106083,-0.175929,0.019547,0.030543
2026-03-04T18:45:29.594748,-1.052841,-9.245866,4.144368,-0.173485,0.009773,0.034208
2026-03-04T18:45:29.603748,-1.071984,-9.169296,4.264009,-0.175929,0.002443,0.032986
2026-03-04T18:45:29.613748,-1.119840,-9.159724,4.206582,-0.173485,0.004886,0.029321
2026-03-04T18:45:29.622748,-1.057627,-9.193224,4.168296,-0.182037,0.008552,0.024434
2026-03-04T18:45:29.632748,-1.057627,-9.212367,4.015156,-0.183259,0.007330,0.024434
2026-03-04T18:45:29.642748,-1.081555,-9.221938,4.010370,-0.189368,0.001221,0.035430
2026-03-04T18:45:29.651748,-1.004985,-9.183653,4.063012,-0.185702,-0.002443,0.036651
2026-03-04T18:45:29.661748,-1.081555,-9.236295,4.039084,-0.175929,-0.004886,0.034208
2026-03-04T18:45:29.671748,-1.028913,-9.293722,3.976871,-0.177150,-0.009773,0.031764
2026-03-04T18:45:29.680748,-1.091127,-9.332008,3.952942,-0.155159,-0.012217,0.028099
2026-03-04T18:45:29.690748,-1.057627,-9.427721,3.818944,-0.117286,-0.013439,0.021991
2026-03-04T18:45:29.699748,-1.124626,-9.446863,3.818944,-0.098960,-0.018325,0.014660
2026-03-04T18:45:29.709748,-1.186840,-9.370293,3.814159,-0.058643,-0.030543,0.014660
2026-03-04T18:45:29.719748,-1.148554,-9.322436,3.852444,-0.028099,-0.045204,0.012217
2026-03-04T18:45:29.728748,-1.091127,-9.274580,3.909872,-0.013439,-0.054977,0.006108
2026-03-04T18:45:29.738748,-1.009771,-9.265009,4.024727,-0.032986,-0.050090,0.018325
2026-03-04T18:45:29.747748,-1.024128,-9.250652,3.828516,-0.039095,-0.043982,0.017104
2026-03-04T18:45:29.757748,-0.966700,-9.303294,3.895515,-0.032986,-0.045204,0.017104
2026-03-04T18:45:29.767748,-0.976271,-9.332008,3.919443,-0.021991,-0.047647,0.014660
2026-03-04T18:45:29.776748,-0.928415,-9.341579,3.909872,-0.056199,-0.035430,0.024434
2026-03-04T18:45:29.786748,-0.981057,-9.312865,3.842873,-0.059864,-0.032986,0.030543
2026-03-04T18:45:29.796748,-1.091127,-9.078368,3.909872,-0.039095,-0.036651,0.015882
2026-03-04T18:45:29.805748,-1.129412,-9.078368,4.039084,-0.079412,-0.029321,0.009773
2026-03-04T18:45:29.815748,-1.048056,-9.078368,3.972085,-0.116064,-0.013439,0.015882
2026-03-04T18:45:29.824748,-1.024128,-9.121439,4.058227,-0.162490,-0.012217,0.023212
2026-03-04T18:45:29.834748,-1.019342,-9.198010,3.976871,-0.215024,-0.008552,0.018325
2026-03-04T18:45:29.844748,-1.086341,-9.303294,3.771088,-0.217467,-0.006108,0.012217
2026-03-04T18:45:29.853748,-1.033699,-9.365507,3.756731,-0.200363,-0.004886,0.015882
2026-03-04T18:45:29.863748,-1.086341,-9.451649,3.704089,-0.178372,-0.010995,0.018325
2026-03-04T18:45:29.872748,-1.134197,-9.609575,3.536591,-0.151494,-0.021991,0.025656
2026-03-04T18:45:29.882748,-1.158126,-9.576076,3.416950,-0.094073,-0.028099,0.018325
2026-03-04T18:45:29.892748,-1.158126,-9.552147,3.560520,-0.028099,-0.039095,0.017104
2026-03-04T18:45:29.901748,-1.148554,-9.523433,3.483949,0.009773,-0.045204,0.021991
2026-03-04T18:45:29.911748,-1.086341,-9.437292,3.637090,0.041538,-0.056199,0.026878
2026-03-04T18:45:29.921748,-1.004985,-9.322436,3.766302,0.050090,-0.058643,0.026878
2026-03-04T18:45:29.930748,-1.086341,-9.322436,3.775874,0.041538,-0.053756,0.026878
2026-03-04T18:45:29.940748,-1.071984,-9.312865,3.809373,0.042760,-0.051312,0.023212
2026-03-04T18:45:29.949748,-1.004985,-9.336793,3.842873,0.037873,-0.056199,0.020769
2026-03-04T18:45:29.959748,-1.048056,-9.288937,3.862015,0.040317,-0.054977,0.018325
2026-03-04T18:45:29.969748,-1.052841,-9.336793,3.823730,0.036651,-0.050090,0.015882
2026-03-04T18:45:29.978748,-1.043270,-9.317651,3.780659,0.035430,-0.045204,0.014660
2026-03-04T18:45:29.988748,-1.086341,-9.279366,3.780659,0.037873,-0.043982,0.012217
2026-03-04T18:45:29.997748,-1.067198,-9.250652,3.747160,0.036651,-0.046425,0.012217
2026-03-04T18:45:30.007748,-1.095912,-9.351150,3.747160,0.036651,-0.047647,0.009773
2026-03-04T18:45:30.017748,-1.043270,-9.370293,3.847658,0.040317,-0.051312,0.008552
2026-03-04T18:45:30.026748,-1.057627,-9.279366,3.828516,0.040317,-0.048869,0.010995
2026-03-04T18:45:30.036748,-1.091127,-9.355936,3.737588,0.034208,-0.042760,0.013439
2026-03-04T18:45:30.046748,-1.048056,-9.298508,3.665804,0.030543,-0.045204,0.014660
2026-03-04T18:45:30.055748,-1.009771,-9.341579,3.713660,0.030543,-0.045204,0.012217
2026-03-04T18:45:30.065748,-1.057627,-9.389435,3.704089,0.034208,-0.042760,0.012217
2026-03-04T18:45:30.074748,-1.100698,-9.384650,3.718446,0.039095,-0.046425,0.015882
2026-03-04T18:45:30.084748,-1.124626,-9.312865,3.742374,0.042760,-0.050090,0.014660
2026-03-04T18:45:30.094748,-1.062413,-9.269794,3.799802,0.037873,-0.048869,0.014660
2026-03-04T18:45:30.103748,-1.105484,-9.221938,3.818944,0.023212,-0.043982,0.019547
2026-03-04T18:45:30.113748,-1.119840,-9.274580,3.799802,0.010995,-0.040317,0.019547
2026-03-04T18:45:30.122748,-1.110269,-9.308079,3.842873,-0.002443,-0.039095,0.019547
2026-03-04T18:45:30.132748,-1.043270,-9.269794,3.795016,-0.003665,-0.039095,0.021991
2026-03-04T18:45:30.142748,-1.028913,-9.317651,3.871586,-0.007330,-0.040317,0.019547
2026-03-04T18:45:30.151748,-1.067198,-9.288937,3.818944,-0.009773,-0.037873,0.021991
2026-03-04T18:45:30.161748,-1.033699,-9.312865,3.756731,-0.014660,-0.030543,0.019547
2026-03-04T18:45:30.171748,-1.134197,-9.312865,3.694518,-0.012217,-0.031764,0.019547
2026-03-04T18:45:30.180748,-1.076770,-9.360722,3.732803,-0.012217,-0.034208,0.019547
2026-03-04T18:45:30.190748,-1.076770,-9.360722,3.708875,-0.019547,-0.034208,0.020769
2026-03-04T18:45:30.199748,-1.119840,-9.303294,3.694518,-0.017104,-0.030543,0.019547
2026-03-04T18:45:30.209748,-1.062413,-9.312865,3.708875,-0.013439,-0.030543,0.020769
2026-03-04T18:45:30.219748,-1.167697,-9.317651,3.785445,-0.014660,-0.034208,0.020769
2026-03-04T18:45:30.228748,-1.033699,-9.379864,3.742374,-0.020769,-0.036651,0.018325
2026-03-04T18:45:30.238748,-1.119840,-9.355936,3.771088,-0.008552,-0.039095,0.018325
2026-03-04T18:45:30.247748,-1.115055,-9.284151,3.751945,-0.004886,-0.037873,0.017104
2026-03-04T18:45:30.257748,-1.158126,-9.394221,3.651447,-0.012217,-0.032986,0.017104
2026-03-04T18:45:30.267748,-1.162911,-9.365507,3.804587,-0.002443,-0.045204,0.019547
2026-03-04T18:45:30.276748,-1.024128,-9.078368,3.962514,-0.021991,-0.050090,0.025656
2026-03-04T18:45:30.286748,-0.981057,-9.131011,3.862015,-0.073303,-0.040317,0.024434
2026-03-04T18:45:30.296748,-1.038485,-9.250652,3.761517,-0.100181,-0.023212,0.019547
2026-03-04T18:45:30.305748,-1.129412,-9.346365,3.670589,-0.131946,-0.015882,0.021991
2026-03-04T18:45:30.315748,-1.148554,-9.461220,3.603590,-0.136833,-0.017104,0.028099
2026-03-04T18:45:30.324748,-1.110269,-9.509077,3.527020,-0.113620,-0.021991,0.026878
2026-03-04T18:45:30.334748,-1.134197,-9.566504,3.560520,-0.074525,-0.026878,0.023212
2026-03-04T18:45:30.344748,-1.076770,-9.446863,3.613162,-0.043982,-0.036651,0.023212
2026-03-04T18:45:30.353748,-1.057627,-9.341579,3.656232,-0.021991,-0.036651,0.018325
2026-03-04T18:45:30.363748,-1.057627,-9.322436,3.613162,-0.032986,-0.037873,0.020769
2026-03-04T18:45:30.372748,-1.057627,-9.284151,3.613162,-0.043982,-0.030543,0.019547
2026-03-04T18:45:30.382748,-1.177268,-9.269794,3.656232,-0.063529,-0.028099,0.019547
2026-03-04T18:45:30.392748,-1.067198,-9.332008,3.751945,-0.084299,-0.026878,0.029321
2026-03-04T18:45:30.401748,-1.057627,-9.260223,3.732803,-0.112399,-0.021991,0.030543
2026-03-04T18:45:30.411748,-1.119840,-9.303294,3.699303,-0.138055,-0.019547,0.032986
2026-03-04T18:45:30.421748,-1.095912,-9.303294,3.641875,-0.156381,-0.018325,0.032986
2026-03-04T18:45:30.430748,-1.067198,-9.351150,3.608376,-0.162490,-0.014660,0.031764
2026-03-04T18:45:30.440748,-1.067198,-9.293722,3.656232,-0.174707,-0.013439,0.032986
2026-03-04T18:45:30.449748,-1.091127,-9.379864,3.570091,-0.188146,-0.015882,0.040317
2026-03-04T18:45:30.459748,-1.071984,-9.399007,3.603590,-0.193033,-0.012217,0.040317
2026-03-04T18:45:30.469748,-1.057627,-9.413364,3.527020,-0.179594,-0.003665,0.031764
2026-03-04T18:45:30.478748,-1.071984,-9.456434,3.493520,-0.164933,-0.003665,0.025656
2026-03-04T18:45:30.488748,-1.191625,-9.518648,3.431307,-0.161268,-0.006108,0.025656
2026-03-04T18:45:30.497748,-1.095912,-9.456434,3.407379,-0.149051,-0.009773,0.021991
2026-03-04T18:45:30.507748,-1.110269,-9.403792,3.426521,-0.156381,-0.012217,0.029321
2026-03-04T18:45:30.517748,-1.110269,-9.523433,3.378665,-0.144164,-0.012217,0.025656
2026-03-04T18:45:30.526748,-1.186840,-9.580861,3.369094,-0.122173,-0.007330,0.021991
2026-03-04T18:45:30.536748,-1.220339,-9.580861,3.302095,-0.095294,-0.010995,0.018325
2026-03-04T18:45:30.546748,-1.201196,-9.566504,3.412165,-0.068416,-0.028099,0.023212
2026-03-04T18:45:30.555748,-1.205982,-9.537790,3.268595,-0.043982,-0.036651,0.017104
2026-03-04T18:45:30.565748,-1.105484,-9.494720,3.349951,-0.023212,-0.041538,0.014660
2026-03-04T18:45:30.574748,-1.182054,-9.442077,3.316452,-0.018325,-0.042760,0.014660
2026-03-04T18:45:30.584748,-1.091127,-9.461220,3.364308,-0.018325,-0.042760,0.012217
2026-03-04T18:45:30.594748,-1.095912,-9.499505,3.316452,-0.010995,-0.046425,0.014660
2026-03-04T18:45:30.603748,-1.138983,-9.470791,3.316452,-0.009773,-0.043982,0.014660
2026-03-04T18:45:30.613748,-1.115055,-9.485148,3.268595,-0.006108,-0.046425,0.018325
2026-03-04T18:45:30.622748,-1.091127,-9.422935,3.345165,-0.002443,-0.046425,0.019547
2026-03-04T18:45:30.632748,-1.115055,-9.456434,3.393022,0.001221,-0.046425,0.019547
2026-03-04T18:45:30.642748,-1.062413,-9.451649,3.431307,0.007330,-0.046425,0.015882
2026-03-04T18:45:30.651748,-1.062413,-9.466006,3.445664,0.012217,-0.043982,0.014660
2026-03-04T18:45:30.661748,-1.115055,-9.461220,3.445664,0.008552,-0.042760,0.015882
2026-03-04T18:45:30.671748,-1.119840,-9.379864,3.335594,0.001221,-0.042760,0.014660
2026-03-04T18:45:30.680748,-1.043270,-9.480363,3.378665,0.000000,-0.039095,0.015882
2026-03-04T18:45:30.690748,-1.167697,-9.451649,3.354737,0.006108,-0.037873,0.013439
2026-03-04T18:45:30.699748,-1.158126,-9.475577,3.359522,0.006108,-0.036651,0.014660
2026-03-04T18:45:30.709748,-1.119840,-9.523433,3.340380,0.010995,-0.041538,0.013439
2026-03-04T18:45:30.719748,-1.105484,-9.485148,3.340380,0.015882,-0.042760,0.014660
2026-03-04T18:45:30.728748,-1.148554,-9.475577,3.345165,0.015882,-0.041538,0.017104
2026-03-04T18:45:30.738748,-1.143769,-9.461220,3.302095,0.019547,-0.046425,0.019547
2026-03-04T18:45:30.747748,-1.138983,-9.408578,3.378665,0.019547,-0.048869,0.019547
2026-03-04T18:45:30.757748,-1.124626,-9.399007,3.388236,0.010995,-0.048869,0.020769
2026-03-04T18:45:30.767748,-1.129412,-9.437292,3.464807,0.001221,-0.048869,0.020769
2026-03-04T18:45:30.776748,-1.124626,-9.432506,3.440878,-0.020769,-0.047647,0.020769
2026-03-04T18:45:30.786748,-1.067198,-9.461220,3.349951,-0.024434,-0.043982,0.018325
2026-03-04T18:45:30.796748,-1.138983,-9.513862,3.440878,-0.018325,-0.040317,0.018325
2026-03-04T18:45:30.805748,-1.105484,-9.561719,3.349951,-0.009773,-0.036651,0.015882
2026-03-04T18:45:30.815748,-1.143769,-9.552147,3.378665,0.003665,-0.036651,0.014660
2026-03-04T18:45:30.824748,-1.182054,-9.470791,3.302095,0.007330,-0.041538,0.013439
2026-03-04T18:45:30.834748,-1.167697,-9.437292,3.297309,0.013439,-0.045204,0.014660
2026-03-04T18:45:30.844748,-1.162911,-9.456434,3.278166,0.014660,-0.046425,0.015882
2026-03-04T18:45:30.853748,-1.134197,-9.504291,3.287738,0.010995,-0.045204,0.014660
2026-03-04T18:45:30.863748,-1.167697,-9.542576,3.292523,0.018325,-0.046425,0.015882
2026-03-04T18:45:30.872748,-1.158126,-9.504291,3.268595,0.020769,-0.046425,0.019547
2026-03-04T18:45:30.882748,-1.115055,-9.451649,3.330809,0.018325,-0.047647,0.025656
2026-03-04T18:45:30.892748,-1.143769,-9.466006,3.345165,0.015882,-0.047647,0.021991
2026-03-04T18:45:30.901748,-1.105484,-9.446863,3.426521,0.007330,-0.050090,0.017104
2026-03-04T18:45:30.911748,-1.081555,-9.442077,3.349951,0.002443,-0.047647,0.019547
2026-03-04T18:45:30.921748,-1.134197,-9.485148,3.369094,0.001221,-0.042760,0.020769
2026-03-04T18:45:30.930748,-1.129412,-9.489934,3.330809,0.014660,-0.039095,0.014660
2026-03-04T18:45:30.940748,-1.100698,-9.432506,3.369094,0.017104,-0.040317,0.014660
2026-03-04T18:45:30.949748,-1.138983,-9.379864,3.412165,0.014660,-0.045204,0.015882
2026-03-04T18:45:30.959748,-1.153340,-9.408578,3.364308,0.003665,-0.040317,0.012217
2026-03-04T18:45:30.969748,-1.095912,-9.504291,3.326023,0.002443,-0.036651,0.010995
2026-03-04T18:45:30.978748,-1.177268,-9.509077,3.268595,0.006108,-0.037873,0.014660
2026-03-04T18:45:30.988748,-1.148554,-9.485148,3.249453,-0.001221,-0.042760,0.018325
2026-03-04T18:45:30.997748,-1.177268,-9.470791,3.292523,0.002443,-0.042760,0.017104
2026-03-04T18:45:31.007748,-1.143769,-9.494720,3.235096,0.001221,-0.041538,0.019547
2026-03-04T18:45:31.017748,-1.105484,-9.552147,3.282952,0.003665,-0.041538,0.020769
2026-03-04T18:45:31.026748,-1.119840,-9.480363,3.268595,0.020769,-0.043982,0.018325
2026-03-04T18:45:31.036748,-1.182054,-9.523433,3.302095,0.025656,-0.046425,0.018325
2026-03-04T18:45:31.046748,-1.129412,-9.518648,3.326023,0.026878,-0.046425,0.018325
2026-03-04T18:45:31.055748,-1.143769,-9.399007,3.321237,0.023212,-0.046425,0.020769
2026-03-04T18:45:31.065748,-1.138983,-9.475577,3.311666,0.019547,-0.043982,0.020769
2026-03-04T18:45:31.074748,-1.115055,-9.470791,3.330809,0.023212,-0.043982,0.019547
2026-03-04T18:45:31.084748,-1.062413,-9.446863,3.249453,0.023212,-0.042760,0.017104
2026-03-04T18:45:31.094748,-1.115055,-9.537790,3.278166,0.024434,-0.045204,0.015882
2026-03-04T18:45:31.103748,-1.052841,-9.485148,3.311666,0.025656,-0.045204,0.014660
2026-03-04T18:45:31.113748,-1.057627,-9.427721,3.345165,0.025656,-0.045204,0.014660
2026-03-04T18:45:31.122748,-1.091127,-9.456434,3.306880,0.018325,-0.041538,0.014660
2026-03-04T18:45:31.132748,-1.153340,-9.470791,3.297309,0.015882,-0.042760,0.013439
2026-03-04T18:45:31.142748,-1.129412,-9.451649,3.287738,0.010995,-0.042760,0.015882
2026-03-04T18:45:31.151748,-1.143769,-9.518648,3.302095,0.013439,-0.040317,0.018325
2026-03-04T18:45:31.161748,-1.162911,-9.456434,3.302095,0.013439,-0.041538,0.020769
2026-03-04T18:45:31.171748,-1.119840,-9.533005,3.302095,0.018325,-0.041538,0.020769
2026-03-04T18:45:31.180748,-1.076770,-9.504291,3.306880,0.019547,-0.041538,0.019547
2026-03-04T18:45:31.190748,-1.100698,-9.437292,3.273381,0.019547,-0.043982,0.015882
2026-03-04T18:45:31.199748,-1.115055,-9.528219,3.254238,0.019547,-0.040317,0.017104
2026-03-04T18:45:31.209748,-1.105484,-9.518648,3.311666,0.018325,-0.042760,0.014660
2026-03-04T18:45:31.219748,-1.138983,-9.442077,3.263810,0.019547,-0.040317,0.017104
2026-03-04T18:45:31.228748,-1.086341,-9.499505,3.282952,0.020769,-0.042760,0.017104
2026-03-04T18:45:31.238748,-1.115055,-9.480363,3.220739,0.021991,-0.042760,0.013439
2026-03-04T18:45:31.247748,-1.100698,-9.456434,3.259024,0.021991,-0.042760,0.014660
2026-03-04T18:45:31.257748,-1.105484,-9.537790,3.321237,0.021991,-0.045204,0.014660
2026-03-04T18:45:31.267748,-1.124626,-9.451649,3.273381,0.021991,-0.043982,0.017104
2026-03-04T18:45:31.276748,-1.115055,-9.509077,3.321237,0.023212,-0.041538,0.017104
2026-03-04T18:45:31.286748,-1.110269,-9.461220,3.326023,0.021991,-0.041538,0.015882
2026-03-04T18:45:31.296748,-1.148554,-9.470791,3.311666,0.023212,-0.045204,0.017104
2026-03-04T18:45:31.305748,-1.115055,-9.451649,3.349951,0.021991,-0.043982,0.014660
2026-03-04T18:45:31.315748,-1.100698,-9.470791,3.349951,0.015882,-0.041538,0.014660
2026-03-04T18:45:31.324748,-1.158126,-9.437292,3.335594,0.014660,-0.041538,0.017104
2026-03-04T18:45:31.334748,-1.186840,-9.480363,3.297309,0.017104,-0.042760,0.015882
2026-03-04T18:45:31.344748,-1.076770,-9.461220,3.259024,0.018325,-0.042760,0.014660
2026-03-04T18:45:31.353748,-1.115055,-9.466006,3.254238,0.021991,-0.041538,0.015882
2026-03-04T18:45:31.363748,-1.115055,-9.499505,3.311666,0.025656,-0.043982,0.014660
2026-03-04T18:45:31.372748,-1.124626,-9.504291,3.311666,0.029321,-0.045204,0.015882
2026-03-04T18:45:31.382748,-1.138983,-9.466006,3.321237,0.031764,-0.042760,0.018325
2026-03-04T18:45:31.392748,-1.076770,-9.442077,3.225524,0.035430,-0.045204,0.015882
2026-03-04T18:45:31.401748,-1.177268,-9.485148,3.321237,0.037873,-0.048869,0.015882
2026-03-04T18:45:31.411748,-1.119840,-9.461220,3.369094,0.035430,-0.043982,0.012217
2026-03-04T18:45:31.421748,-1.153340,-9.418149,3.326023,0.036651,-0.046425,0.014660
2026-03-04T18:45:31.430748,-1.119840,-9.437292,3.349951,0.034208,-0.046425,0.013439
2026-03-04T18:45:31.440748,-1.129412,-9.513862,3.354737,0.029321,-0.043982,0.015882
2026-03-04T18:45:31.449748,-1.076770,-9.470791,3.326023,0.026878,-0.045204,0.017104
2026-03-04T18:45:31.459748,-1.115055,-9.466006,3.321237,0.021991,-0.042760,0.015882
2026-03-04T18:45:31.469748,-1.115055,-9.489934,3.230310,0.024434,-0.043982,0.017104
2026-03-04T18:45:31.478748,-1.100698,-9.437292,3.297309,0.021991,-0.043982,0.017104
2026-03-04T18:45:31.488748,-1.119840,-9.475577,3.311666,0.024434,-0.045204,0.018325
2026-03-04T18:45:31.497748,-1.119840,-9.437292,3.321237,0.029321,-0.043982,0.018325
2026-03-04T18:45:31.507748,-1.062413,-9.466006,3.340380,0.026878,-0.045204,0.017104
2026-03-04T18:45:31.517748,-1.124626,-9.418149,3.383451,0.024434,-0.047647,0.018325
2026-03-04T18:45:31.526748,-1.100698,-9.466006,3.397808,0.019547,-0.042760,0.015882
2026-03-04T18:45:31.536748,-1.138983,-9.437292,3.316452,0.018325,-0.041538,0.018325
2026-03-04T18:45:31.546748,-1.172483,-9.427721,3.321237,0.019547,-0.041538,0.015882
2026-03-04T18:45:31.555748,-1.119840,-9.494720,3.282952,0.019547,-0.045204,0.017104
2026-03-04T18:45:31.565748,-1.110269,-9.466006,3.321237,0.003665,-0.037873,0.018325
2026-03-04T18:45:31.574748,-1.244267,-9.485148,3.373879,0.004886,-0.043982,0.024434
2026-03-04T18:45:31.584748,-1.119840,-9.408578,3.364308,0.014660,-0.048869,0.021991
2026-03-04T18:45:31.594748,-1.043270,-9.427721,3.354737,0.015882,-0.041538,0.017104
2026-03-04T18:45:31.603748,-1.148554,-9.437292,3.369094,0.010995,-0.034208,0.015882
2026-03-04T18:45:31.613748,-1.225125,-9.485148,3.311666,0.008552,-0.036651,0.015882
2026-03-04T18:45:31.622748,-1.162911,-9.499505,3.287738,0.009773,-0.042760,0.017104
2026-03-04T18:45:31.632748,-1.138983,-9.504291,3.306880,0.013439,-0.042760,0.019547
2026-03-04T18:45:31.642748,-1.148554,-9.446863,3.287738,0.013439,-0.041538,0.019547
2026-03-04T18:45:31.651748,-1.129412,-9.485148,3.340380,0.008552,-0.042760,0.020769
2026-03-04T18:45:31.661748,-1.110269,-9.499505,3.321237,0.007330,-0.042760,0.023212
2026-03-04T18:45:31.671748,-1.153340,-9.480363,3.306880,0.008552,-0.042760,0.020769
2026-03-04T18:45:31.680748,-1.196411,-9.461220,3.306880,0.007330,-0.045204,0.019547
2026-03-04T18:45:31.690748,-1.119840,-9.456434,3.359522,0.010995,-0.045204,0.018325
2026-03-04T18:45:31.699748,-1.129412,-9.461220,3.345165,0.012217,-0.042760,0.018325
2026-03-04T18:45:31.709748,-1.134197,-9.456434,3.349951,0.013439,-0.040317,0.017104
2026-03-04T18:45:31.719748,-1.162911,-9.461220,3.268595,0.013439,-0.040317,0.019547
2026-03-04T18:45:31.728748,-1.172483,-9.470791,3.292523,0.009773,-0.042760,0.018325
2026-03-04T18:45:31.738748,-1.124626,-9.461220,3.354737,0.009773,-0.040317,0.021991
2026-03-04T18:45:31.747748,-1.129412,-9.499505,3.316452,0.010995,-0.039095,0.019547
2026-03-04T18:45:31.757748,-1.138983,-9.466006,3.287738,0.013439,-0.041538,0.018325
2026-03-04T18:45:31.767748,-1.091127,-9.456434,3.311666,0.018325,-0.045204,0.019547
2026-03-04T18:45:31.776748,-1.110269,-9.494720,3.335594,0.017104,-0.045204,0.020769
2026-03-04T18:45:31.786748,-1.110269,-9.470791,3.354737,0.017104,-0.042760,0.018325
2026-03-04T18:45:31.796748,-1.153340,-9.480363,3.292523,0.018325,-0.040317,0.015882
2026-03-04T18:45:31.805748,-1.119840,-9.470791,3.330809,0.019547,-0.042760,0.017104
2026-03-04T18:45:31.815748,-1.119840,-9.427721,3.354737,0.018325,-0.047647,0.020769
2026-03-04T18:45:31.824748,-1.119840,-9.470791,3.297309,0.014660,-0.043982,0.020769
2026-03-04T18:45:31.834748,-1.158126,-9.456434,3.321237,0.009773,-0.043982,0.017104
2026-03-04T18:45:31.844748,-1.124626,-9.461220,3.316452,0.007330,-0.045204,0.017104
2026-03-04T18:45:31.853748,-1.091127,-9.437292,3.321237,0.004886,-0.046425,0.017104
2026-03-04T18:45:31.863748,-1.071984,-9.518648,3.311666,0.006108,-0.041538,0.018325
2026-03-04T18:45:31.872748,-1.138983,-9.475577,3.316452,0.012217,-0.040317,0.015882
2026-03-04T18:45:31.882748,-1.115055,-9.480363,3.354737,0.013439,-0.041538,0.017104
2026-03-04T18:45:31.892748,-1.124626,-9.518648,3.359522,0.017104,-0.042760,0.018325
2026-03-04T18:45:31.901748,-1.119840,-9.509077,3.316452,0.012217,-0.041538,0.017104
2026-03-04T18:45:31.911748,-1.105484,-9.437292,3.259024,0.010995,-0.041538,0.020769
2026-03-04T18:45:31.921748,-1.172483,-9.537790,3.302095,0.007330,-0.043982,0.019547
2026-03-04T18:45:31.930748,-1.138983,-9.509077,3.287738,0.006108,-0.042760,0.019547
2026-03-04T18:45:31.940748,-1.138983,-9.480363,3.292523,0.002443,-0.043982,0.021991
2026-03-04T18:45:31.949748,-1.110269,-9.456434,3.282952,0.003665,-0.046425,0.020769
2026-03-04T18:45:31.959748,-1.105484,-9.480363,3.302095,0.007330,-0.045204,0.018325
2026-03-04T18:45:31.969748,-1.182054,-9.480363,3.292523,0.013439,-0.043982,0.018325
2026-03-04T18:45:31.978748,-1.110269,-9.504291,3.306880,0.018325,-0.045204,0.018325
2026-03-04T18:45:31.988748,-1.138983,-9.518648,3.297309,0.021991,-0.041538,0.015882
2026-03-04T18:45:31.997748,-1.182054,-9.528219,3.273381,0.028099,-0.045204,0.017104
2026-03-04T18:45:32.007748,-1.182054,-9.470791,3.306880,0.029321,-0.045204,0.017104
2026-03-04T18:45:32.017748,-1.124626,-9.480363,3.287738,0.026878,-0.043982,0.015882
2026-03-04T18:45:32.026748,-1.129412,-9.394221,3.330809,0.023212,-0.043982,0.017104
2026-03-04T18:45:32.036748,-1.167697,-9.446863,3.302095,0.020769,-0.042760,0.017104
2026-03-04T18:45:32.046748,-1.153340,-9.489934,3.321237,0.018325,-0.041538,0.014660
2026-03-04T18:45:32.055748,-1.153340,-9.499505,3.297309,0.020769,-0.045204,0.017104
2026-03-04T18:45:32.065748,-1.153340,-9.489934,3.259024,0.023212,-0.046425,0.019547
2026-03-04T18:45:32.074748,-1.100698,-9.466006,3.225524,0.026878,-0.046425,0.018325
2026-03-04T18:45:32.084748,-1.091127,-9.480363,3.235096,0.030543,-0.047647,0.019547
2026-03-04T18:45:32.094748,-1.119840,-9.499505,3.297309,0.037873,-0.048869,0.018325
2026-03-04T18:45:32.103748,-1.134197,-9.437292,3.321237,0.051312,-0.051312,0.015882
2026-03-04T18:45:32.113748,-1.134197,-9.509077,3.369094,0.036651,-0.048869,0.017104
2026-03-04T18:45:32.122748,-1.138983,-9.480363,3.378665,0.032986,-0.046425,0.018325
2026-03-04T18:45:32.132748,-1.110269,-9.399007,3.306880,0.031764,-0.046425,0.018325
2026-03-04T18:45:32.142748,-1.095912,-9.375078,3.340380,0.026878,-0.046425,0.018325
2026-03-04T18:45:32.151748,-1.162911,-9.466006,3.378665,0.020769,-0.046425,0.014660
2026-03-04T18:45:32.161748,-1.100698,-9.399007,3.373879,0.008552,-0.040317,0.014660
2026-03-04T18:45:32.171748,-1.115055,-9.461220,3.282952,0.008552,-0.036651,0.014660
2026-03-04T18:45:32.180748,-1.124626,-9.489934,3.244667,0.012217,-0.039095,0.014660
2026-03-04T18:45:32.190748,-1.119840,-9.442077,3.254238,0.017104,-0.042760,0.013439
2026-03-04T18:45:32.199748,-1.162911,-9.408578,3.354737,0.013439,-0.042760,0.017104
2026-03-04T18:45:32.209748,-1.172483,-9.461220,3.302095,0.010995,-0.042760,0.018325
2026-03-04T18:45:32.219748,-1.129412,-9.451649,3.287738,0.008552,-0.042760,0.019547
2026-03-04T18:45:32.228748,-1.162911,-9.451649,3.273381,0.007330,-0.043982,0.018325
2026-03-04T18:45:32.238748,-1.115055,-9.504291,3.268595,0.004886,-0.040317,0.020769
2026-03-04T18:45:32.247748,-1.129412,-9.494720,3.287738,0.012217,-0.039095,0.017104
2026-03-04T18:45:32.257748,-1.134197,-9.485148,3.311666,0.015882,-0.040317,0.015882
2026-03-04T18:45:32.267748,-1.105484,-9.451649,3.254238,0.021991,-0.042760,0.017104
2026-03-04T18:45:32.276748,-1.115055,-9.470791,3.311666,0.023212,-0.043982,0.018325
2026-03-04T18:45:32.286748,-1.105484,-9.489934,3.364308,0.021991,-0.045204,0.018325
2026-03-04T18:45:32.296748,-1.119840,-9.418149,3.316452,0.021991,-0.043982,0.018325
2026-03-04T18:45:32.305748,-1.105484,-9.422935,3.330809,0.017104,-0.041538,0.017104
2026-03-04T18:45:32.315748,-1.091127,-9.461220,3.316452,0.013439,-0.040317,0.015882
2026-03-04T18:45:32.324748,-1.153340,-9.470791,3.321237,0.012217,-0.039095,0.013439
2026-03-04T18:45:32.334748,-1.148554,-9.494720,3.259024,0.010995,-0.037873,0.014660
2026-03-04T18:45:32.344748,-1.143769,-9.523433,3.282952,0.015882,-0.041538,0.018325
2026-03-04T18:45:32.353748,-1.115055,-9.442077,3.273381,0.021991,-0.048869,0.020769
2026-03-04T18:45:32.363748,-1.105484,-9.456434,3.349951,0.018325,-0.043982,0.019547
2026-03-04T18:45:32.372748,-1.124626,-9.418149,3.306880,0.015882,-0.040317,0.018325
2026-03-04T18:45:32.382748,-1.100698,-9.437292,3.306880,0.018325,-0.041538,0.014660
2026-03-04T18:45:32.392748,-1.119840,-9.475577,3.292523,0.018325,-0.043982,0.014660
2026-03-04T18:45:32.401748,-1.081555,-9.475577,3.311666,0.018325,-0.042760,0.014660
2026-03-04T18:45:32.411748,-1.182054,-9.485148,3.297309,0.017104,-0.040317,0.015882
2026-03-04T18:45:32.421748,-1.182054,-9.480363,3.254238,0.019547,-0.039095,0.015882
2026-03-04T18:45:32.430748,-1.182054,-9.461220,3.345165,0.020769,-0.041538,0.013439
2026-03-04T18:45:32.440748,-1.134197,-9.451649,3.259024,0.021991,-0.042760,0.017104
2026-03-04T18:45:32.449748,-1.110269,-9.504291,3.354737,0.021991,-0.042760,0.015882
2026-03-04T18:45:32.459748,-1.105484,-9.475577,3.335594,0.021991,-0.041538,0.015882
2026-03-04T18:45:32.469748,-1.143769,-9.485148,3.287738,0.019547,-0.041538,0.014660
2026-03-04T18:45:32.478748,-1.095912,-9.499505,3.287738,0.019547,-0.043982,0.017104
2026-03-04T18:45:32.488748,-1.158126,-9.432506,3.263810,0.020769,-0.045204,0.015882
2026-03-04T18:45:32.497748,-1.143769,-9.475577,3.282952,0.019547,-0.043982,0.015882
2026-03-04T18:45:32.507748,-1.158126,-9.489934,3.335594,0.018325,-0.040317,0.015882
2026-03-04T18:45:32.517748,-1.067198,-9.451649,3.349951,0.017104,-0.041538,0.015882
2026-03-04T18:45:32.526748,-1.129412,-9.466006,3.349951,0.017104,-0.041538,0.017104
2026-03-04T18:45:32.536748,-1.143769,-9.485148,3.292523,0.017104,-0.041538,0.019547
2026-03-04T18:45:32.546748,-1.124626,-9.446863,3.278166,0.017104,-0.042760,0.018325
2026-03-04T18:45:32.555748,-1.124626,-9.446863,3.340380,0.021991,-0.041538,0.015882
2026-03-04T18:45:32.565748,-1.162911,-9.489934,3.292523,0.019547,-0.040317,0.015882
2026-03-04T18:45:32.574748,-1.158126,-9.466006,3.254238,0.017104,-0.041538,0.018325
2026-03-04T18:45:32.584748,-1.138983,-9.470791,3.282952,0.019547,-0.042760,0.017104
2026-03-04T18:45:32.594748,-1.138983,-9.432506,3.316452,0.023212,-0.042760,0.017104
2026-03-04T18:45:32.603748,-1.134197,-9.494720,3.330809,0.025656,-0.043982,0.015882
2026-03-04T18:45:32.613748,-1.153340,-9.432506,3.302095,0.024434,-0.043982,0.017104
2026-03-04T18:45:32.622748,-1.177268,-9.456434,3.292523,0.020769,-0.040317,0.015882
2026-03-04T18:45:32.632748,-1.124626,-9.427721,3.306880,0.021991,-0.040317,0.019547
2026-03-04T18:45:32.642748,-1.115055,-9.442077,3.273381,0.015882,-0.041538,0.015882
2026-03-04T18:45:32.651748,-1.196411,-9.470791,3.297309,0.013439,-0.041538,0.017104
2026-03-04T18:45:32.661748,-1.182054,-9.513862,3.249453,0.015882,-0.041538,0.020769
2026-03-04T18:45:32.671748,-1.138983,-9.494720,3.302095,0.023212,-0.042760,0.015882
2026-03-04T18:45:32.680748,-1.134197,-9.446863,3.302095,0.025656,-0.045204,0.015882
2026-03-04T18:45:32.690748,-1.119840,-9.485148,3.311666,0.023212,-0.042760,0.017104
2026-03-04T18:45:32.699748,-1.134197,-9.446863,3.282952,0.020769,-0.042760,0.017104
2026-03-04T18:45:32.709748,-1.148554,-9.499505,3.225524,0.018325,-0.045204,0.019547
2026-03-04T18:45:32.719748,-1.115055,-9.437292,3.287738,0.017104,-0.042760,0.018325
2026-03-04T18:45:32.728748,-1.110269,-9.451649,3.239881,0.017104,-0.041538,0.017104
2026-03-04T18:45:32.738748,-1.119840,-9.475577,3.287738,0.019547,-0.042760,0.017104
2026-03-04T18:45:32.747748,-1.138983,-9.461220,3.297309,0.017104,-0.043982,0.017104
2026-03-04T18:45:32.757748,-1.119840,-9.456434,3.302095,0.015882,-0.043982,0.017104
2026-03-04T18:45:32.767748,-1.134197,-9.446863,3.302095,0.012217,-0.041538,0.017104
2026-03-04T18:45:32.776748,-1.182054,-9.442077,3.311666,0.010995,-0.040317,0.017104
2026-03-04T18:45:32.786748,-1.186840,-9.485148,3.278166,0.008552,-0.042760,0.015882
2026-03-04T18:45:32.796748,-1.153340,-9.489934,3.330809,0.007330,-0.043982,0.020769
2026-03-04T18:45:32.805748,-1.086341,-9.461220,3.282952,0.004886,-0.042760,0.020769
2026-03-04T18:45:32.815748,-1.134197,-9.446863,3.201596,0.012217,-0.041538,0.018325
2026-03-04T18:45:32.824748,-1.124626,-9.504291,3.268595,0.015882,-0.042760,0.017104
2026-03-04T18:45:32.834748,-1.105484,-9.542576,3.259024,0.023212,-0.043982,0.017104
2026-03-04T18:45:32.844748,-1.134197,-9.456434,3.292523,0.024434,-0.043982,0.017104
2026-03-04T18:45:32.853748,-1.182054,-9.456434,3.297309,0.026878,-0.045204,0.015882
2026-03-04T18:45:32.863748,-1.086341,-9.427721,3.302095,0.024434,-0.047647,0.020769
2026-03-04T18:45:32.872748,-1.100698,-9.466006,3.287738,0.017104,-0.040317,0.015882
2026-03-04T18:45:32.882748,-1.110269,-9.422935,3.326023,0.014660,-0.041538,0.017104
2026-03-04T18:45:32.892748,-1.220339,-9.513862,3.311666,0.014660,-0.042760,0.018325
2026-03-04T18:45:32.901748,-1.167697,-9.461220,3.302095,0.015882,-0.045204,0.018325
2026-03-04T18:45:32.911748,-1.148554,-9.480363,3.302095,0.015882,-0.043982,0.018325
2026-03-04T18:45:32.921748,-1.124626,-9.446863,3.311666,0.013439,-0.041538,0.014660
2026-03-04T18:45:32.930748,-1.172483,-9.461220,3.259024,0.006108,-0.045204,0.012217
2026-03-04T18:45:32.940748,-1.119840,-9.542576,3.244667,0.004886,-0.043982,0.015882
2026-03-04T18:45:32.949748,-1.110269,-9.509077,3.268595,0.018325,-0.041538,0.014660
2026-03-04T18:45:32.959748,-1.138983,-9.509077,3.287738,0.024434,-0.041538,0.012217
2026-03-04T18:45:32.969748,-1.110269,-9.480363,3.249453,0.026878,-0.043982,0.014660
2026-03-04T18:45:32.978748,-1.119840,-9.475577,3.383451,0.030543,-0.045204,0.013439
2026-03-04T18:45:32.988748,-1.110269,-9.456434,3.321237,0.029321,-0.041538,0.012217
2026-03-04T18:45:32.997748,-1.177268,-9.489934,3.297309,0.020769,-0.039095,0.010995
2026-03-04T18:45:33.007748,-1.138983,-9.456434,3.326023,0.018325,-0.040317,0.013439
2026-03-04T18:45:33.017748,-1.138983,-9.470791,3.278166,0.019547,-0.043982,0.012217
2026-03-04T18:45:33.026748,-1.143769,-9.418149,3.335594,0.018325,-0.043982,0.015882
2026-03-04T18:45:33.036748,-1.138983,-9.442077,3.273381,0.013439,-0.041538,0.015882
2026-03-04T18:45:33.046748,-1.081555,-9.480363,3.249453,0.012217,-0.040317,0.015882
2026-03-04T18:45:33.055748,-1.191625,-9.504291,3.302095,0.014660,-0.041538,0.017104
2026-03-04T18:45:33.065748,-1.177268,-9.513862,3.278166,0.018325,-0.043982,0.018325
2026-03-04T18:45:33.074748,-1.086341,-9.518648,3.273381,0.023212,-0.043982,0.018325
2026-03-04T18:45:33.084748,-1.124626,-9.494720,3.273381,0.018325,-0.041538,0.013439
2026-03-04T18:45:33.094748,-1.167697,-9.485148,3.282952,0.014660,-0.040317,0.017104
2026-03-04T18:45:33.103748,-1.191625,-9.489934,3.201596,0.015882,-0.042760,0.018325
2026-03-04T18:45:33.113748,-1.153340,-9.518648,3.311666,0.018325,-0.046425,0.017104
2026-03-04T18:45:33.122748,-1.115055,-9.489934,3.311666,0.020769,-0.047647,0.018325
2026-03-04T18:45:33.132748,-1.052841,-9.480363,3.316452,0.021991,-0.046425,0.019547
2026-03-04T18:45:33.142748,-1.091127,-9.475577,3.321237,0.019547,-0.045204,0.014660
2026-03-04T18:45:33.151748,-1.105484,-9.437292,3.278166,0.015882,-0.042760,0.014660
2026-03-04T18:45:33.161748,-1.138983,-9.432506,3.249453,0.009773,-0.039095,0.017104
2026-03-04T18:45:33.171748,-1.158126,-9.485148,3.282952,0.009773,-0.037873,0.015882
2026-03-04T18:45:33.180748,-1.158126,-9.494720,3.287738,0.015882,-0.042760,0.018325
2026-03-04T18:45:33.190748,-1.138983,-9.513862,3.316452,0.021991,-0.047647,0.017104
2026-03-04T18:45:33.199748,-1.052841,-9.489934,3.292523,0.026878,-0.045204,0.017104
2026-03-04T18:45:33.209748,-1.110269,-9.480363,3.297309,0.023212,-0.042760,0.014660
2026-03-04T18:45:33.219748,-1.158126,-9.509077,3.297309,0.017104,-0.041538,0.014660
2026-03-04T18:45:33.228748,-1.086341,-9.485148,3.206382,0.024434,-0.042760,0.010995
2026-03-04T18:45:33.238748,-1.076770,-9.528219,3.215953,0.029321,-0.040317,0.010995
2026-03-04T18:45:33.247748,-1.153340,-9.552147,3.263810,0.037873,-0.039095,0.009773
2026-03-04T18:45:33.257748,-1.095912,-9.509077,3.345165,0.041538,-0.040317,0.006108
2026-03-04T18:45:33.267748,-1.119840,-9.451649,3.282952,0.056199,-0.040317,0.004886
2026-03-04T18:45:33.276748,-1.229910,-9.418149,3.321237,0.037873,-0.039095,0.014660
2026-03-04T18:45:33.286748,-1.148554,-9.351150,3.670589,0.039095,-0.052534,0.015882
2026-03-04T18:45:33.296748,-0.937986,-9.351150,3.517449,0.020769,-0.040317,0.012217
2026-03-04T18:45:33.305748,-0.957129,-9.303294,3.316452,-0.008552,-0.023212,0.008552
2026-03-04T18:45:33.315748,-1.177268,-9.427721,3.244667,-0.020769,-0.018325,0.004886
2026-03-04T18:45:33.324748,-1.268195,-9.475577,3.230310,-0.035430,-0.024434,0.006108
2026-03-04T18:45:33.334748,-1.296909,-9.662217,3.144168,-0.032986,-0.028099,0.012217
2026-03-04T18:45:33.344748,-1.263410,-9.652646,3.096312,-0.013439,-0.036651,0.019547
2026-03-04T18:45:33.353748,-1.148554,-9.580861,3.048455,0.023212,-0.046425,0.019547
2026-03-04T18:45:33.363748,-1.115055,-9.542576,3.244667,0.039095,-0.056199,0.019547
2026-03-04T18:45:33.372748,-1.100698,-9.446863,3.302095,0.035430,-0.054977,0.021991
2026-03-04T18:45:33.382748,-1.110269,-9.394221,3.378665,0.030543,-0.046425,0.020769
2026-03-04T18:45:33.392748,-1.110269,-9.466006,3.407379,0.028099,-0.047647,0.018325
2026-03-04T18:45:33.401748,-1.162911,-9.451649,3.383451,0.026878,-0.047647,0.018325
2026-03-04T18:45:33.411748,-1.124626,-9.432506,3.421736,0.019547,-0.041538,0.015882
2026-03-04T18:45:33.421748,-1.119840,-9.456434,3.340380,0.013439,-0.039095,0.014660
2026-03-04T18:45:33.430748,-1.148554,-9.451649,3.297309,0.004886,-0.032986,0.013439
2026-03-04T18:45:33.440748,-1.086341,-9.442077,3.235096,0.001221,-0.031764,0.015882
2026-03-04T18:45:33.449748,-1.138983,-9.456434,3.254238,-0.003665,-0.035430,0.017104
2026-03-04T18:45:33.459748,-1.172483,-9.442077,3.306880,-0.017104,-0.042760,0.020769
2026-03-04T18:45:33.469748,-1.071984,-9.485148,3.239881,-0.020769,-0.042760,0.020769
2026-03-04T18:45:33.478748,-1.071984,-9.470791,3.330809,-0.010995,-0.040317,0.020769
2026-03-04T18:45:33.488748,-1.162911,-9.432506,3.215953,-0.017104,-0.037873,0.018325
2026-03-04T18:45:33.497748,-1.095912,-9.470791,3.292523,-0.018325,-0.037873,0.018325
2026-03-04T18:45:33.507748,-1.124626,-9.499505,3.287738,-0.020769,-0.039095,0.017104
2026-03-04T18:45:33.517748,-1.095912,-9.480363,3.254238,-0.015882,-0.039095,0.019547
2026-03-04T18:45:33.526748,-1.091127,-9.480363,3.120240,-0.008552,-0.039095,0.023212
2026-03-04T18:45:33.536748,-1.110269,-9.480363,3.215953,-0.009773,-0.042760,0.020769
2026-03-04T18:45:33.546748,-1.105484,-9.437292,3.302095,-0.023212,-0.040317,0.024434
2026-03-04T18:45:33.555748,-1.081555,-9.494720,3.297309,-0.028099,-0.037873,0.023212
2026-03-04T18:45:33.565748,-1.148554,-9.504291,3.249453,-0.047647,-0.030543,0.024434
2026-03-04T18:45:33.574748,-1.091127,-9.533005,3.306880,-0.041538,-0.028099,0.023212
2026-03-04T18:45:33.584748,-1.119840,-9.509077,3.225524,-0.037873,-0.034208,0.023212
2026-03-04T18:45:33.594748,-1.158126,-9.509077,3.278166,-0.026878,-0.032986,0.020769
2026-03-04T18:45:33.603748,-1.186840,-9.456434,3.273381,-0.023212,-0.032986,0.018325
2026-03-04T18:45:33.613748,-1.105484,-9.422935,3.259024,-0.031764,-0.034208,0.020769
2026-03-04T18:45:33.622748,-1.115055,-9.480363,3.230310,-0.037873,-0.031764,0.019547
2026-03-04T18:45:33.632748,-1.115055,-9.470791,3.129811,-0.034208,-0.032986,0.020769
2026-03-04T18:45:33.642748,-1.162911,-9.523433,3.172882,-0.029321,-0.037873,0.018325
2026-03-04T18:45:33.651748,-1.177268,-9.623932,3.053241,-0.020769,-0.039095,0.020769
2026-03-04T18:45:33.661748,-1.148554,-9.623932,3.024527,0.001221,-0.039095,0.020769
2026-03-04T18:45:33.671748,-1.210768,-9.533005,3.192025,0.024434,-0.046425,0.015882
2026-03-04T18:45:33.680748,-1.119840,-9.470791,3.158525,0.025656,-0.059864,0.014660
2026-03-04T18:45:33.690748,-1.033699,-9.556933,3.292523,0.019547,-0.051312,0.019547
2026-03-04T18:45:33.699748,-1.038485,-9.466006,3.273381,0.010995,-0.032986,0.018325
2026-03-04T18:45:33.709748,-1.153340,-9.451649,3.230310,-0.003665,-0.026878,0.014660
2026-03-04T18:45:33.719748,-1.215553,-9.456434,3.230310,-0.009773,-0.034208,0.015882
2026-03-04T18:45:33.728748,-1.148554,-9.413364,3.340380,-0.019547,-0.040317,0.018325
2026-03-04T18:45:33.738748,-1.129412,-9.427721,3.254238,-0.039095,-0.039095,0.020769
2026-03-04T18:45:33.747748,-1.196411,-9.446863,3.158525,-0.050090,-0.035430,0.019547
2026-03-04T18:45:33.757748,-1.186840,-9.537790,3.110669,-0.051312,-0.035430,0.017104
2026-03-04T18:45:33.767748,-1.138983,-9.547362,3.148954,-0.058643,-0.036651,0.024434
2026-03-04T18:45:33.776748,-1.182054,-9.489934,3.086741,-0.046425,-0.034208,0.021991
2026-03-04T18:45:33.786748,-1.162911,-9.513862,3.139383,-0.047647,-0.035430,0.020769
2026-03-04T18:45:33.796748,-1.100698,-9.489934,3.115455,-0.048869,-0.041538,0.023212
2026-03-04T18:45:33.805748,-1.081555,-9.475577,3.129811,-0.048869,-0.040317,0.023212
2026-03-04T18:45:33.815748,-1.119840,-9.480363,3.139383,-0.051312,-0.034208,0.020769
2026-03-04T18:45:33.824748,-1.158126,-9.585647,3.105883,-0.061086,-0.035430,0.021991
2026-03-04T18:45:33.834748,-1.205982,-9.590432,3.043670,-0.053756,-0.037873,0.019547
2026-03-04T18:45:33.844748,-1.177268,-9.552147,3.029313,-0.037873,-0.043982,0.020769
2026-03-04T18:45:33.853748,-1.138983,-9.537790,3.086741,-0.026878,-0.046425,0.015882
2026-03-04T18:45:33.863748,-1.167697,-9.576076,3.058027,-0.018325,-0.051312,0.015882
2026-03-04T18:45:33.872748,-1.124626,-9.566504,3.077169,-0.014660,-0.048869,0.017104
2026-03-04T18:45:33.882748,-1.105484,-9.566504,3.062812,-0.014660,-0.051312,0.017104
2026-03-04T18:45:33.892748,-1.124626,-9.571290,3.134597,-0.004886,-0.048869,0.014660
2026-03-04T18:45:33.901748,-1.153340,-9.585647,3.081955,0.002443,-0.046425,0.018325
2026-03-04T18:45:33.911748,-1.148554,-9.576076,3.038884,0.010995,-0.046425,0.018325
2026-03-04T18:45:33.921748,-1.129412,-9.552147,3.163311,0.020769,-0.046425,0.018325
2026-03-04T18:45:33.930748,-1.115055,-9.513862,3.081955,0.021991,-0.045204,0.020769
2026-03-04T18:45:33.940748,-1.110269,-9.489934,3.101098,0.015882,-0.043982,0.017104
2026-03-04T18:45:33.949748,-1.124626,-9.518648,3.062812,0.008552,-0.043982,0.018325
2026-03-04T18:45:33.959748,-1.153340,-9.489934,3.077169,0.002443,-0.043982,0.018325
2026-03-04T18:45:33.969748,-1.153340,-9.590432,3.024527,0.009773,-0.043982,0.015882
2026-03-04T18:45:33.978748,-1.148554,-9.552147,3.048455,0.019547,-0.042760,0.018325
2026-03-04T18:45:33.988748,-1.191625,-9.595218,3.058027,0.024434,-0.047647,0.018325
2026-03-04T18:45:33.997748,-1.162911,-9.509077,3.115455,0.025656,-0.048869,0.018325
2026-03-04T18:45:34.007748,-1.115055,-9.475577,3.086741,0.020769,-0.045204,0.017104
2026-03-04T18:45:34.017748,-1.210768,-9.504291,3.134597,0.017104,-0.046425,0.019547
2026-03-04T18:45:34.026748,-1.110269,-9.542576,3.163311,0.007330,-0.045204,0.021991
2026-03-04T18:45:34.036748,-1.134197,-9.528219,3.120240,0.004886,-0.041538,0.018325
2026-03-04T18:45:34.046748,-1.148554,-9.533005,3.177668,0.006108,-0.041538,0.018325
2026-03-04T18:45:34.055748,-1.182054,-9.509077,3.144168,0.006108,-0.043982,0.017104
2026-03-04T18:45:34.065748,-1.138983,-9.537790,3.048455,0.008552,-0.043982,0.015882
2026-03-04T18:45:34.074748,-1.110269,-9.518648,3.058027,0.008552,-0.045204,0.014660
2026-03-04T18:45:34.084748,-1.067198,-9.566504,3.058027,0.006108,-0.043982,0.014660
2026-03-04T18:45:34.094748,-1.110269,-9.590432,3.019742,0.006108,-0.042760,0.017104
2026-03-04T18:45:34.103748,-1.172483,-9.623932,3.024527,0.014660,-0.037873,0.018325
2026-03-04T18:45:34.113748,-1.172483,-9.566504,2.967100,0.021991,-0.041538,0.019547
2026-03-04T18:45:34.122748,-1.153340,-9.528219,3.029313,0.031764,-0.050090,0.024434
2026-03-04T18:45:34.132748,-1.134197,-9.518648,3.148954,0.037873,-0.051312,0.024434
2026-03-04T18:45:34.142748,-1.162911,-9.475577,3.196810,0.031764,-0.045204,0.019547
2026-03-04T18:45:34.151748,-1.167697,-9.466006,3.125026,0.024434,-0.040317,0.018325
2026-03-04T18:45:34.161748,-1.177268,-9.494720,3.105883,0.018325,-0.039095,0.015882
2026-03-04T18:45:34.171748,-1.129412,-9.542576,3.062812,0.014660,-0.040317,0.015882
2026-03-04T18:45:34.180748,-1.134197,-9.580861,3.086741,0.014660,-0.042760,0.017104
2026-03-04T18:45:34.190748,-1.167697,-9.528219,3.105883,0.020769,-0.043982,0.018325
2026-03-04T18:45:34.199748,-1.225125,-9.485148,3.058027,0.019547,-0.045204,0.017104
2026-03-04T18:45:34.209748,-1.196411,-9.537790,3.086741,0.018325,-0.047647,0.019547
2026-03-04T18:45:34.219748,-1.182054,-9.518648,3.091526,0.019547,-0.043982,0.017104
2026-03-04T18:45:34.228748,-1.124626,-9.499505,3.043670,0.018325,-0.041538,0.015882
2026-03-04T18:45:34.238748,-1.143769,-9.518648,3.034099,0.021991,-0.043982,0.014660
2026-03-04T18:45:34.247748,-1.177268,-9.609575,3.134597,0.024434,-0.045204,0.018325
2026-03-04T18:45:34.257748,-1.100698,-9.504291,3.091526,0.021991,-0.042760,0.017104
2026-03-04T18:45:34.267748,-1.191625,-9.494720,3.101098,0.018325,-0.045204,0.018325
2026-03-04T18:45:34.276748,-1.186840,-9.489934,3.077169,0.013439,-0.045204,0.019547
2026-03-04T18:45:34.286748,-1.138983,-9.542576,3.153740,0.007330,-0.045204,0.021991
2026-03-04T18:45:34.296748,-1.081555,-9.528219,3.077169,0.006108,-0.041538,0.020769
2026-03-04T18:45:34.305748,-1.115055,-9.580861,3.072384,0.007330,-0.041538,0.019547
2026-03-04T18:45:34.315748,-1.138983,-9.528219,3.105883,0.010995,-0.043982,0.020769
2026-03-04T18:45:34.324748,-1.134197,-9.580861,3.072384,0.012217,-0.042760,0.018325
2026-03-04T18:45:34.334748,-1.100698,-9.552147,3.096312,0.013439,-0.039095,0.014660
2026-03-04T18:45:34.344748,-1.119840,-9.547362,3.062812,0.012217,-0.039095,0.015882
2026-03-04T18:45:34.353748,-1.138983,-9.513862,3.038884,0.012217,-0.039095,0.013439
2026-03-04T18:45:34.363748,-1.124626,-9.552147,3.048455,0.012217,-0.039095,0.014660
2026-03-04T18:45:34.372748,-1.205982,-9.561719,3.053241,0.018325,-0.041538,0.015882
2026-03-04T18:45:34.382748,-1.162911,-9.518648,3.058027,0.026878,-0.045204,0.015882
2026-03-04T18:45:34.392748,-1.210768,-9.561719,3.043670,0.025656,-0.045204,0.014660
2026-03-04T18:45:34.401748,-1.129412,-9.509077,3.077169,0.026878,-0.043982,0.015882
2026-03-04T18:45:34.411748,-1.158126,-9.504291,3.086741,0.024434,-0.043982,0.018325
2026-03-04T18:45:34.421748,-1.182054,-9.513862,3.077169,0.019547,-0.043982,0.018325
2026-03-04T18:45:34.430748,-1.138983,-9.518648,3.096312,0.014660,-0.043982,0.017104
2026-03-04T18:45:34.440748,-1.110269,-9.509077,3.120240,0.018325,-0.042760,0.018325
2026-03-04T18:45:34.449748,-1.167697,-9.542576,3.101098,0.020769,-0.043982,0.017104
2026-03-04T18:45:34.459748,-1.186840,-9.528219,3.048455,0.019547,-0.040317,0.013439
2026-03-04T18:45:34.469748,-1.129412,-9.528219,3.115455,0.018325,-0.040317,0.013439
2026-03-04T18:45:34.478748,-1.124626,-9.494720,3.081955,0.019547,-0.042760,0.015882
2026-03-04T18:45:34.488748,-1.148554,-9.556933,3.115455,0.019547,-0.041538,0.015882
2026-03-04T18:45:34.497748,-1.129412,-9.547362,3.043670,0.017104,-0.041538,0.013439
2026-03-04T18:45:34.507748,-1.148554,-9.633503,3.091526,0.019547,-0.040317,0.012217
2026-03-04T18:45:34.517748,-1.186840,-9.595218,3.000599,0.020769,-0.040317,0.012217
2026-03-04T18:45:34.526748,-1.134197,-9.533005,3.043670,0.031764,-0.042760,0.013439
2026-03-04T18:45:34.536748,-1.186840,-9.561719,3.163311,0.039095,-0.046425,0.014660
2026-03-04T18:45:34.546748,-1.129412,-9.485148,3.105883,0.037873,-0.043982,0.015882
2026-03-04T18:45:34.555748,-1.148554,-9.480363,3.182454,0.028099,-0.041538,0.017104
2026-03-04T18:45:34.565748,-1.210768,-9.499505,3.120240,0.018325,-0.039095,0.018325
2026-03-04T18:45:34.574748,-1.225125,-9.556933,3.115455,0.013439,-0.039095,0.015882
2026-03-04T18:45:34.584748,-1.162911,-9.537790,3.101098,0.008552,-0.041538,0.015882
2026-03-04T18:45:34.594748,-1.134197,-9.537790,3.096312,0.008552,-0.042760,0.015882
2026-03-04T18:45:34.603748,-1.177268,-9.561719,3.062812,0.009773,-0.042760,0.015882
2026-03-04T18:45:34.613748,-1.148554,-9.537790,2.957528,0.009773,-0.042760,0.015882
2026-03-04T18:45:34.622748,-1.162911,-9.576076,3.072384,0.010995,-0.041538,0.017104
2026-03-04T18:45:34.632748,-1.191625,-9.585647,3.034099,0.017104,-0.041538,0.017104
2026-03-04T18:45:34.642748,-1.138983,-9.609575,3.010170,0.025656,-0.041538,0.015882
2026-03-04T18:45:34.651748,-1.158126,-9.528219,3.053241,0.032986,-0.043982,0.018325
2026-03-04T18:45:34.661748,-1.115055,-9.537790,3.062812,0.034208,-0.046425,0.015882
2026-03-04T18:45:34.671748,-1.119840,-9.499505,3.110669,0.028099,-0.043982,0.017104
2026-03-04T18:45:34.680748,-1.134197,-9.480363,3.091526,0.020769,-0.041538,0.018325
2026-03-04T18:45:34.690748,-1.201196,-9.499505,3.072384,0.009773,-0.043982,0.021991
2026-03-04T18:45:34.699748,-1.229910,-9.485148,3.110669,0.004886,-0.043982,0.019547
2026-03-04T18:45:34.709748,-1.105484,-9.556933,3.091526,0.000000,-0.039095,0.020769
2026-03-04T18:45:34.719748,-1.115055,-9.552147,3.091526,-0.002443,-0.037873,0.024434
2026-03-04T18:45:34.728748,-1.081555,-9.533005,3.144168,0.003665,-0.042760,0.025656
2026-03-04T18:45:34.738748,-1.119840,-9.585647,3.101098,0.007330,-0.042760,0.025656
2026-03-04T18:45:34.747748,-1.172483,-9.537790,3.096312,0.007330,-0.036651,0.021991
2026-03-04T18:45:34.757748,-1.191625,-9.528219,3.053241,0.003665,-0.034208,0.019547
2026-03-04T18:45:34.767748,-1.138983,-9.547362,3.048455,0.006108,-0.040317,0.014660
2026-03-04T18:45:34.776748,-1.081555,-9.480363,3.096312,0.002443,-0.041538,0.015882
2026-03-04T18:45:34.786748,-1.119840,-9.576076,3.024527,-0.001221,-0.037873,0.017104
2026-03-04T18:45:34.796748,-1.138983,-9.566504,2.976671,0.000000,-0.035430,0.014660
2026-03-04T18:45:34.805748,-1.172483,-9.600004,2.986242,0.006108,-0.039095,0.010995
2026-03-04T18:45:34.815748,-1.186840,-9.585647,3.019742,0.008552,-0.056199,0.010995
2026-03-04T18:45:34.824748,-1.019342,-9.600004,3.081955,0.024434,-0.050090,0.015882
2026-03-04T18:45:34.834748,-1.177268,-9.523433,3.196810,0.029321,-0.037873,0.015882
2026-03-04T18:45:34.844748,-1.220339,-9.432506,3.043670,0.013439,-0.030543,0.009773
2026-03-04T18:45:34.853748,-1.258624,-9.499505,3.043670,0.010995,-0.040317,0.013439
2026-03-04T18:45:34.863748,-1.167697,-9.542576,3.081955,0.004886,-0.052534,0.012217
2026-03-04T18:45:34.872748,-1.100698,-9.595218,3.019742,0.000000,-0.050090,0.014660
2026-03-04T18:45:34.882748,-1.129412,-9.590432,3.019742,0.010995,-0.040317,0.015882
2026-03-04T18:45:34.892748,-1.162911,-9.552147,3.034099,0.014660,-0.041538,0.015882
2026-03-04T18:45:34.901748,-1.186840,-9.499505,3.072384,0.009773,-0.046425,0.017104
2026-03-04T18:45:34.911748,-1.129412,-9.533005,3.038884,0.009773,-0.050090,0.013439
2026-03-04T18:45:34.921748,-1.091127,-9.542576,3.134597,0.008552,-0.046425,0.013439
2026-03-04T18:45:34.930748,-1.138983,-9.513862,3.153740,0.006108,-0.037873,0.013439
2026-03-04T18:45:34.940748,-1.201196,-9.533005,3.062812,-0.013439,-0.035430,0.013439
2026-03-04T18:45:34.949748,-1.167697,-9.518648,3.058027,-0.019547,-0.041538,0.015882
2026-03-04T18:45:34.959748,-1.067198,-9.533005,3.029313,-0.025656,-0.043982,0.019547
2026-03-04T18:45:34.969748,-1.105484,-9.485148,3.058027,-0.036651,-0.037873,0.015882
2026-03-04T18:45:34.978748,-1.043270,-9.518648,3.110669,-0.037873,-0.034208,0.015882
2026-03-04T18:45:34.988748,-1.143769,-9.595218,3.081955,-0.043982,-0.029321,0.014660
2026-03-04T18:45:34.997748,-1.105484,-9.528219,3.096312,-0.056199,-0.028099,0.018325
2026-03-04T18:45:35.007748,-1.182054,-9.475577,3.110669,-0.059864,-0.029321,0.019547
2026-03-04T18:45:35.017748,-1.143769,-9.552147,3.058027,-0.074525,-0.028099,0.015882
2026-03-04T18:45:35.026748,-1.172483,-9.571290,3.034099,-0.078190,-0.028099,0.019547
2026-03-04T18:45:35.036748,-1.172483,-9.518648,2.962314,-0.070860,-0.030543,0.021991
2026-03-04T18:45:35.046748,-1.177268,-9.528219,3.043670,-0.086742,-0.030543,0.018325
2026-03-04T18:45:35.055748,-1.186840,-9.494720,3.019742,-0.090408,-0.032986,0.024434
2026-03-04T18:45:35.065748,-1.210768,-9.533005,2.957528,-0.100181,-0.026878,0.024434
2026-03-04T18:45:35.074748,-1.167697,-9.609575,2.947957,-0.096516,-0.023212,0.021991
2026-03-04T18:45:35.084748,-1.148554,-9.633503,2.957528,-0.096516,-0.024434,0.023212
2026-03-04T18:45:35.094748,-1.210768,-9.595218,2.914457,-0.091629,-0.030543,0.024434
2026-03-04T18:45:35.103748,-1.191625,-9.499505,2.933600,-0.094073,-0.037873,0.026878
2026-03-04T18:45:35.113748,-1.215553,-9.537790,2.914457,-0.112399,-0.040317,0.026878
2026-03-04T18:45:35.122748,-1.100698,-9.504291,2.986242,-0.123394,-0.036651,0.030543
2026-03-04T18:45:35.132748,-1.038485,-9.619146,3.005385,-0.130725,-0.019547,0.031764
2026-03-04T18:45:35.142748,-1.043270,-9.537790,3.010170,-0.139277,-0.007330,0.028099
2026-03-04T18:45:35.151748,-1.225125,-9.638289,2.813959,-0.145385,0.001221,0.026878
2026-03-04T18:45:35.161748,-1.220339,-9.690931,2.756531,-0.124616,-0.007330,0.025656
2026-03-04T18:45:35.171748,-1.234696,-9.667003,2.809173,-0.108733,-0.019547,0.023212
2026-03-04T18:45:35.180748,-1.210768,-9.729216,2.703889,-0.102625,-0.023212,0.023212
2026-03-04T18:45:35.190748,-1.196411,-9.743573,2.627319,-0.073303,-0.025656,0.018325
2026-03-04T18:45:35.199748,-1.215553,-9.690931,2.708675,-0.046425,-0.026878,0.018325
2026-03-04T18:45:35.209748,-1.263410,-9.662217,2.723032,-0.037873,-0.031764,0.018325
2026-03-04T18:45:35.219748,-1.167697,-9.667003,2.689532,-0.025656,-0.037873,0.019547
2026-03-04T18:45:35.228748,-1.182054,-9.686145,2.699103,-0.015882,-0.032986,0.024434
2026-03-04T18:45:35.238748,-1.177268,-9.705288,2.646461,-0.002443,-0.032986,0.018325
2026-03-04T18:45:35.247748,-1.244267,-9.681360,2.684746,0.019547,-0.041538,0.019547
2026-03-04T18:45:35.257748,-1.225125,-9.638289,2.813959,0.037873,-0.047647,0.023212
2026-03-04T18:45:35.267748,-1.229910,-9.585647,2.895315,0.043982,-0.051312,0.020769
2026-03-04T18:45:35.276748,-1.129412,-9.619146,2.746960,0.039095,-0.046425,0.019547
2026-03-04T18:45:35.286748,-1.143769,-9.638289,2.746960,0.041538,-0.045204,0.018325
2026-03-04T18:45:35.296748,-1.153340,-9.643075,2.718246,0.043982,-0.043982,0.015882
2026-03-04T18:45:35.305748,-1.191625,-9.609575,2.804388,0.046425,-0.043982,0.019547
2026-03-04T18:45:35.315748,-1.182054,-9.566504,2.900100,0.047647,-0.045204,0.018325
2026-03-04T18:45:35.324748,-1.205982,-9.499505,2.885744,0.037873,-0.045204,0.017104
2026-03-04T18:45:35.334748,-1.201196,-9.547362,2.924029,0.024434,-0.042760,0.015882
2026-03-04T18:45:35.344748,-1.191625,-9.566504,2.866601,0.007330,-0.039095,0.015882
2026-03-04T18:45:35.353748,-1.225125,-9.600004,2.833101,-0.001221,-0.036651,0.014660
2026-03-04T18:45:35.363748,-1.167697,-9.600004,2.857030,-0.004886,-0.040317,0.017104
2026-03-04T18:45:35.372748,-1.162911,-9.571290,2.785245,-0.003665,-0.040317,0.017104
2026-03-04T18:45:35.382748,-1.143769,-9.647860,2.833101,-0.002443,-0.040317,0.015882
2026-03-04T18:45:35.392748,-1.177268,-9.614361,2.756531,0.003665,-0.040317,0.017104
2026-03-04T18:45:35.401748,-1.100698,-9.657432,2.785245,0.003665,-0.039095,0.013439
2026-03-04T18:45:35.411748,-1.186840,-9.695717,2.761317,0.013439,-0.040317,0.014660
2026-03-04T18:45:35.421748,-1.148554,-9.623932,2.770888,0.019547,-0.041538,0.014660
2026-03-04T18:45:35.430748,-1.196411,-9.681360,2.799602,0.015882,-0.042760,0.014660
2026-03-04T18:45:35.440748,-1.162911,-9.614361,2.761317,0.021991,-0.045204,0.018325
2026-03-04T18:45:35.449748,-1.205982,-9.609575,2.823530,0.020769,-0.043982,0.017104
2026-03-04T18:45:35.459748,-1.191625,-9.576076,2.818745,0.007330,-0.041538,0.018325
2026-03-04T18:45:35.469748,-1.196411,-9.509077,2.900100,-0.015882,-0.040317,0.023212
2026-03-04T18:45:35.478748,-1.115055,-9.609575,2.880958,-0.045204,-0.032986,0.019547
2026-03-04T18:45:35.488748,-1.124626,-9.614361,2.852244,-0.056199,-0.023212,0.020769
2026-03-04T18:45:35.497748,-1.153340,-9.676574,2.809173,-0.054977,-0.023212,0.024434
2026-03-04T18:45:35.507748,-1.225125,-9.643075,2.756531,-0.026878,-0.026878,0.019547
2026-03-04T18:45:35.517748,-1.143769,-9.676574,2.703889,-0.015882,-0.032986,0.019547
2026-03-04T18:45:35.526748,-1.201196,-9.690931,2.632104,0.007330,-0.032986,0.017104
2026-03-04T18:45:35.536748,-1.220339,-9.609575,2.694318,0.020769,-0.037873,0.013439
2026-03-04T18:45:35.546748,-1.167697,-9.647860,2.670390,0.028099,-0.040317,0.014660
2026-03-04T18:45:35.555748,-1.225125,-9.633503,2.689532,0.036651,-0.041538,0.013439
2026-03-04T18:45:35.565748,-1.258624,-9.676574,2.694318,0.039095,-0.043982,0.013439
2026-03-04T18:45:35.574748,-1.220339,-9.681360,2.651247,0.036651,-0.048869,0.015882
2026-03-04T18:45:35.584748,-1.205982,-9.652646,2.699103,0.043982,-0.050090,0.017104
2026-03-04T18:45:35.594748,-1.129412,-9.652646,2.723032,0.051312,-0.050090,0.017104
2026-03-04T18:45:35.603748,-1.177268,-9.619146,2.818745,0.054977,-0.050090,0.017104
2026-03-04T18:45:35.613748,-1.186840,-9.513862,2.928814,0.053756,-0.048869,0.017104
2026-03-04T18:45:35.622748,-1.162911,-9.580861,2.876172,0.041538,-0.048869,0.019547
2026-03-04T18:45:35.632748,-1.138983,-9.566504,2.842673,0.026878,-0.040317,0.018325
2026-03-04T18:45:35.642748,-1.220339,-9.547362,2.871387,0.020769,-0.036651,0.014660
2026-03-04T18:45:35.651748,-1.282552,-9.585647,2.818745,0.017104,-0.041538,0.014660
2026-03-04T18:45:35.661748,-1.162911,-9.595218,2.780459,0.015882,-0.041538,0.014660
2026-03-04T18:45:35.671748,-1.153340,-9.576076,2.723032,0.017104,-0.042760,0.015882
2026-03-04T18:45:35.680748,-1.167697,-9.609575,2.818745,0.004886,-0.041538,0.015882
2026-03-04T18:45:35.690748,-1.201196,-9.571290,2.847458,-0.003665,-0.040317,0.014660
2026-03-04T18:45:35.699748,-1.210768,-9.619146,2.742174,-0.006108,-0.037873,0.015882
2026-03-04T18:45:35.709748,-1.229910,-9.628718,2.775674,0.002443,-0.036651,0.015882
2026-03-04T18:45:35.719748,-1.244267,-9.652646,2.809173,0.008552,-0.041538,0.015882
2026-03-04T18:45:35.728748,-1.158126,-9.690931,2.756531,0.013439,-0.047647,0.015882
2026-03-04T18:45:35.738748,-1.134197,-9.623932,2.732603,0.024434,-0.047647,0.014660
2026-03-04T18:45:35.747748,-1.091127,-9.604789,2.737389,0.029321,-0.047647,0.018325
2026-03-04T18:45:35.757748,-1.158126,-9.638289,2.799602,0.025656,-0.041538,0.014660
2026-03-04T18:45:35.767748,-1.210768,-9.647860,2.761317,0.021991,-0.040317,0.015882
2026-03-04T18:45:35.776748,-1.196411,-9.609575,2.708675,0.019547,-0.039095,0.017104
2026-03-04T18:45:35.786748,-1.234696,-9.619146,2.766102,0.021991,-0.042760,0.018325
2026-03-04T18:45:35.796748,-1.201196,-9.604789,2.842673,0.024434,-0.047647,0.019547
2026-03-04T18:45:35.805748,-1.196411,-9.595218,2.866601,0.018325,-0.048869,0.019547
2026-03-04T18:45:35.815748,-1.153340,-9.590432,2.823530,0.009773,-0.042760,0.018325
2026-03-04T18:45:35.824748,-1.134197,-9.614361,2.809173,0.002443,-0.036651,0.015882
2026-03-04T18:45:35.834748,-1.182054,-9.609575,2.775674,0.001221,-0.034208,0.015882
2026-03-04T18:45:35.844748,-1.210768,-9.667003,2.775674,0.007330,-0.036651,0.015882
2026-03-04T18:45:35.853748,-1.225125,-9.633503,2.742174,0.012217,-0.039095,0.017104
2026-03-04T18:45:35.863748,-1.239482,-9.600004,2.785245,0.014660,-0.042760,0.018325
2026-03-04T18:45:35.872748,-1.177268,-9.643075,2.780459,0.019547,-0.042760,0.017104
2026-03-04T18:45:35.882748,-1.229910,-9.643075,2.694318,0.021991,-0.042760,0.015882
2026-03-04T18:45:35.892748,-1.167697,-9.667003,2.737389,0.024434,-0.041538,0.014660
2026-03-04T18:45:35.901748,-1.182054,-9.638289,2.770888,0.024434,-0.043982,0.015882
2026-03-04T18:45:35.911748,-1.148554,-9.643075,2.727817,0.028099,-0.042760,0.014660
2026-03-04T18:45:35.921748,-1.186840,-9.638289,2.790031,0.030543,-0.045204,0.017104
2026-03-04T18:45:35.930748,-1.138983,-9.638289,2.804388,0.030543,-0.047647,0.015882
2026-03-04T18:45:35.940748,-1.196411,-9.585647,2.828316,0.025656,-0.047647,0.017104
2026-03-04T18:45:35.949748,-1.220339,-9.623932,2.828316,0.023212,-0.045204,0.018325
2026-03-04T18:45:35.959748,-1.186840,-9.623932,2.775674,0.023212,-0.042760,0.018325
2026-03-04T18:45:35.969748,-1.186840,-9.619146,2.823530,0.023212,-0.041538,0.015882
2026-03-04T18:45:35.978748,-1.177268,-9.600004,2.833101,0.019547,-0.042760,0.017104
2026-03-04T18:45:35.988748,-1.205982,-9.595218,2.799602,0.015882,-0.039095,0.015882
2026-03-04T18:45:35.997748,-1.196411,-9.590432,2.756531,0.015882,-0.039095,0.014660
2026-03-04T18:45:36.007748,-1.186840,-9.609575,2.761317,0.014660,-0.040317,0.015882
2026-03-04T18:45:36.017748,-1.225125,-9.671788,2.746960,0.017104,-0.040317,0.013439
2026-03-04T18:45:36.026748,-1.220339,-9.643075,2.785245,0.021991,-0.042760,0.014660
2026-03-04T18:45:36.036748,-1.205982,-9.614361,2.790031,0.020769,-0.045204,0.015882
2026-03-04T18:45:36.046748,-1.220339,-9.667003,2.713460,0.021991,-0.046425,0.018325
2026-03-04T18:45:36.055748,-1.201196,-9.609575,2.804388,0.015882,-0.045204,0.018325
2026-03-04T18:45:36.065748,-1.148554,-9.652646,2.761317,0.014660,-0.045204,0.015882
2026-03-04T18:45:36.074748,-1.134197,-9.676574,2.756531,0.017104,-0.046425,0.017104
2026-03-04T18:45:36.084748,-1.153340,-9.614361,2.809173,0.017104,-0.042760,0.017104
2026-03-04T18:45:36.094748,-1.167697,-9.614361,2.766102,0.020769,-0.040317,0.014660
2026-03-04T18:45:36.103748,-1.162911,-9.619146,2.756531,0.023212,-0.039095,0.014660
2026-03-04T18:45:36.113748,-1.234696,-9.667003,2.761317,0.025656,-0.040317,0.015882
2026-03-04T18:45:36.122748,-1.201196,-9.604789,2.823530,0.028099,-0.040317,0.015882
2026-03-04T18:45:36.132748,-1.205982,-9.566504,2.809173,0.024434,-0.040317,0.015882
2026-03-04T18:45:36.142748,-1.148554,-9.566504,2.766102,0.013439,-0.041538,0.013439
2026-03-04T18:45:36.151748,-1.191625,-9.590432,2.813959,0.007330,-0.040317,0.015882
2026-03-04T18:45:36.161748,-1.220339,-9.652646,2.770888,0.006108,-0.041538,0.013439
2026-03-04T18:45:36.171748,-1.196411,-9.652646,2.694318,0.012217,-0.042760,0.017104
2026-03-04T18:45:36.180748,-1.205982,-9.600004,2.751745,0.012217,-0.045204,0.018325
2026-03-04T18:45:36.190748,-1.196411,-9.628718,2.804388,0.015882,-0.046425,0.018325
2026-03-04T18:45:36.199748,-1.167697,-9.643075,2.751745,0.019547,-0.048869,0.017104
2026-03-04T18:45:36.209748,-1.167697,-9.638289,2.770888,0.017104,-0.043982,0.015882
2026-03-04T18:45:36.219748,-1.172483,-9.662217,2.833101,0.019547,-0.042760,0.017104
2026-03-04T18:45:36.228748,-1.105484,-9.686145,2.809173,0.021991,-0.043982,0.015882
2026-03-04T18:45:36.238748,-1.172483,-9.628718,2.809173,0.020769,-0.043982,0.014660
2026-03-04T18:45:36.247748,-1.210768,-9.609575,2.828316,0.020769,-0.042760,0.014660
2026-03-04T18:45:36.257748,-1.167697,-9.633503,2.766102,0.018325,-0.040317,0.013439
2026-03-04T18:45:36.267748,-1.138983,-9.604789,2.727817,0.018325,-0.042760,0.014660
2026-03-04T18:45:36.276748,-1.158126,-9.643075,2.713460,0.015882,-0.043982,0.014660
2026-03-04T18:45:36.286748,-1.186840,-9.652646,2.742174,0.017104,-0.043982,0.014660
2026-03-04T18:45:36.296748,-1.268195,-9.600004,2.723032,0.019547,-0.041538,0.014660
2026-03-04T18:45:36.305748,-1.196411,-9.681360,2.718246,0.018325,-0.043982,0.015882
2026-03-04T18:45:36.315748,-1.172483,-9.638289,2.732603,0.015882,-0.042760,0.017104
2026-03-04T18:45:36.324748,-1.215553,-9.623932,2.780459,0.015882,-0.041538,0.019547
2026-03-04T18:45:36.334748,-1.234696,-9.638289,2.780459,0.019547,-0.043982,0.019547
2026-03-04T18:45:36.344748,-1.205982,-9.585647,2.837887,0.021991,-0.047647,0.018325
2026-03-04T18:45:36.353748,-1.182054,-9.585647,2.751745,0.019547,-0.045204,0.017104
2026-03-04T18:45:36.363748,-1.186840,-9.609575,2.785245,0.018325,-0.040317,0.015882
2026-03-04T18:45:36.372748,-1.182054,-9.633503,2.770888,0.018325,-0.041538,0.013439
2026-03-04T18:45:36.382748,-1.210768,-9.638289,2.699103,0.019547,-0.043982,0.015882
2026-03-04T18:45:36.392748,-1.201196,-9.614361,2.770888,0.023212,-0.043982,0.015882
2026-03-04T18:45:36.401748,-1.215553,-9.628718,2.723032,0.026878,-0.041538,0.014660
2026-03-04T18:45:36.411748,-1.186840,-9.638289,2.699103,0.030543,-0.043982,0.015882
2026-03-04T18:45:36.421748,-1.143769,-9.580861,2.770888,0.030543,-0.047647,0.018325
2026-03-04T18:45:36.430748,-1.210768,-9.571290,2.818745,0.026878,-0.045204,0.018325
2026-03-04T18:45:36.440748,-1.239482,-9.580861,2.809173,0.020769,-0.043982,0.018325
2026-03-04T18:45:36.449748,-1.205982,-9.600004,2.766102,0.017104,-0.042760,0.018325
2026-03-04T18:45:36.459748,-1.182054,-9.580861,2.775674,0.012217,-0.043982,0.017104
2026-03-04T18:45:36.469748,-1.201196,-9.614361,2.770888,0.009773,-0.043982,0.017104
2026-03-04T18:45:36.478748,-1.124626,-9.647860,2.770888,0.007330,-0.041538,0.015882
2026-03-04T18:45:36.488748,-1.196411,-9.667003,2.718246,0.006108,-0.040317,0.015882
2026-03-04T18:45:36.497748,-1.244267,-9.643075,2.766102,0.010995,-0.043982,0.015882
2026-03-04T18:45:36.507748,-1.196411,-9.643075,2.766102,0.014660,-0.042760,0.017104
2026-03-04T18:45:36.517748,-1.186840,-9.623932,2.790031,0.015882,-0.039095,0.017104
2026-03-04T18:45:36.526748,-1.119840,-9.576076,2.799602,0.014660,-0.041538,0.017104
2026-03-04T18:45:36.536748,-1.186840,-9.580861,2.703889,0.014660,-0.042760,0.017104
2026-03-04T18:45:36.546748,-1.167697,-9.633503,2.703889,0.018325,-0.041538,0.014660
2026-03-04T18:45:36.555748,-1.177268,-9.662217,2.756531,0.023212,-0.041538,0.015882
2026-03-04T18:45:36.565748,-1.186840,-9.614361,2.756531,0.028099,-0.043982,0.015882
2026-03-04T18:45:36.574748,-1.205982,-9.609575,2.780459,0.025656,-0.041538,0.015882
2026-03-04T18:45:36.584748,-1.167697,-9.576076,2.751745,0.025656,-0.039095,0.017104
2026-03-04T18:45:36.594748,-1.182054,-9.647860,2.761317,0.024434,-0.041538,0.017104
2026-03-04T18:45:36.603748,-1.225125,-9.614361,2.804388,0.020769,-0.041538,0.017104
2026-03-04T18:45:36.613748,-1.229910,-9.657432,2.766102,0.021991,-0.041538,0.015882
2026-03-04T18:45:36.622748,-1.210768,-9.595218,2.718246,0.025656,-0.041538,0.014660
2026-03-04T18:45:36.632748,-1.229910,-9.623932,2.799602,0.025656,-0.042760,0.015882
2026-03-04T18:45:36.642748,-1.158126,-9.623932,2.742174,0.021991,-0.046425,0.017104
2026-03-04T18:45:36.651748,-1.201196,-9.590432,2.794816,0.019547,-0.045204,0.017104
2026-03-04T18:45:36.661748,-1.167697,-9.580861,2.718246,0.013439,-0.041538,0.014660
2026-03-04T18:45:36.671748,-1.225125,-9.623932,2.799602,0.009773,-0.041538,0.018325
2026-03-04T18:45:36.680748,-1.272981,-9.561719,2.770888,0.017104,-0.041538,0.015882
2026-03-04T18:45:36.690748,-1.201196,-9.647860,2.723032,0.017104,-0.041538,0.015882
2026-03-04T18:45:36.699748,-1.205982,-9.633503,2.727817,0.020769,-0.042760,0.017104
2026-03-04T18:45:36.709748,-1.177268,-9.657432,2.727817,0.028099,-0.041538,0.017104
2026-03-04T18:45:36.719748,-1.153340,-9.614361,2.770888,0.028099,-0.042760,0.015882
2026-03-04T18:45:36.728748,-1.172483,-9.638289,2.813959,0.024434,-0.043982,0.015882
2026-03-04T18:45:36.738748,-1.201196,-9.590432,2.761317,0.018325,-0.042760,0.015882
2026-03-04T18:45:36.747748,-1.167697,-9.623932,2.732603,0.017104,-0.043982,0.013439
2026-03-04T18:45:36.757748,-1.148554,-9.638289,2.708675,0.014660,-0.041538,0.017104
2026-03-04T18:45:36.767748,-1.196411,-9.647860,2.751745,0.019547,-0.045204,0.018325
2026-03-04T18:45:36.776748,-1.196411,-9.619146,2.756531,0.021991,-0.043982,0.017104
2026-03-04T18:45:36.786748,-1.158126,-9.619146,2.761317,0.025656,-0.043982,0.017104
2026-03-04T18:45:36.796748,-1.196411,-9.671788,2.818745,0.025656,-0.041538,0.017104
2026-03-04T18:45:36.805748,-1.182054,-9.571290,2.799602,0.023212,-0.041538,0.015882
2026-03-04T18:45:36.815748,-1.220339,-9.623932,2.794816,0.018325,-0.040317,0.014660
2026-03-04T18:45:36.824748,-1.167697,-9.671788,2.804388,0.020769,-0.041538,0.017104
2026-03-04T18:45:36.834748,-1.210768,-9.604789,2.699103,0.019547,-0.042760,0.014660
2026-03-04T18:45:36.844748,-1.186840,-9.585647,2.828316,0.018325,-0.041538,0.015882
2026-03-04T18:45:36.853748,-1.182054,-9.571290,2.799602,0.018325,-0.042760,0.015882
2026-03-04T18:45:36.863748,-1.205982,-9.628718,2.718246,0.017104,-0.043982,0.017104
2026-03-04T18:45:36.872748,-1.234696,-9.638289,2.785245,0.017104,-0.041538,0.017104
2026-03-04T18:45:36.882748,-1.182054,-9.657432,2.746960,0.018325,-0.042760,0.017104
2026-03-04T18:45:36.892748,-1.220339,-9.667003,2.751745,0.021991,-0.045204,0.018325
2026-03-04T18:45:36.901748,-1.158126,-9.633503,2.766102,0.021991,-0.046425,0.020769
2026-03-04T18:45:36.911748,-1.201196,-9.600004,2.861815,0.024434,-0.046425,0.017104
2026-03-04T18:45:36.921748,-1.210768,-9.623932,2.770888,0.019547,-0.041538,0.017104
2026-03-04T18:45:36.930748,-1.201196,-9.657432,2.723032,0.015882,-0.040317,0.017104
2026-03-04T18:45:36.940748,-1.172483,-9.667003,2.694318,0.013439,-0.040317,0.017104
2026-03-04T18:45:36.949748,-1.182054,-9.633503,2.770888,0.015882,-0.043982,0.017104
2026-03-04T18:45:36.959748,-1.153340,-9.619146,2.790031,0.019547,-0.043982,0.015882
2026-03-04T18:45:36.969748,-1.129412,-9.638289,2.746960,0.021991,-0.041538,0.014660
2026-03-04T18:45:36.978748,-1.148554,-9.638289,2.794816,0.021991,-0.040317,0.017104
2026-03-04T18:45:36.988748,-1.167697,-9.609575,2.756531,0.019547,-0.040317,0.017104
2026-03-04T18:45:36.997748,-1.215553,-9.614361,2.732603,0.024434,-0.040317,0.017104
2026-03-04T18:45:37.007748,-1.186840,-9.590432,2.756531,0.026878,-0.042760,0.017104
2026-03-04T18:45:37.017748,-1.215553,-9.671788,2.770888,0.024434,-0.043982,0.014660
2026-03-04T18:45:37.026748,-1.186840,-9.619146,2.818745,0.020769,-0.043982,0.015882
2026-03-04T18:45:37.036748,-1.196411,-9.628718,2.847458,0.023212,-0.046425,0.018325
2026-03-04T18:45:37.046748,-1.148554,-9.647860,2.775674,0.014660,-0.043982,0.020769
2026-03-04T18:45:37.055748,-1.196411,-9.619146,2.780459,0.012217,-0.041538,0.017104
2026-03-04T18:45:37.065748,-1.110269,-9.638289,2.823530,0.012217,-0.041538,0.018325
2026-03-04T18:45:37.074748,-1.162911,-9.619146,2.723032,0.017104,-0.042760,0.017104
2026-03-04T18:45:37.084748,-1.196411,-9.657432,2.761317,0.018325,-0.041538,0.015882
2026-03-04T18:45:37.094748,-1.201196,-9.614361,2.718246,0.023212,-0.043982,0.014660
2026-03-04T18:45:37.103748,-1.182054,-9.623932,2.775674,0.024434,-0.045204,0.017104
2026-03-04T18:45:37.113748,-1.196411,-9.638289,2.804388,0.023212,-0.042760,0.017104
2026-03-04T18:45:37.122748,-1.191625,-9.623932,2.775674,0.024434,-0.043982,0.017104
2026-03-04T18:45:37.132748,-1.143769,-9.595218,2.775674,0.025656,-0.043982,0.014660
2026-03-04T18:45:37.142748,-1.215553,-9.662217,2.742174,0.026878,-0.042760,0.017104
2026-03-04T18:45:37.151748,-1.210768,-9.686145,2.770888,0.025656,-0.043982,0.017104
2026-03-04T18:45:37.161748,-1.134197,-9.604789,2.780459,0.024434,-0.045204,0.014660
2026-03-04T18:45:37.171748,-1.201196,-9.566504,2.818745,0.023212,-0.040317,0.017104
2026-03-04T18:45:37.180748,-1.215553,-9.695717,2.770888,0.021991,-0.040317,0.017104
2026-03-04T18:45:37.190748,-1.196411,-9.619146,2.727817,0.020769,-0.041538,0.017104
2026-03-04T18:45:37.199748,-1.225125,-9.623932,2.785245,0.019547,-0.041538,0.017104
2026-03-04T18:45:37.209748,-1.177268,-9.633503,2.723032,0.018325,-0.041538,0.018325
2026-03-04T18:45:37.219748,-1.162911,-9.604789,2.737389,0.019547,-0.043982,0.017104
2026-03-04T18:45:37.228748,-1.201196,-9.667003,2.737389,0.018325,-0.043982,0.015882
2026-03-04T18:45:37.238748,-1.158126,-9.686145,2.723032,0.021991,-0.043982,0.015882
2026-03-04T18:45:37.247748,-1.177268,-9.595218,2.809173,0.026878,-0.043982,0.015882
2026-03-04T18:45:37.257748,-1.134197,-9.595218,2.718246,0.025656,-0.041538,0.015882
2026-03-04T18:45:37.267748,-1.196411,-9.595218,2.809173,0.025656,-0.042760,0.017104
2026-03-04T18:45:37.276748,-1.215553,-9.604789,2.823530,0.024434,-0.043982,0.015882
2026-03-04T18:45:37.286748,-1.249053,-9.585647,2.761317,0.021991,-0.045204,0.019547
2026-03-04T18:45:37.296748,-1.162911,-9.614361,2.799602,0.021991,-0.043982,0.017104
2026-03-04T18:45:37.305748,-1.196411,-9.576076,2.809173,0.020769,-0.042760,0.017104
2026-03-04T18:45:37.315748,-1.196411,-9.662217,2.775674,0.017104,-0.040317,0.015882
2026-03-04T18:45:37.324748,-1.210768,-9.652646,2.780459,0.015882,-0.042760,0.017104
2026-03-04T18:45:37.334748,-1.167697,-9.609575,2.761317,0.013439,-0.041538,0.017104
2026-03-04T18:45:37.344748,-1.177268,-9.647860,2.775674,0.013439,-0.042760,0.018325
2026-03-04T18:45:37.353748,-1.158126,-9.681360,2.751745,0.015882,-0.041538,0.014660
2026-03-04T18:45:37.363748,-1.215553,-9.643075,2.766102,0.019547,-0.042760,0.015882
2026-03-04T18:45:37.372748,-1.186840,-9.638289,2.727817,0.018325,-0.043982,0.015882
2026-03-04T18:45:37.382748,-1.244267,-9.623932,2.775674,0.021991,-0.046425,0.015882
2026-03-04T18:45:37.392748,-1.153340,-9.623932,2.756531,0.020769,-0.045204,0.015882
2026-03-04T18:45:37.401748,-1.172483,-9.609575,2.785245,0.019547,-0.040317,0.015882
2026-03-04T18:45:37.411748,-1.186840,-9.638289,2.823530,0.019547,-0.041538,0.017104
2026-03-04T18:45:37.421748,-1.177268,-9.633503,2.751745,0.024434,-0.045204,0.014660
2026-03-04T18:45:37.430748,-1.182054,-9.676574,2.780459,0.023212,-0.042760,0.014660
2026-03-04T18:45:37.440748,-1.167697,-9.638289,2.766102,0.023212,-0.043982,0.017104
2026-03-04T18:45:37.449748,-1.201196,-9.623932,2.780459,0.024434,-0.041538,0.015882
2026-03-04T18:45:37.459748,-1.182054,-9.604789,2.737389,0.023212,-0.041538,0.014660
2026-03-04T18:45:37.469748,-1.182054,-9.619146,2.794816,0.021991,-0.043982,0.015882
2026-03-04T18:45:37.478748,-1.201196,-9.600004,2.766102,0.020769,-0.043982,0.018325
2026-03-04T18:45:37.488748,-1.205982,-9.518648,2.727817,0.018325,-0.045204,0.018325
2026-03-04T18:45:37.497748,-1.162911,-9.623932,2.737389,0.015882,-0.045204,0.018325
2026-03-04T18:45:37.507748,-1.182054,-9.590432,2.737389,0.013439,-0.041538,0.017104
2026-03-04T18:45:37.517748,-1.205982,-9.643075,2.737389,0.015882,-0.043982,0.017104
2026-03-04T18:45:37.526748,-1.191625,-9.671788,2.751745,0.020769,-0.043982,0.017104
2026-03-04T18:45:37.536748,-1.162911,-9.686145,2.785245,0.023212,-0.042760,0.017104
2026-03-04T18:45:37.546748,-1.191625,-9.643075,2.742174,0.023212,-0.041538,0.015882
2026-03-04T18:45:37.555748,-1.167697,-9.609575,2.828316,0.020769,-0.043982,0.018325
2026-03-04T18:45:37.565748,-1.210768,-9.590432,2.799602,0.018325,-0.041538,0.017104
2026-03-04T18:45:37.574748,-1.229910,-9.652646,2.794816,0.018325,-0.042760,0.014660
2026-03-04T18:45:37.584748,-1.196411,-9.614361,2.813959,0.018325,-0.042760,0.017104
2026-03-04T18:45:37.594748,-1.239482,-9.604789,2.766102,0.017104,-0.042760,0.017104
2026-03-04T18:45:37.603748,-1.182054,-9.595218,2.756531,0.014660,-0.041538,0.015882
2026-03-04T18:45:37.613748,-1.172483,-9.652646,2.756531,0.014660,-0.040317,0.015882
2026-03-04T18:45:37.622748,-1.229910,-9.676574,2.780459,0.015882,-0.042760,0.017104
2026-03-04T18:45:37.632748,-1.220339,-9.633503,2.746960,0.021991,-0.045204,0.015882
2026-03-04T18:45:37.642748,-1.186840,-9.600004,2.780459,0.021991,-0.043982,0.018325
2026-03-04T18:45:37.651748,-1.153340,-9.619146,2.794816,0.019547,-0.045204,0.018325
2026-03-04T18:45:37.661748,-1.177268,-9.619146,2.799602,0.019547,-0.042760,0.018325
2026-03-04T18:45:37.671748,-1.201196,-9.710074,2.790031,0.020769,-0.042760,0.017104
2026-03-04T18:45:37.680748,-1.162911,-9.667003,2.708675,0.019547,-0.043982,0.015882
2026-03-04T18:45:37.690748,-1.229910,-9.662217,2.833101,0.021991,-0.043982,0.017104
2026-03-04T18:45:37.699748,-1.167697,-9.600004,2.775674,0.021991,-0.042760,0.019547
2026-03-04T18:45:37.709748,-1.215553,-9.604789,2.756531,0.024434,-0.043982,0.019547
2026-03-04T18:45:37.719748,-1.220339,-9.585647,2.785245,0.021991,-0.042760,0.017104
2026-03-04T18:45:37.728748,-1.115055,-9.657432,2.790031,0.019547,-0.042760,0.014660
2026-03-04T18:45:37.738748,-1.225125,-9.667003,2.751745,0.018325,-0.042760,0.015882
2026-03-04T18:45:37.747748,-1.172483,-9.638289,2.790031,0.019547,-0.042760,0.015882
2026-03-04T18:45:37.757748,-1.167697,-9.657432,2.794816,0.020769,-0.043982,0.015882
2026-03-04T18:45:37.767748,-1.177268,-9.595218,2.756531,0.020769,-0.043982,0.017104
2026-03-04T18:45:37.776748,-1.182054,-9.619146,2.737389,0.020769,-0.042760,0.018325
2026-03-04T18:45:37.786748,-1.215553,-9.657432,2.770888,0.023212,-0.042760,0.017104
2026-03-04T18:45:37.796748,-1.277767,-9.600004,2.780459,0.024434,-0.046425,0.017104
2026-03-04T18:45:37.805748,-1.205982,-9.609575,2.751745,0.020769,-0.046425,0.015882
2026-03-04T18:45:37.815748,-1.191625,-9.647860,2.818745,0.017104,-0.042760,0.017104
2026-03-04T18:45:37.824748,-1.153340,-9.585647,2.751745,0.017104,-0.043982,0.017104
2026-03-04T18:45:37.834748,-1.124626,-9.690931,2.761317,0.019547,-0.043982,0.015882
2026-03-04T18:45:37.844748,-1.138983,-9.667003,2.718246,0.023212,-0.042760,0.014660
2026-03-04T18:45:37.853748,-1.148554,-9.681360,2.742174,0.028099,-0.042760,0.014660
2026-03-04T18:45:37.863748,-1.225125,-9.647860,2.780459,0.030543,-0.045204,0.014660
2026-03-04T18:45:37.872748,-1.172483,-9.595218,2.813959,0.030543,-0.042760,0.014660
2026-03-04T18:45:37.882748,-1.215553,-9.571290,2.813959,0.025656,-0.040317,0.015882
2026-03-04T18:45:37.892748,-1.263410,-9.580861,2.794816,0.015882,-0.039095,0.013439
2026-03-04T18:45:37.901748,-1.225125,-9.561719,2.809173,0.013439,-0.040317,0.015882
2026-03-04T18:45:37.911748,-1.215553,-9.671788,2.813959,0.008552,-0.042760,0.020769
2026-03-04T18:45:37.921748,-1.172483,-9.628718,2.813959,0.008552,-0.045204,0.017104
2026-03-04T18:45:37.930748,-1.148554,-9.657432,2.794816,0.009773,-0.045204,0.018325
2026-03-04T18:45:37.940748,-1.177268,-9.657432,2.737389,0.009773,-0.043982,0.017104
2026-03-04T18:45:37.949748,-1.167697,-9.614361,2.766102,0.013439,-0.042760,0.017104
2026-03-04T18:45:37.959748,-1.153340,-9.638289,2.804388,0.018325,-0.045204,0.014660
2026-03-04T18:45:37.969748,-1.191625,-9.628718,2.746960,0.021991,-0.045204,0.017104
2026-03-04T18:45:37.978748,-1.158126,-9.643075,2.732603,0.025656,-0.045204,0.018325
2026-03-04T18:45:37.988748,-1.153340,-9.652646,2.746960,0.021991,-0.045204,0.017104
2026-03-04T18:45:37.997748,-1.177268,-9.647860,2.756531,0.020769,-0.045204,0.018325
2026-03-04T18:45:38.007748,-1.138983,-9.609575,2.766102,0.021991,-0.042760,0.017104
2026-03-04T18:45:38.017748,-1.205982,-9.628718,2.809173,0.024434,-0.042760,0.015882
2026-03-04T18:45:38.026748,-1.172483,-9.609575,2.770888,0.021991,-0.043982,0.017104
2026-03-04T18:45:38.036748,-1.153340,-9.623932,2.837887,0.020769,-0.045204,0.014660
2026-03-04T18:45:38.046748,-1.191625,-9.628718,2.751745,0.018325,-0.041538,0.014660
2026-03-04T18:45:38.055748,-1.191625,-9.571290,2.723032,0.018325,-0.041538,0.015882
2026-03-04T18:45:38.065748,-1.205982,-9.647860,2.799602,0.017104,-0.043982,0.015882
2026-03-04T18:45:38.074748,-1.249053,-9.614361,2.804388,0.017104,-0.043982,0.014660
2026-03-04T18:45:38.084748,-1.162911,-9.633503,2.828316,0.018325,-0.043982,0.019547
2026-03-04T18:45:38.094748,-1.186840,-9.585647,2.708675,0.019547,-0.045204,0.017104
2026-03-04T18:45:38.103748,-1.225125,-9.628718,2.737389,0.018325,-0.043982,0.015882
2026-03-04T18:45:38.113748,-1.143769,-9.623932,2.761317,0.020769,-0.042760,0.017104
2026-03-04T18:45:38.122748,-1.172483,-9.662217,2.718246,0.021991,-0.043982,0.017104
2026-03-04T18:45:38.132748,-1.172483,-9.628718,2.775674,0.026878,-0.047647,0.018325
2026-03-04T18:45:38.142748,-1.182054,-9.561719,2.799602,0.024434,-0.043982,0.015882
2026-03-04T18:45:38.151748,-1.186840,-9.628718,2.837887,0.021991,-0.042760,0.015882
2026-03-04T18:45:38.161748,-1.186840,-9.628718,2.823530,0.020769,-0.045204,0.015882
2026-03-04T18:45:38.171748,-1.215553,-9.623932,2.837887,0.019547,-0.043982,0.017104
2026-03-04T18:45:38.180748,-1.234696,-9.595218,2.775674,0.019547,-0.041538,0.015882
2026-03-04T18:45:38.190748,-1.162911,-9.576076,2.842673,0.015882,-0.041538,0.014660
2026-03-04T18:45:38.199748,-1.162911,-9.619146,2.766102,0.014660,-0.041538,0.013439
2026-03-04T18:45:38.209748,-1.234696,-9.595218,2.813959,0.017104,-0.041538,0.014660
2026-03-04T18:45:38.219748,-1.191625,-9.614361,2.770888,0.020769,-0.042760,0.014660
2026-03-04T18:45:38.228748,-1.186840,-9.695717,2.756531,0.019547,-0.043982,0.018325
2026-03-04T18:45:38.238748,-1.167697,-9.604789,2.723032,0.020769,-0.042760,0.017104
2026-03-04T18:45:38.247748,-1.249053,-9.676574,2.775674,0.024434,-0.045204,0.015882
2026-03-04T18:45:38.257748,-1.162911,-9.614361,2.785245,0.025656,-0.043982,0.015882
2026-03-04T18:45:38.267748,-1.172483,-9.643075,2.790031,0.029321,-0.043982,0.015882
2026-03-04T18:45:38.276748,-1.182054,-9.580861,2.746960,0.018325,-0.040317,0.015882
2026-03-04T18:45:38.286748,-1.186840,-9.604789,2.780459,0.026878,-0.042760,0.015882
2026-03-04T18:45:38.296748,-1.186840,-9.614361,2.770888,0.018325,-0.040317,0.017104
2026-03-04T18:45:38.305748,-1.196411,-9.638289,2.751745,0.023212,-0.042760,0.014660
2026-03-04T18:45:38.315748,-1.191625,-9.619146,2.761317,0.020769,-0.046425,0.019547
2026-03-04T18:45:38.324748,-1.138983,-9.667003,2.770888,0.021991,-0.042760,0.017104
2026-03-04T18:45:38.334748,-1.229910,-9.595218,2.770888,0.019547,-0.039095,0.014660
2026-03-04T18:45:38.344748,-1.201196,-9.667003,2.742174,0.015882,-0.040317,0.014660
2026-03-04T18:45:38.353748,-1.239482,-9.686145,2.790031,0.021991,-0.042760,0.017104
2026-03-04T18:45:38.363748,-1.172483,-9.609575,2.770888,0.024434,-0.043982,0.018325
2026-03-04T18:45:38.372748,-1.162911,-9.623932,2.837887,0.026878,-0.045204,0.017104
2026-03-04T18:45:38.382748,-1.124626,-9.561719,2.761317,0.026878,-0.045204,0.017104
2026-03-04T18:45:38.392748,-1.143769,-9.623932,2.746960,0.024434,-0.041538,0.015882
2026-03-04T18:45:38.401748,-1.234696,-9.638289,2.847458,0.021991,-0.042760,0.017104
2026-03-04T18:45:38.411748,-1.172483,-9.609575,2.828316,0.017104,-0.042760,0.019547
2026-03-04T18:45:38.421748,-1.182054,-9.561719,2.799602,0.019547,-0.041538,0.017104
2026-03-04T18:45:38.430748,-1.196411,-9.585647,2.780459,0.017104,-0.041538,0.015882
2026-03-04T18:45:38.440748,-1.201196,-9.614361,2.823530,0.017104,-0.043982,0.015882
2026-03-04T18:45:38.449748,-1.158126,-9.690931,2.775674,0.014660,-0.042760,0.015882
2026-03-04T18:45:38.459748,-1.220339,-9.628718,2.756531,0.015882,-0.041538,0.014660
2026-03-04T18:45:38.469748,-1.220339,-9.628718,2.742174,0.021991,-0.042760,0.017104
2026-03-04T18:45:38.478748,-1.177268,-9.614361,2.756531,0.024434,-0.043982,0.015882
2026-03-04T18:45:38.488748,-1.220339,-9.628718,2.703889,0.021991,-0.042760,0.015882
2026-03-04T18:45:38.497748,-1.196411,-9.647860,2.727817,0.020769,-0.042760,0.017104
2026-03-04T18:45:38.507748,-1.210768,-9.652646,2.770888,0.021991,-0.041538,0.017104
2026-03-04T18:45:38.517748,-1.196411,-9.614361,2.746960,0.020769,-0.040317,0.018325
2026-03-04T18:45:38.526748,-1.191625,-9.647860,2.790031,0.021991,-0.042760,0.017104
2026-03-04T18:45:38.536748,-1.158126,-9.604789,2.813959,0.019547,-0.042760,0.014660
2026-03-04T18:45:38.546748,-1.124626,-9.600004,2.813959,0.018325,-0.041538,0.015882
2026-03-04T18:45:38.555748,-1.148554,-9.590432,2.790031,0.017104,-0.041538,0.015882
2026-03-04T18:45:38.565748,-1.182054,-9.638289,2.799602,0.015882,-0.042760,0.014660
2026-03-04T18:45:38.574748,-1.196411,-9.647860,2.718246,0.015882,-0.042760,0.017104
2026-03-04T18:45:38.584748,-1.186840,-9.604789,2.785245,0.018325,-0.042760,0.015882
2026-03-04T18:45:38.594748,-1.201196,-9.638289,2.737389,0.021991,-0.042760,0.015882
2026-03-04T18:45:38.603748,-1.196411,-9.623932,2.751745,0.020769,-0.043982,0.017104
2026-03-04T18:45:38.613748,-1.172483,-9.604789,2.746960,0.020769,-0.043982,0.015882
2026-03-04T18:45:38.622748,-1.220339,-9.633503,2.799602,0.023212,-0.045204,0.015882
2026-03-04T18:45:38.632748,-1.186840,-9.604789,2.742174,0.024434,-0.045204,0.019547
2026-03-04T18:45:38.642748,-1.205982,-9.619146,2.751745,0.021991,-0.046425,0.017104
2026-03-04T18:45:38.651748,-1.177268,-9.590432,2.799602,0.021991,-0.045204,0.015882
2026-03-04T18:45:38.661748,-1.153340,-9.657432,2.770888,0.020769,-0.042760,0.015882
2026-03-04T18:45:38.671748,-1.138983,-9.638289,2.770888,0.023212,-0.045204,0.017104
2026-03-04T18:45:38.680748,-1.172483,-9.590432,2.809173,0.023212,-0.043982,0.015882
2026-03-04T18:45:38.690748,-1.148554,-9.638289,2.732603,0.024434,-0.042760,0.015882
2026-03-04T18:45:38.699748,-1.167697,-9.580861,2.790031,0.024434,-0.043982,0.015882
2026-03-04T18:45:38.709748,-1.177268,-9.580861,2.790031,0.020769,-0.042760,0.015882
2026-03-04T18:45:38.719748,-1.205982,-9.609575,2.785245,0.017104,-0.041538,0.018325
2026-03-04T18:45:38.728748,-1.186840,-9.604789,2.756531,0.017104,-0.041538,0.015882
2026-03-04T18:45:38.738748,-1.182054,-9.628718,2.742174,0.017104,-0.042760,0.017104
2026-03-04T18:45:38.747748,-1.220339,-9.576076,2.770888,0.019547,-0.046425,0.014660
2026-03-04T18:45:38.757748,-1.186840,-9.590432,2.804388,0.018325,-0.045204,0.015882
2026-03-04T18:45:38.767748,-1.210768,-9.595218,2.770888,0.015882,-0.045204,0.017104
2026-03-04T18:45:38.776748,-1.177268,-9.633503,2.766102,0.015882,-0.042760,0.017104
2026-03-04T18:45:38.786748,-1.172483,-9.705288,2.742174,0.015882,-0.043982,0.017104
2026-03-04T18:45:38.796748,-1.220339,-9.623932,2.727817,0.018325,-0.043982,0.019547
2026-03-04T18:45:38.805748,-1.201196,-9.638289,2.742174,0.023212,-0.042760,0.018325
2026-03-04T18:45:38.815748,-1.182054,-9.614361,2.737389,0.028099,-0.046425,0.018325
2026-03-04T18:45:38.824748,-1.182054,-9.647860,2.794816,0.029321,-0.046425,0.018325
2026-03-04T18:45:38.834748,-1.177268,-9.623932,2.761317,0.025656,-0.042760,0.017104
2026-03-04T18:45:38.844748,-1.177268,-9.619146,2.775674,0.024434,-0.040317,0.015882
2026-03-04T18:45:38.853748,-1.167697,-9.590432,2.766102,0.020769,-0.040317,0.017104
2026-03-04T18:45:38.863748,-1.191625,-9.633503,2.756531,0.018325,-0.042760,0.014660
2026-03-04T18:45:38.872748,-1.167697,-9.633503,2.770888,0.018325,-0.042760,0.015882
2026-03-04T18:45:38.882748,-1.186840,-9.619146,2.751745,0.015882,-0.042760,0.018325
2026-03-04T18:45:38.892748,-1.182054,-9.710074,2.737389,0.019547,-0.042760,0.017104
2026-03-04T18:45:38.901748,-1.225125,-9.623932,2.737389,0.018325,-0.043982,0.017104
2026-03-04T18:45:38.911748,-1.210768,-9.619146,2.756531,0.019547,-0.043982,0.018325
2026-03-04T18:45:38.921748,-1.167697,-9.604789,2.751745,0.020769,-0.041538,0.017104
2026-03-04T18:45:38.930748,-1.215553,-9.619146,2.746960,0.020769,-0.041538,0.017104
2026-03-04T18:45:38.940748,-1.186840,-9.623932,2.775674,0.021991,-0.045204,0.019547
2026-03-04T18:45:38.949748,-1.153340,-9.609575,2.804388,0.021991,-0.045204,0.017104
2026-03-04T18:45:38.959748,-1.201196,-9.628718,2.809173,0.023212,-0.041538,0.017104
2026-03-04T18:45:38.969748,-1.239482,-9.662217,2.746960,0.020769,-0.039095,0.013439
2026-03-04T18:45:38.978748,-1.201196,-9.643075,2.813959,0.024434,-0.042760,0.017104
2026-03-04T18:45:38.988748,-1.182054,-9.590432,2.737389,0.026878,-0.045204,0.017104
2026-03-04T18:45:38.997748,-1.158126,-9.628718,2.732603,0.025656,-0.042760,0.013439
2026-03-04T18:45:39.007748,-1.110269,-9.657432,2.818745,0.020769,-0.042760,0.014660
2026-03-04T18:45:39.017748,-1.205982,-9.657432,2.785245,0.014660,-0.042760,0.014660
2026-03-04T18:45:39.026748,-1.191625,-9.566504,2.742174,0.009773,-0.037873,0.015882
2026-03-04T18:45:39.036748,-1.215553,-9.566504,2.746960,0.007330,-0.039095,0.015882
2026-03-04T18:45:39.046748,-1.210768,-9.695717,2.785245,0.015882,-0.040317,0.014660
2026-03-04T18:45:39.055748,-1.167697,-9.647860,2.737389,0.021991,-0.041538,0.015882
2026-03-04T18:45:39.065748,-1.177268,-9.643075,2.780459,0.024434,-0.043982,0.017104
2026-03-04T18:45:39.074748,-1.182054,-9.566504,2.799602,0.021991,-0.045204,0.017104
2026-03-04T18:45:39.084748,-1.215553,-9.604789,2.847458,0.019547,-0.042760,0.015882
2026-03-04T18:45:39.094748,-1.158126,-9.643075,2.737389,0.015882,-0.041538,0.017104
2026-03-04T18:45:39.103748,-1.186840,-9.571290,2.794816,0.018325,-0.042760,0.014660
2026-03-04T18:45:39.113748,-1.158126,-9.619146,2.694318,0.020769,-0.043982,0.014660
2026-03-04T18:45:39.122748,-1.177268,-9.647860,2.785245,0.019547,-0.042760,0.017104
2026-03-04T18:45:39.132748,-1.134197,-9.647860,2.761317,0.021991,-0.042760,0.018325
2026-03-04T18:45:39.142748,-1.153340,-9.595218,2.770888,0.021991,-0.042760,0.017104
2026-03-04T18:45:39.151748,-1.177268,-9.657432,2.809173,0.023212,-0.042760,0.017104
2026-03-04T18:45:39.161748,-1.158126,-9.638289,2.823530,0.023212,-0.043982,0.015882
2026-03-04T18:45:39.171748,-1.177268,-9.609575,2.780459,0.019547,-0.041538,0.010995
2026-03-04T18:45:39.180748,-1.196411,-9.638289,2.780459,0.018325,-0.041538,0.014660
2026-03-04T18:45:39.190748,-1.225125,-9.628718,2.770888,0.020769,-0.045204,0.017104
2026-03-04T18:45:39.199748,-1.158126,-9.561719,2.742174,0.020769,-0.042760,0.017104
2026-03-04T18:45:39.209748,-1.172483,-9.633503,2.770888,0.018325,-0.041538,0.017104
2026-03-04T18:45:39.219748,-1.177268,-9.652646,2.761317,0.018325,-0.042760,0.014660
2026-03-04T18:45:39.228748,-1.191625,-9.643075,2.770888,0.021991,-0.043982,0.015882
2026-03-04T18:45:39.238748,-1.234696,-9.633503,2.737389,0.020769,-0.045204,0.014660
2026-03-04T18:45:39.247748,-1.153340,-9.595218,2.766102,0.021991,-0.045204,0.014660
2026-03-04T18:45:39.257748,-1.172483,-9.643075,2.727817,0.021991,-0.042760,0.015882
2026-03-04T18:45:39.267748,-1.162911,-9.652646,2.766102,0.020769,-0.043982,0.015882
2026-03-04T18:45:39.276748,-1.162911,-9.614361,2.751745,0.020769,-0.042760,0.017104
2026-03-04T18:45:39.286748,-1.177268,-9.585647,2.751745,0.019547,-0.042760,0.017104
2026-03-04T18:45:39.296748,-1.182054,-9.638289,2.794816,0.020769,-0.042760,0.015882
2026-03-04T18:45:39.305748,-1.177268,-9.647860,2.732603,0.019547,-0.043982,0.017104
2026-03-04T18:45:39.315748,-1.148554,-9.604789,2.794816,0.020769,-0.041538,0.017104
2026-03-04T18:45:39.324748,-1.182054,-9.633503,2.761317,0.021991,-0.041538,0.017104
2026-03-04T18:45:39.334748,-1.172483,-9.585647,2.761317,0.019547,-0.040317,0.015882
2026-03-04T18:45:39.344748,-1.153340,-9.595218,2.770888,0.015882,-0.040317,0.014660
2026-03-04T18:45:39.353748,-1.186840,-9.619146,2.766102,0.017104,-0.040317,0.017104
2026-03-04T18:45:39.363748,-1.153340,-9.623932,2.703889,0.020769,-0.041538,0.015882
2026-03-04T18:45:39.372748,-1.177268,-9.667003,2.775674,0.023212,-0.042760,0.018325
2026-03-04T18:45:39.382748,-1.167697,-9.633503,2.790031,0.025656,-0.045204,0.019547
2026-03-04T18:45:39.392748,-1.138983,-9.571290,2.756531,0.024434,-0.042760,0.015882
2026-03-04T18:45:39.401748,-1.172483,-9.633503,2.775674,0.025656,-0.042760,0.015882
2026-03-04T18:45:39.411748,-1.220339,-9.585647,2.809173,0.024434,-0.042760,0.014660
2026-03-04T18:45:39.421748,-1.215553,-9.628718,2.794816,0.021991,-0.043982,0.017104
2026-03-04T18:45:39.430748,-1.148554,-9.628718,2.785245,0.020769,-0.040317,0.014660
2026-03-04T18:45:39.440748,-1.186840,-9.633503,2.775674,0.020769,-0.041538,0.013439
2026-03-04T18:45:39.449748,-1.186840,-9.657432,2.794816,0.019547,-0.043982,0.014660
2026-03-04T18:45:39.459748,-1.129412,-9.628718,2.770888,0.017104,-0.042760,0.014660
2026-03-04T18:45:39.469748,-1.201196,-9.647860,2.766102,0.015882,-0.041538,0.017104
2026-03-04T18:45:39.478748,-1.148554,-9.667003,2.718246,0.014660,-0.040317,0.015882
2026-03-04T18:45:39.488748,-1.167697,-9.609575,2.742174,0.018325,-0.041538,0.017104
2026-03-04T18:45:39.497748,-1.124626,-9.671788,2.775674,0.020769,-0.045204,0.018325
2026-03-04T18:45:39.507748,-1.177268,-9.566504,2.766102,0.018325,-0.045204,0.017104
2026-03-04T18:45:39.517748,-1.210768,-9.619146,2.775674,0.015882,-0.043982,0.018325
2026-03-04T18:45:39.526748,-1.191625,-9.600004,2.785245,0.018325,-0.043982,0.019547
2026-03-04T18:45:39.536748,-1.201196,-9.643075,2.761317,0.019547,-0.043982,0.018325
2026-03-04T18:45:39.546748,-1.239482,-9.604789,2.770888,0.020769,-0.043982,0.018325
2026-03-04T18:45:39.555748,-1.177268,-9.609575,2.785245,0.021991,-0.045204,0.015882
2026-03-04T18:45:39.565748,-1.167697,-9.638289,2.699103,0.023212,-0.043982,0.014660
2026-03-04T18:45:39.574748,-1.205982,-9.638289,2.799602,0.025656,-0.045204,0.013439
2026-03-04T18:45:39.584748,-1.172483,-9.643075,2.790031,0.026878,-0.045204,0.014660
2026-03-04T18:45:39.594748,-1.153340,-9.614361,2.766102,0.031764,-0.046425,0.013439
2026-03-04T18:45:39.603748,-1.182054,-9.585647,2.857030,0.026878,-0.045204,0.015882
2026-03-04T18:45:39.613748,-1.148554,-9.585647,2.794816,0.023212,-0.043982,0.015882
2026-03-04T18:45:39.622748,-1.201196,-9.628718,2.794816,0.017104,-0.042760,0.015882
2026-03-04T18:45:39.632748,-1.234696,-9.609575,2.775674,0.014660,-0.042760,0.017104
2026-03-04T18:45:39.642748,-1.205982,-9.623932,2.742174,0.014660,-0.041538,0.015882
2026-03-04T18:45:39.651748,-1.172483,-9.614361,2.751745,0.015882,-0.042760,0.014660
2026-03-04T18:45:39.661748,-1.124626,-9.671788,2.770888,0.017104,-0.043982,0.017104
2026-03-04T18:45:39.671748,-1.229910,-9.638289,2.780459,0.015882,-0.045204,0.017104
2026-03-04T18:45:39.680748,-1.215553,-9.614361,2.818745,0.015882,-0.043982,0.017104
2026-03-04T18:45:39.690748,-1.229910,-9.628718,2.756531,0.015882,-0.045204,0.017104
2026-03-04T18:45:39.699748,-1.162911,-9.619146,2.723032,0.015882,-0.041538,0.015882
2026-03-04T18:45:39.709748,-1.158126,-9.609575,2.713460,0.015882,-0.043982,0.018325
2026-03-04T18:45:39.719748,-1.129412,-9.590432,2.775674,0.019547,-0.043982,0.017104
2026-03-04T18:45:39.728748,-1.177268,-9.676574,2.794816,0.021991,-0.042760,0.015882
2026-03-04T18:45:39.738748,-1.153340,-9.566504,2.790031,0.023212,-0.041538,0.014660
2026-03-04T18:45:39.747748,-1.158126,-9.571290,2.790031,0.023212,-0.045204,0.017104
2026-03-04T18:45:39.757748,-1.182054,-9.657432,2.785245,0.024434,-0.041538,0.017104
2026-03-04T18:45:39.767748,-1.215553,-9.628718,2.713460,0.024434,-0.042760,0.017104
2026-03-04T18:45:39.776748,-1.177268,-9.580861,2.780459,0.020769,-0.042760,0.014660
2026-03-04T18:45:39.786748,-1.129412,-9.566504,2.790031,0.019547,-0.042760,0.014660
2026-03-04T18:45:39.796748,-1.196411,-9.614361,2.804388,0.017104,-0.043982,0.015882
2026-03-04T18:45:39.805748,-1.153340,-9.580861,2.742174,0.014660,-0.042760,0.017104
2026-03-04T18:45:39.815748,-1.153340,-9.676574,2.679961,0.015882,-0.042760,0.017104
2026-03-04T18:45:39.824748,-1.172483,-9.676574,2.751745,0.018325,-0.043982,0.015882
2026-03-04T18:45:39.834748,-1.153340,-9.638289,2.756531,0.021991,-0.045204,0.017104
2026-03-04T18:45:39.844748,-1.148554,-9.647860,2.727817,0.023212,-0.043982,0.017104
2026-03-04T18:45:39.853748,-1.158126,-9.609575,2.746960,0.023212,-0.043982,0.017104
2026-03-04T18:45:39.863748,-1.172483,-9.681360,2.775674,0.025656,-0.043982,0.014660
2026-03-04T18:45:39.872748,-1.201196,-9.643075,2.766102,0.028099,-0.041538,0.014660
2026-03-04T18:45:39.882748,-1.201196,-9.609575,2.780459,0.026878,-0.043982,0.014660
2026-03-04T18:45:39.892748,-1.244267,-9.595218,2.732603,0.026878,-0.042760,0.015882
2026-03-04T18:45:39.901748,-1.115055,-9.576076,2.799602,0.024434,-0.041538,0.013439
2026-03-04T18:45:39.911748,-1.205982,-9.580861,2.794816,0.018325,-0.041538,0.013439
2026-03-04T18:45:39.921748,-1.143769,-9.638289,2.809173,0.017104,-0.042760,0.014660
2026-03-04T18:45:39.930748,-1.201196,-9.681360,2.794816,0.018325,-0.043982,0.014660
2026-03-04T18:45:39.940748,-1.182054,-9.604789,2.746960,0.017104,-0.042760,0.015882
2026-03-04T18:45:39.949748,-1.153340,-9.561719,2.727817,0.013439,-0.043982,0.017104
2026-03-04T18:45:39.959748,-1.229910,-9.628718,2.751745,0.012217,-0.042760,0.017104
2026-03-04T18:45:39.969748,-1.153340,-9.643075,2.766102,0.013439,-0.043982,0.017104
2026-03-04T18:45:39.978748,-1.191625,-9.681360,2.708675,0.019547,-0.043982,0.019547
2026-03-04T18:45:39.988748,-1.210768,-9.590432,2.746960,0.021991,-0.042760,0.019547
2026-03-04T18:45:39.997748,-1.129412,-9.609575,2.799602,0.021991,-0.042760,0.017104
2026-03-04T18:45:40.007748,-1.182054,-9.604789,2.804388,0.018325,-0.041538,0.017104
2026-03-04T18:45:40.017748,-1.182054,-9.571290,2.756531,0.017104,-0.040317,0.017104
2026-03-04T18:45:40.026748,-1.153340,-9.609575,2.737389,0.018325,-0.042760,0.013439
2026-03-04T18:45:40.036748,-1.210768,-9.628718,2.746960,0.021991,-0.043982,0.015882
2026-03-04T18:45:40.046748,-1.225125,-9.652646,2.732603,0.021991,-0.042760,0.014660
2026-03-04T18:45:40.055748,-1.201196,-9.671788,2.761317,0.021991,-0.042760,0.013439
2026-03-04T18:45:40.065748,-1.186840,-9.600004,2.775674,0.019547,-0.042760,0.017104
2026-03-04T18:45:40.074748,-1.196411,-9.633503,2.766102,0.020769,-0.042760,0.015882
2026-03-04T18:45:40.084748,-1.134197,-9.628718,2.804388,0.023212,-0.042760,0.015882
2026-03-04T18:45:40.094748,-1.162911,-9.628718,2.756531,0.021991,-0.041538,0.017104
2026-03-04T18:45:40.103748,-1.172483,-9.604789,2.761317,0.019547,-0.041538,0.013439
2026-03-04T18:45:40.113748,-1.249053,-9.590432,2.761317,0.017104,-0.041538,0.014660
2026-03-04T18:45:40.122748,-1.167697,-9.638289,2.732603,0.018325,-0.040317,0.018325
2026-03-04T18:45:40.132748,-1.167697,-9.614361,2.751745,0.018325,-0.043982,0.017104
2026-03-04T18:45:40.142748,-1.172483,-9.609575,2.770888,0.019547,-0.043982,0.018325
2026-03-04T18:45:40.151748,-1.172483,-9.628718,2.780459,0.018325,-0.042760,0.015882
2026-03-04T18:45:40.161748,-1.172483,-9.619146,2.761317,0.019547,-0.041538,0.015882
2026-03-04T18:45:40.171748,-1.229910,-9.657432,2.751745,0.020769,-0.042760,0.018325
2026-03-04T18:45:40.180748,-1.191625,-9.638289,2.737389,0.020769,-0.043982,0.014660
2026-03-04T18:45:40.190748,-1.201196,-9.604789,2.794816,0.019547,-0.045204,0.015882
2026-03-04T18:45:40.199748,-1.182054,-9.633503,2.818745,0.017104,-0.042760,0.015882
2026-03-04T18:45:40.209748,-1.167697,-9.671788,2.756531,0.017104,-0.043982,0.017104
2026-03-04T18:45:40.219748,-1.239482,-9.638289,2.780459,0.018325,-0.042760,0.017104
2026-03-04T18:45:40.228748,-1.124626,-9.652646,2.737389,0.017104,-0.042760,0.017104
2026-03-04T18:45:40.238748,-1.158126,-9.604789,2.785245,0.020769,-0.043982,0.018325
2026-03-04T18:45:40.247748,-1.177268,-9.571290,2.794816,0.021991,-0.045204,0.019547
2026-03-04T18:45:40.257748,-1.172483,-9.614361,2.794816,0.020769,-0.041538,0.018325
2026-03-04T18:45:40.267748,-1.201196,-9.566504,2.780459,0.019547,-0.043982,0.018325
2026-03-04T18:45:40.276748,-1.167697,-9.647860,2.751745,0.020769,-0.042760,0.017104
2026-03-04T18:45:40.286748,-1.210768,-9.628718,2.770888,0.021991,-0.042760,0.014660
2026-03-04T18:45:40.296748,-1.167697,-9.700502,2.751745,0.024434,-0.042760,0.017104
2026-03-04T18:45:40.305748,-1.167697,-9.623932,2.794816,0.025656,-0.043982,0.015882
2026-03-04T18:45:40.315748,-1.225125,-9.609575,2.813959,0.024434,-0.042760,0.014660
2026-03-04T18:45:40.324748,-1.162911,-9.647860,2.780459,0.024434,-0.041538,0.013439
2026-03-04T18:45:40.334748,-1.186840,-9.729216,2.727817,0.020769,-0.041538,0.013439
2026-03-04T18:45:40.344748,-1.143769,-9.595218,2.742174,0.019547,-0.040317,0.015882
2026-03-04T18:45:40.353748,-1.253839,-9.628718,2.766102,0.020769,-0.041538,0.015882
