Timestamp,Acceleration_X,Acceleration_Y,Acceleration_Z,Gyro_X,Gyro_Y,Gyro_Z
2026-03-09T22:33:35.409759,9.772287,-4.656432,0.650847,-1.083674,-0.138055,-1.011592
2026-03-09T22:33:35.419759,10.001998,-4.828716,0.593420,-1.136209,-0.169820,-0.938288
2026-03-09T22:33:35.428759,10.073783,-4.996213,0.765703,-1.134987,-0.162490,-0.863763
2026-03-09T22:33:35.438759,9.954142,-4.570291,0.861416,-1.112996,-0.141720,-0.796568
2026-03-09T22:33:35.447759,9.600004,-4.694717,0.641276,-1.147204,-0.089186,-0.755029
2026-03-09T22:33:35.457759,9.193224,-4.833501,0.507278,-1.125213,-0.058643,-0.722042
2026-03-09T22:33:35.467759,8.934799,-4.670789,0.703489,-1.087339,-0.079412,-0.676838
2026-03-09T22:33:35.476759,9.006584,-5.034498,0.478564,-1.066570,-0.124616,-0.626747
2026-03-09T22:33:35.486759,8.987441,-5.369493,0.512064,-0.988379,-0.156381,-0.596204
2026-03-09T22:33:35.496759,8.834301,-5.307280,0.287138,-0.889419,-0.183259,-0.554665
2026-03-09T22:33:35.505759,8.772087,-5.158925,0.052642,-0.835663,-0.221133,-0.499687
2026-03-09T22:33:35.515759,8.662017,-5.259424,-0.028713,-0.785572,-0.274889,-0.450818
2026-03-09T22:33:35.524759,8.662017,-5.077569,-0.033499,-0.706160,-0.338419,-0.410501
2026-03-09T22:33:35.534759,9.006584,-4.359722,-0.105284,-0.660956,-0.421496,-0.340862
2026-03-09T22:33:35.544759,9.255437,-4.091726,0.277567,-0.621860,-0.445931,-0.310319
2026-03-09T22:33:35.553759,9.308079,-4.264009,0.363709,-0.607199,-0.425162,-0.309097
2026-03-09T22:33:35.563759,9.236295,-4.369294,0.507278,-0.520457,-0.408057,-0.299323
2026-03-09T22:33:35.572759,9.198010,-4.168296,0.602991,-0.422718,-0.419053,-0.305432
2026-03-09T22:33:35.582759,9.150153,-4.177868,0.516849,-0.356745,-0.433714,-0.290771
2026-03-09T22:33:35.592759,9.288937,-3.847658,0.354137,-0.312762,-0.450818,-0.274889
2026-03-09T22:33:35.601759,9.274580,-3.996013,0.114855,-0.313984,-0.453261,-0.272445
2026-03-09T22:33:35.611759,9.212367,-4.307080,-0.086141,-0.289550,-0.448374,-0.284663
2026-03-09T22:33:35.621759,9.044869,-4.493720,-0.258424,-0.223576,-0.453261,-0.278554
2026-03-09T22:33:35.630759,8.982656,-4.445864,-0.306281,-0.138055,-0.469144,-0.267558
2026-03-09T22:33:35.640759,8.977870,-4.369294,-0.181854,-0.032986,-0.499687,-0.276111
2026-03-09T22:33:35.649759,9.073583,-4.019941,-0.052642,0.057421,-0.513126,-0.276111
2026-03-09T22:33:35.659759,8.920442,-3.699303,-0.110069,0.091629,-0.507018,-0.278554
2026-03-09T22:33:35.669759,8.958727,-3.589233,0.047856,0.081855,-0.500909,-0.288328
2026-03-09T22:33:35.678759,9.461220,-2.770888,0.421136,0.039095,-0.514348,-0.278554
2026-03-09T22:33:35.688759,9.757930,-2.622533,0.354137,-0.086742,-0.466700,-0.277332
2026-03-09T22:33:35.697759,9.427721,-2.957528,0.090927,-0.172263,-0.388510,-0.274889
2026-03-09T22:33:35.707759,9.332008,-2.986242,0.138783,-0.191811,-0.365297,-0.276111
2026-03-09T22:33:35.717759,9.399007,-2.785245,0.181854,-0.171042,-0.361632,-0.282219
2026-03-09T22:33:35.726759,9.212367,-2.938386,0.090927,-0.161268,-0.350636,-0.295658
2026-03-09T22:33:35.736759,9.068797,-3.148954,-0.090927,-0.106290,-0.364075,-0.309097
2026-03-09T22:33:35.746759,9.154939,-3.455235,-0.095712,-0.035430,-0.382401,-0.313984
2026-03-09T22:33:35.755759,9.035298,-3.790230,-0.239282,0.069638,-0.393397,-0.306654
2026-03-09T22:33:35.765759,9.097511,-3.857230,-0.258424,0.205250,-0.409279,-0.304210
2026-03-09T22:33:35.774759,9.169296,-3.215953,-0.138783,0.331088,-0.426383,-0.285884
2026-03-09T22:33:35.784759,9.499505,-2.790031,0.076570,0.387288,-0.434935,-0.276111
2026-03-09T22:33:35.794759,9.590432,-2.579462,0.062213,0.387288,-0.415388,-0.256563
2026-03-09T22:33:35.803759,9.710074,-2.407179,0.119641,0.367740,-0.393397,-0.238237
2026-03-09T22:33:35.813759,9.772287,-2.388036,0.334995,0.375071,-0.368962,-0.230907
2026-03-09T22:33:35.822759,9.748359,-2.239681,0.043070,0.359188,-0.333532,-0.211359
2026-03-09T22:33:35.832759,9.667003,-2.555534,-0.215354,0.338419,-0.300545,-0.190589
2026-03-09T22:33:35.842759,9.427721,-2.842673,-0.445065,0.354301,-0.280997,-0.158824
2026-03-09T22:33:35.851759,9.332008,-2.933600,-0.478564,0.383623,-0.282219,-0.134390
2026-03-09T22:33:35.861759,9.494720,-2.507678,-0.497707,0.431270,-0.294436,-0.105068
2026-03-09T22:33:35.871759,9.657432,-2.301895,-0.459421,0.422718,-0.280997,-0.089186
2026-03-09T22:33:35.880759,9.719645,-2.507678,-0.334995,0.443488,-0.260228,-0.083077
2026-03-09T22:33:35.890759,9.734002,-2.311466,-0.301495,0.459370,-0.227241,-0.068416
2026-03-09T22:33:35.899759,9.748359,-2.215753,-0.200997,0.453261,-0.195476,-0.050090
2026-03-09T22:33:35.909759,9.796215,-1.957328,-0.138783,0.420275,-0.161268,-0.024434
2026-03-09T22:33:35.919759,9.638289,-1.971685,-0.277567,0.360410,-0.127059,-0.006108
2026-03-09T22:33:35.928759,9.427721,-2.431107,-0.387637,0.317649,-0.105068,0.004886
2026-03-09T22:33:35.938759,9.341579,-2.502892,-0.612562,0.312762,-0.092851,0.017104
2026-03-09T22:33:35.947759,9.188438,-2.971885,-0.918843,0.305432,-0.097738,0.031764
2026-03-09T22:33:35.957759,9.068797,-2.885744,-1.158126,0.337197,-0.129503,0.050090
2026-03-09T22:33:35.967759,9.154939,-3.081955,-1.205982,0.378736,-0.158824,0.069638
2026-03-09T22:33:35.976759,9.221938,-3.388236,-1.177268,0.427605,-0.188146,0.081855
2026-03-09T22:33:35.986759,9.154939,-2.967100,-1.134197,0.538783,-0.206472,0.086742
2026-03-09T22:33:35.996759,9.087940,-2.857030,-1.220339,0.585208,-0.224798,0.102625
2026-03-09T22:33:36.005759,8.858229,-2.986242,-1.402194,0.605978,-0.246789,0.123394
2026-03-09T22:33:36.015759,8.910871,-2.885744,-1.225125,0.647517,-0.280997,0.133168
2026-03-09T22:33:36.024759,8.992227,-2.636890,-1.182054,0.697607,-0.300545,0.139277
2026-03-09T22:33:36.034759,8.997012,-2.469392,-1.354337,0.722042,-0.311541,0.140498
2026-03-09T22:33:36.044759,9.068797,-2.522035,-1.526620,0.723264,-0.331088,0.129503
2026-03-09T22:33:36.053759,9.111868,-2.718246,-1.694118,0.757472,-0.345749,0.123394
2026-03-09T22:33:36.063759,9.169296,-2.737389,-1.727617,0.794124,-0.351858,0.125838
2026-03-09T22:33:36.072759,9.025726,-3.034099,-1.899901,0.810007,-0.362853,0.128281
2026-03-09T22:33:36.082759,9.068797,-2.656033,-1.856830,0.838106,-0.388510,0.145385
2026-03-09T22:33:36.092759,9.279366,-2.383251,-1.593619,0.770911,-0.409279,0.161268
2026-03-09T22:33:36.101759,9.279366,-2.861815,-1.598405,0.729372,-0.405614,0.160046
2026-03-09T22:33:36.111759,9.212367,-2.919243,-1.344766,0.730594,-0.412944,0.172263
2026-03-09T22:33:36.121759,9.518648,-3.067598,-1.067198,0.748920,-0.434935,0.180816
2026-03-09T22:33:36.130759,9.781858,-3.086741,-1.014556,0.780685,-0.423940,0.186924
2026-03-09T22:33:36.140759,9.451649,-3.474378,-0.966700,0.795346,-0.406836,0.196698
2026-03-09T22:33:36.149759,9.437292,-3.665804,-0.765703,0.855211,-0.404392,0.211359
2026-03-09T22:33:36.159759,9.571290,-3.421736,-0.928415,0.918741,-0.406836,0.244346
2026-03-09T22:33:36.169759,9.418149,-3.383451,-1.182054,0.948062,-0.410501,0.272445
2026-03-09T22:33:36.178759,9.355936,-3.555734,-1.134197,0.967610,-0.426383,0.300545
2026-03-09T22:33:36.188759,9.245866,-3.814159,-1.435693,1.006705,-0.438601,0.340862
2026-03-09T22:33:36.197759,9.212367,-3.560520,-1.406979,1.050687,-0.469144,0.393397
2026-03-09T22:33:36.207759,9.384650,-3.000599,-1.416550,1.018923,-0.491135,0.458148
2026-03-09T22:33:36.217759,9.489934,-2.837887,-1.335195,0.990823,-0.510683,0.494800
2026-03-09T22:33:36.226759,9.738787,-2.464607,-0.957129,0.932180,-0.503352,0.531452
2026-03-09T22:33:36.236759,9.844072,-2.608176,-0.966700,0.857654,-0.471587,0.569326
2026-03-09T22:33:36.246759,9.829715,-2.847458,-0.952343,0.775798,-0.432492,0.609643
2026-03-09T22:33:36.255759,9.690931,-3.407379,-1.143769,0.697607,-0.399505,0.656069
2026-03-09T22:33:36.265759,9.509077,-3.876372,-1.301695,0.668286,-0.386066,0.703716
2026-03-09T22:33:36.274759,9.293722,-4.450650,-1.363908,0.686612,-0.390953,0.740368
2026-03-09T22:33:36.284759,9.231509,-4.206582,-1.335195,0.744033,-0.406836,0.784350
2026-03-09T22:33:36.294759,9.236295,-4.153940,-1.631905,0.757472,-0.423940,0.817337
2026-03-09T22:33:36.303759,9.317651,-4.173082,-1.962114,0.756251,-0.455705,0.828333
2026-03-09T22:33:36.313759,9.442077,-3.852444,-2.000399,0.755029,-0.489913,0.861319
2026-03-09T22:33:36.322759,9.719645,-3.713660,-1.636690,0.719599,-0.502131,0.890641
2026-03-09T22:33:36.332759,9.987641,-3.574876,-1.430907,0.680503,-0.487470,0.916297
2026-03-09T22:33:36.342759,10.025926,-3.426521,-1.225125,0.612086,-0.456927,0.949284
2026-03-09T22:33:36.351759,9.992427,-3.684946,-1.134197,0.533896,-0.419053,0.983492
2026-03-09T22:33:36.361759,9.777073,-3.828516,-1.287338,0.482583,-0.379958,1.011592
2026-03-09T22:33:36.371759,9.600004,-3.866801,-1.378265,0.444709,-0.353080,1.044579
2026-03-09T22:33:36.380759,9.265009,-4.101297,-1.555334,0.403170,-0.333532,1.070235
2026-03-09T22:33:36.390759,9.059226,-4.230510,-1.603191,0.414166,-0.333532,1.078787
2026-03-09T22:33:36.399759,9.202795,-3.986442,-1.478764,0.434935,-0.339641,1.073900
2026-03-09T22:33:36.409759,9.188438,-4.034298,-1.569691,0.432492,-0.331088,1.062905
2026-03-09T22:33:36.419759,9.064012,-3.890729,-1.497906,0.426383,-0.315206,1.054353
2026-03-09T22:33:36.428759,9.040083,-3.857230,-1.560120,0.403170,-0.301767,1.039692
2026-03-09T22:33:36.438759,8.886943,-3.962514,-1.497906,0.392175,-0.289550,1.016479
2026-03-09T22:33:36.447759,8.867800,-3.857230,-1.296909,0.384845,-0.276111,0.988379
2026-03-09T22:33:36.457759,8.796015,-3.852444,-1.440479,0.382401,-0.256563,0.956614
2026-03-09T22:33:36.467759,8.709874,-3.818944,-1.320838,0.395840,-0.240680,0.905302
2026-03-09T22:33:36.476759,8.638089,-3.718446,-1.493121,0.406836,-0.222354,0.842993
2026-03-09T22:33:36.486759,8.580661,-3.469592,-1.464407,0.420275,-0.216246,0.781907
2026-03-09T22:33:36.496759,8.609375,-3.732803,-1.493121,0.389731,-0.213802,0.731816
2026-03-09T22:33:36.505759,8.700302,-3.546163,-1.277767,0.415388,-0.206472,0.676838
2026-03-09T22:33:36.515759,8.618947,-3.527020,-1.301695,0.419053,-0.185702,0.614530
2026-03-09T22:33:36.524759,8.451449,-3.359522,-1.387837,0.410501,-0.175929,0.554665
2026-03-09T22:33:36.534759,8.331808,-3.579662,-1.387837,0.377514,-0.167377,0.499687
2026-03-09T22:33:36.544759,8.374879,-3.393022,-1.339980,0.361632,-0.169820,0.441044
2026-03-09T22:33:36.553759,8.408378,-3.488735,-1.378265,0.307876,-0.162490,0.390953
2026-03-09T22:33:36.563759,8.365307,-3.402593,-1.450050,0.298102,-0.164933,0.329867
2026-03-09T22:33:36.572759,8.475377,-3.330809,-1.306481,0.261450,-0.166155,0.267558
2026-03-09T22:33:36.582759,8.551947,-3.503092,-1.258624,0.229685,-0.158824,0.206472
2026-03-09T22:33:36.592759,8.652446,-3.407379,-1.239482,0.195476,-0.150272,0.139277
2026-03-09T22:33:36.601759,8.762516,-3.560520,-1.143769,0.166155,-0.138055,0.081855
2026-03-09T22:33:36.611759,8.762516,-3.708875,-1.205982,0.151494,-0.118507,0.024434
2026-03-09T22:33:36.621759,8.743373,-3.728017,-1.225125,0.138055,-0.100181,-0.024434
2026-03-09T22:33:36.630759,8.772087,-3.713660,-1.306481,0.123394,-0.094073,-0.067195
2026-03-09T22:33:36.640759,8.709874,-3.981656,-1.354337,0.096516,-0.089186,-0.103847
2026-03-09T22:33:36.649759,8.633303,-4.015156,-1.421336,0.072082,-0.091629,-0.129503
2026-03-09T22:33:36.659759,8.638089,-4.110869,-1.459621,0.054977,-0.095294,-0.150272
2026-03-09T22:33:36.669759,8.489734,-4.067798,-1.421336,0.029321,-0.091629,-0.171042
2026-03-09T22:33:36.678759,8.508877,-4.235296,-1.483550,0.001221,-0.094073,-0.188146
2026-03-09T22:33:36.688759,8.652446,-4.374079,-1.095912,-0.028099,-0.098960,-0.210137
2026-03-09T22:33:36.697759,8.724231,-4.594219,-1.091127,-0.024434,-0.086742,-0.211359
2026-03-09T22:33:36.707759,8.752945,-4.785645,-1.167697,-0.012217,-0.081855,-0.229685
2026-03-09T22:33:36.717759,8.743373,-5.154139,-1.258624,0.036651,-0.079412,-0.251676
2026-03-09T22:33:36.726759,8.590233,-5.029713,-1.526620,0.128281,-0.084299,-0.268780
2026-03-09T22:33:36.736759,8.590233,-5.058426,-1.531406,0.178372,-0.105068,-0.276111
2026-03-09T22:33:36.746759,8.575876,-4.977071,-1.603191,0.252898,-0.124616,-0.295658
2026-03-09T22:33:36.755759,8.618947,-4.828716,-1.603191,0.326201,-0.131946,-0.312762
2026-03-09T22:33:36.765759,8.542376,-3.919443,-1.617548,0.339641,-0.136833,-0.290771
2026-03-09T22:33:36.774759,8.537591,-3.531806,-1.660618,0.218689,-0.145385,-0.282219
2026-03-09T22:33:36.784759,8.719445,-3.924229,-1.430907,0.123394,-0.138055,-0.260228
2026-03-09T22:33:36.794759,8.772087,-4.082155,-1.722832,0.100181,-0.144164,-0.249232
2026-03-09T22:33:36.803759,8.647660,-3.192025,-1.933400,0.123394,-0.127059,-0.251676
2026-03-09T22:33:36.813759,8.508877,-2.684746,-1.818545,-0.037873,-0.105068,-0.212581
2026-03-09T22:33:36.822759,8.767302,-3.215953,-1.574477,-0.321315,-0.112399,-0.169820
2026-03-09T22:33:36.832759,9.221938,-4.445864,-1.335195,-0.458148,-0.103847,-0.166155
2026-03-09T22:33:36.842759,9.437292,-4.354937,-1.239482,-0.422718,-0.073303,-0.173485
2026-03-09T22:33:36.851759,9.523433,-3.943371,-1.311266,-0.412944,-0.026878,-0.183259
2026-03-09T22:33:36.861759,9.556933,-3.823730,-1.392622,-0.471587,0.026878,-0.193033
2026-03-09T22:33:36.871759,9.422935,-4.058227,-1.387837,-0.519235,0.076969,-0.204028
2026-03-09T22:33:36.880759,9.322436,-3.665804,-1.536192,-0.547335,0.120951,-0.212581
2026-03-09T22:33:36.890759,9.193224,-3.589233,-1.378265,-0.629191,0.152716,-0.223576
2026-03-09T22:33:36.899759,9.279366,-3.522234,-1.411765,-0.718377,0.183259,-0.227241
2026-03-09T22:33:36.909759,9.336793,-3.517449,-1.507478,-0.817337,0.219911,-0.234572
2026-03-09T22:33:36.919759,9.154939,-3.704089,-1.550549,-0.908967,0.259006,-0.239459
2026-03-09T22:33:36.928759,9.016155,-4.039084,-1.631905,-0.960279,0.283441,-0.251676
2026-03-09T22:33:36.938759,8.882157,-4.230510,-1.703689,-0.974940,0.298102,-0.266337
2026-03-09T22:33:36.947759,8.681160,-4.374079,-1.847259,-0.959058,0.298102,-0.287106
2026-03-09T22:33:36.957759,8.532805,-4.350151,-1.775474,-0.911410,0.280997,-0.312762
2026-03-09T22:33:36.967759,8.394021,-4.235296,-1.641476,-0.855211,0.261450,-0.340862
2026-03-09T22:33:36.976759,8.327022,-3.895515,-1.593619,-0.828333,0.234572,-0.366519
2026-03-09T22:33:36.986759,8.427521,-3.780659,-1.421336,-0.839328,0.213802,-0.381179
2026-03-09T22:33:36.996759,8.461020,-3.775874,-1.426122,-0.873537,0.206472,-0.383623
2026-03-09T22:33:37.005759,8.652446,-3.780659,-1.521835,-0.934623,0.206472,-0.379958
2026-03-09T22:33:37.015759,9.001798,-3.833301,-1.469193,-1.021366,0.208915,-0.373849
2026-03-09T22:33:37.024759,9.322436,-4.192225,-1.622333,-1.105665,0.219911,-0.356745
2026-03-09T22:33:37.034759,9.504291,-4.642075,-1.708475,-1.169195,0.248011,-0.342084
2026-03-09T22:33:37.044759,9.619146,-5.101497,-1.837687,-1.182634,0.279776,-0.331088
2026-03-09T22:33:37.053759,9.647860,-5.551348,-1.952543,-1.158200,0.311541,-0.320093
2026-03-09T22:33:37.063759,9.676574,-5.924628,-2.167897,-1.088561,0.332310,-0.317649
2026-03-09T22:33:37.072759,9.700502,-6.049055,-2.321037,-0.973718,0.344527,-0.327423
2026-03-09T22:33:37.082759,9.595218,-6.192624,-2.555534,-0.841772,0.346971,-0.340862
2026-03-09T22:33:37.092759,9.547362,-5.881557,-2.746960,-0.692721,0.340862,-0.357966
2026-03-09T22:33:37.101759,9.609575,-5.709274,-2.928814,-0.598647,0.322536,-0.365297
2026-03-09T22:33:37.111759,9.734002,-5.393422,-2.857030,-0.535117,0.315206,-0.355523
2026-03-09T22:33:37.121759,9.738787,-5.197210,-2.823530,-0.507018,0.316428,-0.339641
2026-03-09T22:33:37.130759,9.647860,-4.852644,-2.809173,-0.499687,0.315206,-0.317649
2026-03-09T22:33:37.140759,9.446863,-4.579862,-2.746960,-0.511904,0.312762,-0.295658
2026-03-09T22:33:37.149759,9.403792,-4.311866,-2.598605,-0.536339,0.300545,-0.277332
2026-03-09T22:33:37.159759,9.399007,-4.125226,-2.416750,-0.570548,0.290771,-0.259006
2026-03-09T22:33:37.169759,9.399007,-3.842873,-2.225325,-0.624304,0.298102,-0.237015
2026-03-09T22:33:37.178759,9.131011,-3.842873,-1.976471,-0.680503,0.321315,-0.211359
2026-03-09T22:33:37.188759,8.815158,-3.919443,-1.952543,-0.709825,0.340862,-0.174707
2026-03-09T22:33:37.197759,8.719445,-3.527020,-1.593619,-0.735481,0.353080,-0.151494
2026-03-09T22:33:37.207759,8.446663,-3.527020,-1.411765,-0.777020,0.373849,-0.128281
2026-03-09T22:33:37.217759,8.312665,-3.369094,-1.301695,-0.816115,0.387288,-0.107512
2026-03-09T22:33:37.226759,8.226524,-3.622733,-1.148554,-0.851545,0.411723,-0.086742
2026-03-09T22:33:37.236759,8.193024,-3.598805,-1.014556,-0.866206,0.434935,-0.067195
2026-03-09T22:33:37.246759,8.288737,-3.756731,-0.990628,-0.893084,0.460592,-0.051312
2026-03-09T22:33:37.255759,8.461020,-3.900300,-0.708275,-0.874758,0.491135,-0.043982
2026-03-09T22:33:37.265759,8.537591,-3.771088,-0.646062,-0.853989,0.533896,-0.040317
2026-03-09T22:33:37.274759,8.772087,-3.728017,-0.574277,-0.846659,0.579100,-0.043982
2026-03-09T22:33:37.284759,8.934799,-3.598805,-0.727418,-0.831998,0.635299,-0.061086
2026-03-09T22:33:37.294759,9.064012,-3.555734,-0.756131,-0.831998,0.687834,-0.089186
2026-03-09T22:33:37.303759,9.250652,-3.732803,-0.928415,-0.827111,0.735481,-0.124616
2026-03-09T22:33:37.313759,9.260223,-3.795016,-1.100698,-0.816115,0.778242,-0.167377
2026-03-09T22:33:37.322759,9.159724,-3.627519,-1.253839,-0.813672,0.801455,-0.216246
2026-03-09T22:33:37.332759,8.910871,-3.651447,-1.354337,-0.841772,0.806341,-0.244346
2026-03-09T22:33:37.342759,8.513662,-3.670589,-1.339980,-0.890641,0.805120,-0.243124
2026-03-09T22:33:37.351759,7.896314,-3.335594,-1.205982,-0.915075,0.790459,-0.226020
2026-03-09T22:33:37.361759,7.513462,-2.718246,-1.162911,-0.981049,0.744033,-0.201585
2026-03-09T22:33:37.371759,7.283751,-2.378465,-1.205982,-1.097113,0.667064,-0.183259
2026-03-09T22:33:37.380759,7.489534,-2.349751,-1.076770,-1.244943,0.572991,-0.184481
2026-03-09T22:33:37.390759,7.795816,-3.215953,-1.000199,-1.385442,0.474031,-0.205250
2026-03-09T22:33:37.399759,8.154739,-4.455435,-0.827916,-1.408654,0.379958,-0.243124
2026-03-09T22:33:37.409759,8.379664,-5.182853,-0.607776,-1.292590,0.294436,-0.311541
2026-03-09T22:33:37.419759,8.408378,-5.651846,-0.535992,-1.114217,0.207694,-0.408057
2026-03-09T22:33:37.428759,8.484948,-6.240481,-0.378065,-0.899193,0.112399,-0.508239
2026-03-09T22:33:37.438759,8.542376,-6.565905,-0.311066,-0.637743,0.023212,-0.594982
2026-03-09T22:33:37.447759,8.676374,-6.254838,-0.330209,-0.377514,-0.047647,-0.652403
2026-03-09T22:33:37.457759,8.762516,-5.699703,-0.430708,-0.174707,-0.098960,-0.680503
2026-03-09T22:33:37.467759,8.853443,-5.091926,-0.459421,-0.050090,-0.139277,-0.685390
2026-03-09T22:33:37.476759,8.982656,-4.656432,-0.583848,-0.003665,-0.167377,-0.667064
2026-03-09T22:33:37.486759,9.049655,-4.139583,-0.660419,-0.012217,-0.179594,-0.629191
2026-03-09T22:33:37.496759,9.083154,-3.890729,-0.641276,-0.091629,-0.182037,-0.581543
2026-03-09T22:33:37.505759,9.097511,-3.952942,-0.674775,-0.194255,-0.178372,-0.520457
2026-03-09T22:33:37.515759,8.958727,-4.010370,-0.540777,-0.298102,-0.177150,-0.449596
2026-03-09T22:33:37.524759,8.810372,-4.244867,-0.397208,-0.392175,-0.191811,-0.370184
2026-03-09T22:33:37.534759,8.810372,-4.182653,-0.215354,-0.450818,-0.208915,-0.305432
2026-03-09T22:33:37.544759,8.695517,-4.421936,-0.038285,-0.526565,-0.218689,-0.244346
2026-03-09T22:33:37.553759,8.523234,-4.508077,0.086141,-0.560774,-0.223576,-0.182037
2026-03-09T22:33:37.563759,8.216952,-4.541577,0.148355,-0.565661,-0.233350,-0.130725
2026-03-09T22:33:37.572759,7.963313,-4.718646,0.119641,-0.565661,-0.259006,-0.101403
2026-03-09T22:33:37.582759,7.719245,-4.584648,0.220139,-0.513126,-0.291993,-0.080634
2026-03-09T22:33:37.592759,7.695317,-4.517649,0.157926,-0.439822,-0.327423,-0.083077
2026-03-09T22:33:37.601759,7.762316,-4.369294,0.220139,-0.322536,-0.378736,-0.105068
2026-03-09T22:33:37.611759,7.781459,-3.512663,0.267996,-0.163711,-0.423940,-0.138055
2026-03-09T22:33:37.621759,7.920242,-2.823530,0.148355,-0.056199,-0.461814,-0.204028
2026-03-09T22:33:37.630759,8.398807,-2.426322,0.047856,0.020769,-0.514348,-0.282219
2026-03-09T22:33:37.640759,9.427721,-2.976671,-0.229710,0.079412,-0.554665,-0.375071
2026-03-09T22:33:37.649759,10.308279,-3.857230,-0.392422,0.208915,-0.560774,-0.469144
2026-03-09T22:33:37.659759,10.581061,-4.063012,-0.660419,0.460592,-0.538783,-0.569326
2026-03-09T22:33:37.669759,10.035497,-3.929014,-1.019342,0.713490,-0.537561,-0.665842
2026-03-09T22:33:37.678759,9.978070,-3.469592,-1.205982,0.922406,-0.582765,-0.719599
2026-03-09T22:33:37.688759,10.112068,-2.742174,-1.277767,1.044579,-0.614530,-0.728151
2026-03-09T22:33:37.697759,10.078568,-1.990828,-1.138983,1.083674,-0.613308,-0.698829
2026-03-09T22:33:37.707759,10.054640,-1.162911,-1.062413,1.045801,-0.591317,-0.635299
2026-03-09T22:33:37.717759,9.930213,-0.502492,-1.028913,0.949284,-0.552222,-0.561995
2026-03-09T22:33:37.726759,9.997212,-0.153140,-1.028913,0.818559,-0.497244,-0.493579
2026-03-09T22:33:37.736759,10.145567,-0.248853,-1.124626,0.669508,-0.423940,-0.433714
2026-03-09T22:33:37.746759,10.059426,-0.478564,-1.473978,0.527787,-0.340862,-0.386066
2026-03-09T22:33:37.755759,9.901499,-1.038485,-1.722832,0.405614,-0.276111,-0.351858
2026-03-09T22:33:37.765759,9.767501,-1.392622,-2.134397,0.318871,-0.227241,-0.322536
2026-03-09T22:33:37.774759,9.466006,-1.674975,-2.292324,0.261450,-0.197920,-0.301767
2026-03-09T22:33:37.784759,9.327222,-1.808973,-2.636890,0.228463,-0.195476,-0.282219
2026-03-09T22:33:37.794759,9.226723,-2.153540,-2.493321,0.193033,-0.201585,-0.260228
2026-03-09T22:33:37.803759,9.145367,-1.923829,-2.665604,0.188146,-0.207694,-0.240680
2026-03-09T22:33:37.813759,9.035298,-2.177468,-2.593819,0.184481,-0.216246,-0.230907
2026-03-09T22:33:37.822759,8.992227,-2.249253,-2.474178,0.212581,-0.235793,-0.224798
2026-03-09T22:33:37.832759,9.044869,-2.383251,-2.474178,0.260228,-0.257785,-0.222354
2026-03-09T22:33:37.842759,9.193224,-2.254038,-2.397608,0.315206,-0.267558,-0.222354
2026-03-09T22:33:37.851759,9.164510,-2.062613,-2.431107,0.367740,-0.266337,-0.227241
2026-03-09T22:33:37.861759,9.020941,-1.847259,-2.545963,0.401949,-0.268780,-0.233350
2026-03-09T22:33:37.871759,9.068797,-1.674975,-2.651247,0.410501,-0.270002,-0.232128
2026-03-09T22:33:37.880759,8.968299,-1.684547,-2.880958,0.389731,-0.267558,-0.224798
2026-03-09T22:33:37.890759,8.839086,-1.684547,-2.909672,0.364075,-0.274889,-0.206472
2026-03-09T22:33:37.899759,8.824729,-1.708475,-2.885744,0.321315,-0.284663,-0.183259
2026-03-09T22:33:37.909759,8.867800,-1.986042,-2.995813,0.285884,-0.288328,-0.158824
2026-03-09T22:33:37.919759,8.944370,-1.746760,-2.890529,0.287106,-0.298102,-0.138055
2026-03-09T22:33:37.928759,9.040083,-1.823330,-2.938386,0.246789,-0.304210,-0.111177
2026-03-09T22:33:37.938759,9.322436,-1.928615,-2.751745,0.218689,-0.309097,-0.087964
2026-03-09T22:33:37.947759,9.647860,-1.933400,-2.928814,0.221133,-0.273667,-0.047647
2026-03-09T22:33:37.957759,9.164510,-2.206182,-2.885744,0.218689,-0.248011,-0.046425
2026-03-09T22:33:37.967759,9.437292,-2.067398,-2.924029,0.287106,-0.257785,-0.023212
2026-03-09T22:33:37.976759,9.332008,-1.837687,-3.101098,0.304210,-0.248011,-0.019547
2026-03-09T22:33:37.986759,9.523433,-1.497906,-2.866601,0.317649,-0.267558,-0.007330
2026-03-09T22:33:37.996759,9.667003,-1.234696,-2.837887,0.299323,-0.254119,-0.003665
2026-03-09T22:33:38.005759,9.245866,-1.129412,-2.742174,0.270002,-0.224798,-0.017104
2026-03-09T22:33:38.015759,9.494720,-0.746560,-2.919243,0.207694,-0.240680,-0.010995
2026-03-09T22:33:38.024759,9.585647,-1.349551,-2.775674,0.161268,-0.232128,-0.029321
2026-03-09T22:33:38.034759,9.437292,-1.182054,-2.818745,0.168598,-0.204028,-0.053756
2026-03-09T22:33:38.044759,9.154939,-1.201196,-2.991028,0.173485,-0.215024,-0.047647
2026-03-09T22:33:38.053759,9.174081,-1.258624,-2.871387,0.169820,-0.238237,-0.056199
2026-03-09T22:33:38.063759,9.159724,-1.368694,-2.976671,0.163711,-0.261450,-0.103847
2026-03-09T22:33:38.072759,9.016155,-1.359123,-2.919243,0.202807,-0.278554,-0.112399
2026-03-09T22:33:38.082759,9.360722,-1.196411,-2.852244,0.202807,-0.313984,-0.118507
2026-03-09T22:33:38.092759,9.537790,-1.359123,-2.909672,0.197920,-0.304210,-0.135612
2026-03-09T22:33:38.101759,9.446863,-1.210768,-3.048455,0.189368,-0.293215,-0.152716
2026-03-09T22:33:38.111759,9.571290,-1.445264,-3.086741,0.169820,-0.288328,-0.164933
2026-03-09T22:33:38.121759,9.791430,-1.325623,-3.263810,0.167377,-0.285884,-0.175929
2026-03-09T22:33:38.130759,9.868000,-1.138983,-3.139383,0.156381,-0.268780,-0.177150
2026-03-09T22:33:38.140759,9.643075,-1.234696,-3.139383,0.108733,-0.234572,-0.156381
2026-03-09T22:33:38.149759,9.327222,-0.995414,-2.971885,0.056199,-0.217467,-0.129503
2026-03-09T22:33:38.159759,9.308079,-1.229910,-2.933600,-0.018325,-0.219911,-0.102625
2026-03-09T22:33:38.169759,9.327222,-1.311266,-2.775674,-0.073303,-0.218689,-0.069638
2026-03-09T22:33:38.178759,9.303294,-1.253839,-2.579462,-0.119729,-0.207694,-0.047647
2026-03-09T22:33:38.188759,9.198010,-1.722832,-2.545963,-0.144164,-0.184481,-0.035430
2026-03-09T22:33:38.197759,9.154939,-1.694118,-2.306680,-0.163711,-0.175929,-0.014660
2026-03-09T22:33:38.207759,9.312865,-2.201396,-2.220539,-0.152716,-0.166155,-0.006108
2026-03-09T22:33:38.217759,9.284151,-2.177468,-2.158325,-0.096516,-0.146607,0.004886
2026-03-09T22:33:38.226759,9.279366,-1.986042,-2.163111,-0.045204,-0.128281,0.020769
2026-03-09T22:33:38.236759,9.523433,-2.057827,-2.158325,-0.004886,-0.097738,0.019547
2026-03-09T22:33:38.246759,9.351150,-1.866401,-2.148754,0.031764,-0.065973,0.020769
2026-03-09T22:33:38.255759,9.279366,-1.804188,-2.230110,0.031764,-0.056199,0.015882
2026-03-09T22:33:38.265759,9.346365,-1.938186,-2.325823,0.039095,-0.051312,0.006108
2026-03-09T22:33:38.274759,9.284151,-1.698904,-2.344966,0.046425,-0.048869,0.000000
2026-03-09T22:33:38.284759,9.279366,-1.718046,-2.440679,0.061086,-0.050090,-0.008552
2026-03-09T22:33:38.294759,9.250652,-1.478764,-2.402393,0.070860,-0.053756,-0.018325
2026-03-09T22:33:38.303759,9.312865,-1.646261,-2.526820,0.072082,-0.062308,-0.030543
2026-03-09T22:33:38.313759,9.432506,-1.569691,-2.507678,0.081855,-0.065973,-0.035430
2026-03-09T22:33:38.322759,9.456434,-1.646261,-2.579462,0.080634,-0.062308,-0.039095
2026-03-09T22:33:38.332759,9.365507,-1.502692,-2.660818,0.094073,-0.057421,-0.042760
2026-03-09T22:33:38.342759,9.399007,-1.296909,-2.689532,0.096516,-0.053756,-0.040317
2026-03-09T22:33:38.351759,9.489934,-1.258624,-2.842673,0.076969,-0.046425,-0.035430
2026-03-09T22:33:38.361759,9.461220,-1.225125,-2.895315,0.045204,-0.041538,-0.035430
2026-03-09T22:33:38.371759,9.470791,-1.191625,-2.914457,0.007330,-0.042760,-0.032986
2026-03-09T22:33:38.380759,9.518648,-1.368694,-2.876172,-0.028099,-0.045204,-0.039095
2026-03-09T22:33:38.390759,9.480363,-1.383051,-2.746960,-0.040317,-0.046425,-0.042760
2026-03-09T22:33:38.399759,9.456434,-1.416550,-2.766102,-0.047647,-0.041538,-0.050090
2026-03-09T22:33:38.409759,9.346365,-1.507478,-2.694318,-0.048869,-0.037873,-0.054977
2026-03-09T22:33:38.419759,9.375078,-1.536192,-2.555534,-0.042760,-0.034208,-0.057421
2026-03-09T22:33:38.428759,9.399007,-1.665404,-2.459821,-0.037873,-0.028099,-0.057421
2026-03-09T22:33:38.438759,9.269794,-1.579262,-2.383251,-0.013439,-0.025656,-0.053756
2026-03-09T22:33:38.447759,9.279366,-1.631905,-2.344966,0.003665,-0.018325,-0.045204
2026-03-09T22:33:38.457759,9.288937,-1.732403,-2.321037,0.009773,-0.006108,-0.034208
2026-03-09T22:33:38.467759,9.241080,-1.622333,-2.297109,0.024434,0.002443,-0.020769
2026-03-09T22:33:38.476759,9.279366,-1.564905,-2.330609,0.021991,0.013439,-0.008552
2026-03-09T22:33:38.486759,9.207581,-1.631905,-2.397608,0.026878,0.019547,0.002443
2026-03-09T22:33:38.496759,9.245866,-1.603191,-2.378465,0.030543,0.019547,0.015882
2026-03-09T22:33:38.505759,9.274580,-1.373480,-2.450250,0.031764,0.017104,0.029321
2026-03-09T22:33:38.515759,9.418149,-1.406979,-2.488535,0.014660,0.021991,0.034208
2026-03-09T22:33:38.524759,9.375078,-1.526620,-2.584248,0.001221,0.021991,0.039095
2026-03-09T22:33:38.534759,9.413364,-1.507478,-2.531606,-0.006108,0.021991,0.041538
2026-03-09T22:33:38.544759,9.399007,-1.402194,-2.507678,-0.007330,0.014660,0.037873
2026-03-09T22:33:38.553759,9.384650,-1.454836,-2.569891,-0.013439,0.013439,0.034208
2026-03-09T22:33:38.563759,9.418149,-1.215553,-2.474178,-0.028099,0.014660,0.039095
2026-03-09T22:33:38.572759,9.379864,-1.316052,-2.440679,-0.062308,0.017104,0.041538
2026-03-09T22:33:38.582759,9.284151,-1.512263,-2.512463,-0.078190,0.021991,0.030543
2026-03-09T22:33:38.592759,9.207581,-1.473978,-2.388036,-0.085521,0.020769,0.035430
2026-03-09T22:33:38.601759,9.116654,-1.713260,-2.325823,-0.109955,0.015882,0.040317
2026-03-09T22:33:38.611759,9.049655,-1.856830,-2.287538,-0.102625,0.013439,0.039095
2026-03-09T22:33:38.621759,9.064012,-1.928615,-2.254038,-0.091629,0.003665,0.040317
2026-03-09T22:33:38.630759,9.035298,-2.005185,-2.249253,-0.083077,-0.004886,0.040317
2026-03-09T22:33:38.640759,9.102297,-2.115255,-2.301895,-0.067195,-0.004886,0.036651
2026-03-09T22:33:38.649759,9.116654,-2.129612,-2.301895,-0.041538,-0.002443,0.036651
2026-03-09T22:33:38.659759,9.025726,-2.187039,-2.292324,-0.012217,-0.009773,0.040317
2026-03-09T22:33:38.669759,9.126225,-2.067398,-2.258824,0.012217,-0.013439,0.045204
2026-03-09T22:33:38.678759,9.126225,-1.971685,-2.268395,0.032986,-0.014660,0.052534
2026-03-09T22:33:38.688759,9.111868,-1.899901,-2.163111,0.040317,-0.017104,0.058643
2026-03-09T22:33:38.697759,9.083154,-1.928615,-2.277967,0.052534,-0.026878,0.067195
2026-03-09T22:33:38.707759,9.131011,-1.794616,-2.330609,0.052534,-0.029321,0.072082
2026-03-09T22:33:38.717759,9.140582,-1.804188,-2.306680,0.058643,-0.036651,0.075747
2026-03-09T22:33:38.726759,9.360722,-1.775474,-2.325823,0.063529,-0.041538,0.079412
2026-03-09T22:33:38.736759,9.370293,-1.852044,-2.335394,0.067195,-0.051312,0.074525
2026-03-09T22:33:38.746759,9.298508,-1.808973,-2.397608,0.076969,-0.056199,0.068416
2026-03-09T22:33:38.755759,9.399007,-1.741974,-2.392822,0.094073,-0.064751,0.064751
2026-03-09T22:33:38.765759,9.394221,-1.761117,-2.364108,0.102625,-0.065973,0.062308
2026-03-09T22:33:38.774759,9.322436,-1.718046,-2.388036,0.111177,-0.068416,0.053756
2026-03-09T22:33:38.784759,9.408578,-1.517049,-2.292324,0.118507,-0.074525,0.052534
2026-03-09T22:33:38.794759,9.384650,-1.603191,-2.268395,0.105068,-0.070860,0.045204
2026-03-09T22:33:38.803759,9.365507,-1.631905,-2.321037,0.098960,-0.062308,0.032986
2026-03-09T22:33:38.813759,9.346365,-1.670190,-2.297109,0.098960,-0.061086,0.026878
2026-03-09T22:33:38.822759,9.470791,-1.689332,-2.215753,0.098960,-0.064751,0.026878
2026-03-09T22:33:38.832759,9.303294,-1.761117,-2.306680,0.089186,-0.052534,0.018325
2026-03-09T22:33:38.842759,9.341579,-1.756331,-2.306680,0.092851,-0.050090,0.018325
2026-03-09T22:33:38.851759,9.461220,-1.761117,-2.210968,0.096516,-0.050090,0.019547
2026-03-09T22:33:38.861759,9.437292,-1.785045,-2.153540,0.098960,-0.047647,0.021991
2026-03-09T22:33:38.871759,9.418149,-1.890329,-2.210968,0.101403,-0.040317,0.018325
2026-03-09T22:33:38.880759,9.504291,-1.852044,-2.143969,0.113620,-0.039095,0.018325
2026-03-09T22:33:38.890759,9.585647,-1.708475,-2.129612,0.124616,-0.030543,0.019547
2026-03-09T22:33:38.899759,9.528219,-1.746760,-2.220539,0.128281,-0.020769,0.017104
2026-03-09T22:33:38.909759,9.533005,-1.627119,-2.359323,0.134390,-0.014660,0.015882
2026-03-09T22:33:38.919759,9.556933,-1.569691,-2.392822,0.133168,-0.013439,0.010995
2026-03-09T22:33:38.928759,9.547362,-1.555334,-2.383251,0.123394,-0.013439,0.004886
2026-03-09T22:33:38.938759,9.523433,-1.459621,-2.392822,0.112399,-0.014660,0.006108
2026-03-09T22:33:38.947759,9.576076,-1.493121,-2.411965,0.089186,-0.009773,0.006108
2026-03-09T22:33:38.957759,9.494720,-1.483550,-2.392822,0.074525,-0.010995,0.001221
2026-03-09T22:33:38.967759,9.585647,-1.354337,-2.378465,0.058643,-0.009773,-0.004886
2026-03-09T22:33:38.976759,9.585647,-1.478764,-2.330609,0.040317,0.003665,-0.008552
2026-03-09T22:33:38.986759,9.475577,-1.483550,-2.416750,0.026878,0.009773,-0.013439
2026-03-09T22:33:38.996759,9.370293,-1.502692,-2.349751,0.010995,0.009773,-0.017104
2026-03-09T22:33:39.005759,9.332008,-1.464407,-2.354537,-0.001221,0.009773,-0.020769
2026-03-09T22:33:39.015759,9.207581,-1.569691,-2.335394,-0.014660,0.008552,-0.023212
2026-03-09T22:33:39.024759,9.236295,-1.698904,-2.378465,-0.026878,0.006108,-0.021991
2026-03-09T22:33:39.034759,9.198010,-1.694118,-2.287538,-0.031764,0.002443,-0.020769
2026-03-09T22:33:39.044759,9.092725,-1.770688,-2.254038,-0.040317,-0.004886,-0.018325
2026-03-09T22:33:39.053759,9.116654,-1.761117,-2.277967,-0.040317,-0.010995,-0.017104
2026-03-09T22:33:39.063759,9.068797,-1.832902,-2.201396,-0.039095,-0.015882,-0.017104
2026-03-09T22:33:39.072759,9.107082,-1.890329,-2.321037,-0.031764,-0.020769,-0.020769
2026-03-09T22:33:39.082759,9.154939,-1.871187,-2.234896,-0.025656,-0.025656,-0.024434
2026-03-09T22:33:39.092759,9.178867,-1.909472,-2.201396,-0.019547,-0.029321,-0.031764
2026-03-09T22:33:39.101759,9.087940,-2.062613,-2.273181,-0.013439,-0.037873,-0.039095
2026-03-09T22:33:39.111759,9.135796,-2.115255,-2.143969,0.001221,-0.046425,-0.043982
2026-03-09T22:33:39.121759,9.202795,-2.129612,-2.139183,0.013439,-0.052534,-0.046425
2026-03-09T22:33:39.130759,9.188438,-2.215753,-2.239681,0.028099,-0.053756,-0.045204
2026-03-09T22:33:39.140759,9.159724,-2.225325,-2.196611,0.039095,-0.058643,-0.039095
2026-03-09T22:33:39.149759,9.178867,-2.191825,-2.239681,0.047647,-0.061086,-0.030543
2026-03-09T22:33:39.159759,9.279366,-2.124826,-2.234896,0.052534,-0.063529,-0.020769
2026-03-09T22:33:39.169759,9.408578,-2.048256,-2.172682,0.050090,-0.059864,-0.008552
2026-03-09T22:33:39.178759,9.413364,-2.014756,-2.206182,0.045204,-0.050090,0.003665
2026-03-09T22:33:39.188759,9.346365,-2.033899,-2.230110,0.039095,-0.047647,0.013439
2026-03-09T22:33:39.197759,9.379864,-2.019542,-2.234896,0.032986,-0.047647,0.026878
2026-03-09T22:33:39.207759,9.336793,-1.928615,-2.239681,0.029321,-0.046425,0.037873
2026-03-09T22:33:39.217759,9.485148,-1.842473,-2.177468,0.021991,-0.048869,0.047647
2026-03-09T22:33:39.226759,9.403792,-1.751546,-2.187039,0.012217,-0.047647,0.051312
2026-03-09T22:33:39.236759,9.442077,-1.837687,-2.124826,0.001221,-0.048869,0.050090
2026-03-09T22:33:39.246759,9.470791,-1.866401,-2.076970,0.006108,-0.047647,0.045204
2026-03-09T22:33:39.255759,9.399007,-1.818545,-2.120040,0.010995,-0.048869,0.040317
2026-03-09T22:33:39.265759,9.475577,-1.794616,-2.062613,0.018325,-0.051312,0.035430
2026-03-09T22:33:39.274759,9.446863,-1.636690,-2.081755,0.023212,-0.050090,0.031764
2026-03-09T22:33:39.284759,9.408578,-1.694118,-2.057827,0.019547,-0.045204,0.028099
2026-03-09T22:33:39.294759,9.427721,-1.722832,-2.105683,0.017104,-0.040317,0.025656
2026-03-09T22:33:39.303759,9.360722,-1.646261,-2.067398,0.015882,-0.037873,0.020769
2026-03-09T22:33:39.313759,9.384650,-1.679761,-2.110469,0.010995,-0.034208,0.015882
2026-03-09T22:33:39.322759,9.346365,-1.655833,-2.124826,0.006108,-0.034208,0.013439
2026-03-09T22:33:39.332759,9.379864,-1.808973,-2.129612,0.007330,-0.037873,0.008552
2026-03-09T22:33:39.342759,9.279366,-1.761117,-2.139183,0.009773,-0.035430,0.003665
2026-03-09T22:33:39.351759,9.265009,-1.785045,-2.081755,0.015882,-0.036651,0.000000
2026-03-09T22:33:39.361759,9.260223,-1.741974,-2.129612,0.021991,-0.039095,-0.002443
2026-03-09T22:33:39.371759,9.327222,-1.761117,-2.230110,0.021991,-0.039095,-0.008552
2026-03-09T22:33:39.380759,9.336793,-1.799402,-2.100898,0.019547,-0.042760,-0.014660
2026-03-09T22:33:39.390759,9.355936,-1.832902,-2.215753,0.023212,-0.045204,-0.019547
2026-03-09T22:33:39.399759,9.312865,-1.856830,-2.220539,0.017104,-0.046425,-0.026878
2026-03-09T22:33:39.409759,9.312865,-1.986042,-2.230110,0.017104,-0.048869,-0.032986
2026-03-09T22:33:39.419759,9.298508,-2.029113,-2.148754,0.017104,-0.051312,-0.035430
2026-03-09T22:33:39.428759,9.394221,-1.971685,-2.134397,0.020769,-0.051312,-0.032986
2026-03-09T22:33:39.438759,9.360722,-2.005185,-2.120040,0.020769,-0.052534,-0.029321
2026-03-09T22:33:39.447759,9.427721,-2.009970,-2.129612,0.018325,-0.050090,-0.023212
2026-03-09T22:33:39.457759,9.322436,-2.000399,-2.038684,0.013439,-0.045204,-0.015882
2026-03-09T22:33:39.467759,9.284151,-2.057827,-2.009970,0.013439,-0.043982,-0.007330
2026-03-09T22:33:39.476759,9.317651,-1.966900,-1.995614,0.017104,-0.045204,0.001221
2026-03-09T22:33:39.486759,9.269794,-2.043470,-2.110469,0.019547,-0.043982,0.007330
2026-03-09T22:33:39.496759,9.399007,-1.986042,-2.091326,0.028099,-0.041538,0.010995
2026-03-09T22:33:39.505759,9.408578,-2.033899,-2.105683,0.032986,-0.040317,0.012217
2026-03-09T22:33:39.515759,9.332008,-1.981257,-2.110469,0.043982,-0.040317,0.012217
2026-03-09T22:33:39.524759,9.403792,-1.880758,-2.134397,0.052534,-0.043982,0.012217
2026-03-09T22:33:39.534759,9.470791,-1.785045,-2.143969,0.058643,-0.043982,0.012217
2026-03-09T22:33:39.544759,9.466006,-1.670190,-2.100898,0.052534,-0.041538,0.010995
2026-03-09T22:33:39.553759,9.427721,-1.708475,-2.163111,0.047647,-0.040317,0.008552
2026-03-09T22:33:39.563759,9.341579,-1.651047,-2.139183,0.043982,-0.039095,0.003665
2026-03-09T22:33:39.572759,9.293722,-1.665404,-2.091326,0.040317,-0.039095,-0.003665
2026-03-09T22:33:39.582759,9.293722,-1.727617,-2.167897,0.035430,-0.037873,-0.006108
2026-03-09T22:33:39.592759,9.284151,-1.694118,-2.187039,0.029321,-0.045204,-0.012217
2026-03-09T22:33:39.601759,9.269794,-1.737189,-2.172682,0.021991,-0.048869,-0.019547
2026-03-09T22:33:39.611759,9.332008,-1.847259,-2.115255,0.015882,-0.046425,-0.024434
2026-03-09T22:33:39.621759,9.346365,-1.890329,-2.143969,0.017104,-0.047647,-0.025656
2026-03-09T22:33:39.630759,9.351150,-1.919043,-2.134397,0.013439,-0.048869,-0.024434
2026-03-09T22:33:39.640759,9.341579,-1.942971,-2.110469,0.018325,-0.048869,-0.021991
2026-03-09T22:33:39.649759,9.298508,-1.871187,-2.067398,0.013439,-0.050090,-0.018325
2026-03-09T22:33:39.659759,9.322436,-1.928615,-2.029113,0.013439,-0.050090,-0.012217
2026-03-09T22:33:39.669759,9.241080,-1.947757,-2.048256,0.017104,-0.051312,-0.009773
2026-03-09T22:33:39.678759,9.236295,-1.928615,-2.005185,0.024434,-0.051312,-0.010995
2026-03-09T22:33:39.688759,9.284151,-1.957328,-2.029113,0.029321,-0.052534,-0.012217
2026-03-09T22:33:39.697759,9.336793,-2.009970,-2.100898,0.036651,-0.053756,-0.013439
2026-03-09T22:33:39.707759,9.288937,-2.019542,-2.100898,0.042760,-0.056199,-0.015882
2026-03-09T22:33:39.717759,9.346365,-2.000399,-2.129612,0.047647,-0.057421,-0.017104
2026-03-09T22:33:39.726759,9.394221,-1.942971,-2.124826,0.050090,-0.054977,-0.017104
2026-03-09T22:33:39.736759,9.341579,-1.923829,-2.134397,0.043982,-0.056199,-0.010995
2026-03-09T22:33:39.746759,9.375078,-1.880758,-2.134397,0.040317,-0.059864,-0.002443
2026-03-09T22:33:39.755759,9.470791,-1.808973,-2.072184,0.034208,-0.058643,0.002443
2026-03-09T22:33:39.765759,9.432506,-1.832902,-2.072184,0.031764,-0.050090,0.007330
2026-03-09T22:33:39.774759,9.422935,-1.727617,-2.086541,0.026878,-0.046425,0.008552
2026-03-09T22:33:39.784759,9.341579,-1.818545,-2.100898,0.024434,-0.043982,0.004886
2026-03-09T22:33:39.794759,9.370293,-1.880758,-2.153540,0.028099,-0.045204,0.001221
2026-03-09T22:33:39.803759,9.327222,-1.871187,-2.139183,0.037873,-0.048869,-0.006108
2026-03-09T22:33:39.813759,9.379864,-1.789831,-2.191825,0.041538,-0.052534,-0.010995
2026-03-09T22:33:39.822759,9.379864,-1.703689,-2.196611,0.040317,-0.052534,-0.014660
2026-03-09T22:33:39.832759,9.437292,-1.703689,-2.210968,0.030543,-0.051312,-0.013439
2026-03-09T22:33:39.842759,9.336793,-1.732403,-2.182254,0.020769,-0.048869,-0.010995
2026-03-09T22:33:39.851759,9.351150,-1.660618,-2.081755,0.010995,-0.046425,-0.007330
2026-03-09T22:33:39.861759,9.351150,-1.708475,-2.124826,-0.002443,-0.043982,-0.007330
2026-03-09T22:33:39.871759,9.284151,-1.746760,-2.067398,-0.012217,-0.047647,-0.007330
2026-03-09T22:33:39.880759,9.288937,-1.765903,-2.115255,-0.018325,-0.045204,-0.008552
2026-03-09T22:33:39.890759,9.274580,-1.885544,-2.177468,-0.026878,-0.046425,-0.009773
2026-03-09T22:33:39.899759,9.308079,-2.024327,-2.105683,-0.023212,-0.050090,-0.013439
2026-03-09T22:33:39.909759,9.245866,-2.081755,-2.086541,-0.010995,-0.052534,-0.018325
2026-03-09T22:33:39.919759,9.245866,-2.110469,-2.057827,0.000000,-0.053756,-0.020769
2026-03-09T22:33:39.928759,9.269794,-2.134397,-2.134397,0.009773,-0.057421,-0.020769
2026-03-09T22:33:39.938759,9.317651,-2.182254,-2.201396,0.018325,-0.058643,-0.017104
2026-03-09T22:33:39.947759,9.346365,-2.134397,-2.163111,0.026878,-0.056199,-0.009773
2026-03-09T22:33:39.957759,9.274580,-2.153540,-2.086541,0.036651,-0.053756,-0.001221
2026-03-09T22:33:39.967759,9.351150,-2.062613,-2.143969,0.046425,-0.052534,0.006108
2026-03-09T22:33:39.976759,9.265009,-2.024327,-2.086541,0.051312,-0.050090,0.015882
2026-03-09T22:33:39.986759,9.341579,-1.904686,-2.096112,0.051312,-0.045204,0.025656
2026-03-09T22:33:39.996759,9.298508,-1.794616,-2.148754,0.041538,-0.041538,0.032986
2026-03-09T22:33:40.005759,9.351150,-1.756331,-2.167897,0.028099,-0.041538,0.035430
2026-03-09T22:33:40.015759,9.346365,-1.823330,-2.210968,0.024434,-0.045204,0.032986
2026-03-09T22:33:40.024759,9.403792,-1.885544,-2.158325,0.019547,-0.052534,0.026878
2026-03-09T22:33:40.034759,9.418149,-1.732403,-2.158325,0.025656,-0.056199,0.020769
2026-03-09T22:33:40.044759,9.475577,-1.651047,-2.100898,0.028099,-0.054977,0.014660
2026-03-09T22:33:40.053759,9.413364,-1.641476,-2.072184,0.024434,-0.052534,0.009773
2026-03-09T22:33:40.063759,9.408578,-1.593619,-2.072184,0.018325,-0.048869,0.004886
2026-03-09T22:33:40.072759,9.341579,-1.617548,-2.033899,0.006108,-0.047647,0.003665
2026-03-09T22:33:40.082759,9.284151,-1.703689,-2.134397,-0.007330,-0.047647,0.001221
2026-03-09T22:33:40.092759,9.346365,-1.789831,-2.033899,-0.014660,-0.047647,0.000000
2026-03-09T22:33:40.101759,9.355936,-1.804188,-2.019542,-0.015882,-0.043982,-0.002443
2026-03-09T22:33:40.111759,9.322436,-1.818545,-2.076970,-0.018325,-0.042760,-0.003665
2026-03-09T22:33:40.121759,9.370293,-1.923829,-2.038684,-0.019547,-0.037873,-0.004886
2026-03-09T22:33:40.130759,9.365507,-1.909472,-2.043470,-0.013439,-0.030543,-0.006108
2026-03-09T22:33:40.140759,9.379864,-1.904686,-2.167897,-0.010995,-0.032986,-0.006108
2026-03-09T22:33:40.149759,9.355936,-1.842473,-2.153540,-0.012217,-0.034208,-0.003665
2026-03-09T22:33:40.159759,9.288937,-1.842473,-2.210968,-0.018325,-0.040317,-0.004886
2026-03-09T22:33:40.169759,9.274580,-1.957328,-2.139183,-0.023212,-0.047647,-0.003665
2026-03-09T22:33:40.178759,9.327222,-1.952543,-2.129612,-0.018325,-0.056199,-0.003665
2026-03-09T22:33:40.188759,9.332008,-2.014756,-2.076970,-0.012217,-0.062308,-0.004886
2026-03-09T22:33:40.197759,9.279366,-2.091326,-2.081755,-0.006108,-0.064751,-0.008552
2026-03-09T22:33:40.207759,9.293722,-2.153540,-2.062613,0.001221,-0.069638,-0.008552
2026-03-09T22:33:40.217759,9.322436,-2.182254,-2.014756,0.014660,-0.070860,-0.004886
2026-03-09T22:33:40.226759,9.303294,-2.177468,-1.986042,0.025656,-0.070860,-0.003665
2026-03-09T22:33:40.236759,9.408578,-2.124826,-1.981257,0.032986,-0.064751,0.000000
2026-03-09T22:33:40.246759,9.470791,-2.081755,-1.981257,0.034208,-0.058643,0.006108
2026-03-09T22:33:40.255759,9.427721,-1.966900,-2.005185,0.040317,-0.057421,0.009773
2026-03-09T22:33:40.265759,9.446863,-1.976471,-1.971685,0.039095,-0.048869,0.013439
2026-03-09T22:33:40.274759,9.485148,-1.852044,-2.076970,0.047647,-0.045204,0.010995
2026-03-09T22:33:40.284759,9.456434,-1.837687,-1.990828,0.043982,-0.043982,0.010995
2026-03-09T22:33:40.294759,9.413364,-1.818545,-2.096112,0.042760,-0.043982,0.009773
2026-03-09T22:33:40.303759,9.408578,-1.761117,-2.072184,0.042760,-0.045204,0.006108
2026-03-09T22:33:40.313759,9.346365,-1.751546,-2.139183,0.039095,-0.043982,0.003665
2026-03-09T22:33:40.322759,9.389435,-1.741974,-2.100898,0.034208,-0.046425,0.001221
2026-03-09T22:33:40.332759,9.384650,-1.789831,-2.148754,0.028099,-0.047647,-0.002443
2026-03-09T22:33:40.342759,9.279366,-1.703689,-2.129612,0.024434,-0.047647,-0.003665
2026-03-09T22:33:40.351759,9.403792,-1.818545,-2.072184,0.023212,-0.051312,-0.008552
2026-03-09T22:33:40.361759,9.394221,-1.737189,-2.153540,0.021991,-0.050090,-0.014660
2026-03-09T22:33:40.371759,9.279366,-1.813759,-2.187039,0.019547,-0.051312,-0.020769
2026-03-09T22:33:40.380759,9.308079,-1.880758,-2.120040,0.014660,-0.054977,-0.025656
2026-03-09T22:33:40.390759,9.341579,-1.914258,-2.139183,0.014660,-0.057421,-0.026878
2026-03-09T22:33:40.399759,9.346365,-1.904686,-2.086541,0.017104,-0.059864,-0.026878
2026-03-09T22:33:40.409759,9.312865,-1.990828,-2.086541,0.014660,-0.059864,-0.024434
2026-03-09T22:33:40.419759,9.308079,-2.048256,-2.105683,0.018325,-0.057421,-0.018325
2026-03-09T22:33:40.428759,9.279366,-2.033899,-2.100898,0.024434,-0.059864,-0.009773
2026-03-09T22:33:40.438759,9.274580,-2.019542,-2.053041,0.026878,-0.059864,0.001221
2026-03-09T22:33:40.447759,9.341579,-1.947757,-2.158325,0.024434,-0.054977,0.009773
2026-03-09T22:33:40.457759,9.336793,-1.938186,-2.134397,0.014660,-0.048869,0.015882
2026-03-09T22:33:40.467759,9.341579,-1.928615,-2.120040,0.010995,-0.048869,0.020769
2026-03-09T22:33:40.476759,9.288937,-1.928615,-2.124826,0.009773,-0.052534,0.019547
2026-03-09T22:33:40.486759,9.332008,-1.914258,-2.105683,0.012217,-0.056199,0.017104
2026-03-09T22:33:40.496759,9.375078,-1.895115,-2.091326,0.015882,-0.057421,0.013439
2026-03-09T22:33:40.505759,9.466006,-1.804188,-2.081755,0.013439,-0.059864,0.007330
2026-03-09T22:33:40.515759,9.432506,-1.765903,-2.029113,0.010995,-0.052534,0.004886
2026-03-09T22:33:40.524759,9.317651,-1.813759,-2.105683,0.000000,-0.045204,0.003665
2026-03-09T22:33:40.534759,9.341579,-1.832902,-2.105683,-0.008552,-0.046425,0.003665
2026-03-09T22:33:40.544759,9.360722,-1.895115,-2.120040,-0.014660,-0.048869,0.003665
2026-03-09T22:33:40.553759,9.351150,-1.909472,-2.100898,-0.017104,-0.047647,0.000000
2026-03-09T22:33:40.563759,9.288937,-1.986042,-2.038684,-0.010995,-0.048869,-0.003665
2026-03-09T22:33:40.572759,9.346365,-1.962114,-2.053041,-0.001221,-0.052534,-0.006108
2026-03-09T22:33:40.582759,9.308079,-2.019542,-2.081755,0.006108,-0.053756,-0.008552
2026-03-09T22:33:40.592759,9.265009,-2.105683,-2.067398,0.015882,-0.050090,-0.014660
2026-03-09T22:33:40.601759,9.322436,-2.009970,-2.100898,0.029321,-0.053756,-0.017104
2026-03-09T22:33:40.611759,9.355936,-1.962114,-2.081755,0.035430,-0.054977,-0.015882
2026-03-09T22:33:40.621759,9.341579,-2.009970,-2.110469,0.032986,-0.051312,-0.013439
2026-03-09T22:33:40.630759,9.384650,-1.928615,-2.148754,0.030543,-0.051312,-0.012217
2026-03-09T22:33:40.640759,9.312865,-1.885544,-2.081755,0.029321,-0.054977,-0.010995
2026-03-09T22:33:40.649759,9.389435,-1.928615,-2.072184,0.023212,-0.051312,-0.003665
2026-03-09T22:33:40.659759,9.274580,-1.971685,-2.076970,0.019547,-0.051312,0.000000
2026-03-09T22:33:40.669759,9.308079,-1.890329,-2.110469,0.021991,-0.050090,0.007330
2026-03-09T22:33:40.678759,9.327222,-1.875972,-2.120040,0.019547,-0.047647,0.010995
2026-03-09T22:33:40.688759,9.279366,-1.842473,-2.086541,0.015882,-0.047647,0.010995
2026-03-09T22:33:40.697759,9.308079,-1.890329,-2.172682,0.015882,-0.050090,0.009773
2026-03-09T22:33:40.707759,9.308079,-1.933400,-2.129612,0.020769,-0.056199,0.000000
2026-03-09T22:33:40.717759,9.327222,-1.952543,-2.081755,0.028099,-0.063529,-0.008552
2026-03-09T22:33:40.726759,9.413364,-1.942971,-2.081755,0.034208,-0.063529,-0.015882
2026-03-09T22:33:40.736759,9.418149,-1.842473,-2.148754,0.029321,-0.061086,-0.017104
2026-03-09T22:33:40.746759,9.399007,-1.785045,-2.115255,0.018325,-0.054977,-0.013439
2026-03-09T22:33:40.755759,9.375078,-1.794616,-2.143969,0.004886,-0.052534,-0.009773
2026-03-09T22:33:40.765759,9.351150,-1.799402,-2.110469,-0.009773,-0.047647,-0.004886
2026-03-09T22:33:40.774759,9.360722,-1.861615,-2.124826,-0.023212,-0.045204,-0.002443
2026-03-09T22:33:40.784759,9.284151,-1.966900,-2.153540,-0.031764,-0.043982,-0.002443
2026-03-09T22:33:40.794759,9.298508,-2.167897,-2.096112,-0.026878,-0.045204,-0.002443
2026-03-09T22:33:40.803759,9.332008,-2.096112,-2.100898,-0.015882,-0.046425,-0.002443
2026-03-09T22:33:40.813759,9.322436,-2.067398,-2.053041,-0.004886,-0.050090,-0.002443
2026-03-09T22:33:40.822759,9.312865,-2.143969,-2.072184,0.008552,-0.053756,-0.003665
2026-03-09T22:33:40.832759,9.298508,-2.091326,-2.076970,0.015882,-0.054977,-0.001221
2026-03-09T22:33:40.842759,9.346365,-2.024327,-2.100898,0.019547,-0.053756,0.002443
2026-03-09T22:33:40.851759,9.355936,-1.971685,-2.105683,0.021991,-0.057421,0.003665
2026-03-09T22:33:40.861759,9.279366,-1.928615,-2.072184,0.028099,-0.059864,0.004886
2026-03-09T22:33:40.871759,9.360722,-1.938186,-2.100898,0.028099,-0.059864,0.007330
2026-03-09T22:33:40.880759,9.418149,-1.919043,-2.086541,0.025656,-0.058643,0.007330
2026-03-09T22:33:40.890759,9.384650,-1.895115,-2.129612,0.020769,-0.051312,0.007330
2026-03-09T22:33:40.899759,9.403792,-1.775474,-2.129612,0.015882,-0.051312,0.007330
2026-03-09T22:33:40.909759,9.288937,-1.751546,-2.172682,0.009773,-0.050090,0.004886
2026-03-09T22:33:40.919759,9.279366,-1.909472,-2.120040,-0.002443,-0.048869,0.003665
2026-03-09T22:33:40.928759,9.351150,-1.813759,-2.120040,-0.007330,-0.051312,0.003665
2026-03-09T22:33:40.938759,9.312865,-1.895115,-2.100898,-0.013439,-0.052534,0.002443
2026-03-09T22:33:40.947759,9.298508,-2.005185,-2.053041,-0.007330,-0.057421,-0.001221
2026-03-09T22:33:40.957759,9.375078,-1.986042,-2.043470,0.001221,-0.054977,-0.007330
2026-03-09T22:33:40.967759,9.355936,-2.076970,-2.091326,0.008552,-0.058643,-0.009773
2026-03-09T22:33:40.976759,9.370293,-2.014756,-2.091326,0.019547,-0.058643,-0.010995
2026-03-09T22:33:40.986759,9.370293,-2.019542,-2.134397,0.018325,-0.057421,-0.012217
2026-03-09T22:33:40.996759,9.279366,-2.005185,-2.086541,0.015882,-0.056199,-0.009773
2026-03-09T22:33:41.005759,9.336793,-2.019542,-2.005185,0.015882,-0.056199,-0.007330
2026-03-09T22:33:41.015759,9.327222,-2.033899,-2.024327,0.013439,-0.056199,-0.003665
2026-03-09T22:33:41.024759,9.332008,-1.938186,-2.048256,0.013439,-0.053756,-0.001221
2026-03-09T22:33:41.034759,9.346365,-2.029113,-2.081755,0.015882,-0.053756,0.000000
2026-03-09T22:33:41.044759,9.370293,-2.024327,-2.115255,0.017104,-0.054977,0.003665
2026-03-09T22:33:41.053759,9.346365,-1.986042,-2.076970,0.019547,-0.052534,0.003665
2026-03-09T22:33:41.063759,9.279366,-1.962114,-2.120040,0.024434,-0.050090,0.002443
2026-03-09T22:33:41.072759,9.312865,-1.952543,-2.148754,0.026878,-0.051312,0.002443
2026-03-09T22:33:41.082759,9.355936,-1.856830,-2.139183,0.025656,-0.053756,0.001221
2026-03-09T22:33:41.092759,9.336793,-1.928615,-2.143969,0.018325,-0.052534,0.000000
2026-03-09T22:33:41.101759,9.332008,-1.938186,-2.086541,0.018325,-0.053756,-0.001221
2026-03-09T22:33:41.111759,9.360722,-1.919043,-2.076970,0.017104,-0.052534,-0.002443
2026-03-09T22:33:41.121759,9.308079,-1.875972,-2.076970,0.013439,-0.056199,-0.003665
2026-03-09T22:33:41.130759,9.327222,-1.942971,-2.086541,0.008552,-0.057421,-0.003665
2026-03-09T22:33:41.140759,9.355936,-1.957328,-2.100898,0.014660,-0.057421,-0.006108
2026-03-09T22:33:41.149759,9.360722,-1.933400,-2.053041,0.012217,-0.056199,-0.008552
2026-03-09T22:33:41.159759,9.341579,-1.966900,-2.105683,0.014660,-0.057421,-0.009773
2026-03-09T22:33:41.169759,9.355936,-2.000399,-2.124826,0.020769,-0.061086,-0.010995
2026-03-09T22:33:41.178759,9.394221,-1.952543,-2.038684,0.024434,-0.061086,-0.012217
2026-03-09T22:33:41.188759,9.379864,-1.942971,-2.129612,0.019547,-0.054977,-0.008552
2026-03-09T22:33:41.197759,9.389435,-1.856830,-2.110469,0.013439,-0.053756,-0.006108
2026-03-09T22:33:41.207759,9.351150,-1.933400,-2.148754,0.004886,-0.051312,-0.003665
2026-03-09T22:33:41.217759,9.351150,-1.875972,-2.110469,0.002443,-0.050090,0.000000
2026-03-09T22:33:41.226759,9.355936,-1.880758,-2.120040,-0.004886,-0.050090,0.002443
2026-03-09T22:33:41.236759,9.375078,-1.962114,-2.096112,-0.017104,-0.050090,0.002443
2026-03-09T22:33:41.246759,9.360722,-2.019542,-2.096112,-0.013439,-0.047647,0.000000
2026-03-09T22:33:41.255759,9.308079,-2.048256,-2.110469,-0.009773,-0.051312,-0.004886
2026-03-09T22:33:41.265759,9.250652,-2.053041,-2.129612,0.004886,-0.056199,-0.009773
2026-03-09T22:33:41.274759,9.298508,-2.105683,-2.048256,0.018325,-0.062308,-0.012217
2026-03-09T22:33:41.284759,9.346365,-2.053041,-2.053041,0.023212,-0.062308,-0.012217
2026-03-09T22:33:41.294759,9.312865,-2.053041,-2.057827,0.028099,-0.062308,-0.010995
2026-03-09T22:33:41.303759,9.308079,-2.014756,-2.053041,0.035430,-0.061086,-0.009773
2026-03-09T22:33:41.313759,9.375078,-2.024327,-2.072184,0.035430,-0.058643,-0.006108
2026-03-09T22:33:41.322759,9.394221,-1.919043,-2.148754,0.030543,-0.058643,-0.004886
2026-03-09T22:33:41.332759,9.355936,-1.909472,-2.033899,0.018325,-0.052534,0.000000
2026-03-09T22:33:41.342759,9.384650,-1.933400,-2.053041,0.008552,-0.047647,0.003665
2026-03-09T22:33:41.351759,9.322436,-1.928615,-2.100898,0.004886,-0.050090,0.003665
2026-03-09T22:33:41.361759,9.293722,-2.009970,-2.043470,0.007330,-0.053756,0.000000
2026-03-09T22:33:41.371759,9.207581,-1.981257,-2.057827,0.012217,-0.056199,-0.004886
2026-03-09T22:33:41.380759,9.274580,-1.995614,-2.086541,0.018325,-0.061086,-0.007330
2026-03-09T22:33:41.390759,9.202795,-1.938186,-2.100898,0.024434,-0.064751,-0.009773
2026-03-09T22:33:41.399759,9.308079,-1.952543,-2.153540,0.025656,-0.064751,-0.009773
2026-03-09T22:33:41.409759,9.384650,-1.895115,-2.129612,0.021991,-0.067195,-0.010995
2026-03-09T22:33:41.419759,9.456434,-1.938186,-2.158325,0.019547,-0.062308,-0.008552
2026-03-09T22:33:41.428759,9.466006,-1.962114,-2.086541,0.013439,-0.058643,-0.008552
2026-03-09T22:33:41.438759,9.384650,-1.919043,-2.096112,0.009773,-0.056199,-0.004886
2026-03-09T22:33:41.447759,9.351150,-1.952543,-2.091326,0.004886,-0.052534,-0.002443
2026-03-09T22:33:41.457759,9.351150,-1.962114,-2.029113,-0.002443,-0.047647,0.000000
2026-03-09T22:33:41.467759,9.279366,-1.957328,-2.129612,-0.003665,-0.046425,0.001221
2026-03-09T22:33:41.476759,9.308079,-1.938186,-2.081755,-0.008552,-0.047647,0.003665
2026-03-09T22:33:41.486759,9.317651,-1.966900,-2.081755,-0.006108,-0.047647,0.003665
2026-03-09T22:33:41.496759,9.274580,-2.053041,-2.100898,-0.006108,-0.046425,0.002443
2026-03-09T22:33:41.505759,9.332008,-2.014756,-2.005185,-0.002443,-0.050090,-0.001221
2026-03-09T22:33:41.515759,9.384650,-2.000399,-2.110469,0.000000,-0.045204,-0.001221
2026-03-09T22:33:41.524759,9.332008,-1.990828,-2.076970,0.002443,-0.042760,0.000000
2026-03-09T22:33:41.534759,9.293722,-2.019542,-2.096112,0.007330,-0.045204,-0.002443
2026-03-09T22:33:41.544759,9.255437,-2.005185,-2.139183,0.012217,-0.047647,0.003665
2026-03-09T22:33:41.553759,9.265009,-1.919043,-2.067398,0.015882,-0.048869,0.004886
2026-03-09T22:33:41.563759,9.260223,-1.871187,-2.163111,0.014660,-0.052534,0.002443
2026-03-09T22:33:41.572759,9.250652,-1.842473,-2.172682,0.015882,-0.053756,0.001221
2026-03-09T22:33:41.582759,9.159724,-1.818545,-2.105683,0.015882,-0.059864,-0.003665
2026-03-09T22:33:41.592759,9.169296,-1.847259,-2.172682,0.015882,-0.067195,-0.009773
2026-03-09T22:33:41.601759,9.274580,-1.861615,-2.139183,0.017104,-0.074525,-0.015882
2026-03-09T22:33:41.611759,9.159724,-1.880758,-2.134397,0.019547,-0.078190,-0.023212
2026-03-09T22:33:41.621759,9.202795,-1.995614,-2.196611,0.023212,-0.084299,-0.031764
2026-03-09T22:33:41.630759,9.303294,-2.057827,-2.172682,0.032986,-0.092851,-0.043982
2026-03-09T22:33:41.640759,9.422935,-2.038684,-2.120040,0.045204,-0.097738,-0.053756
2026-03-09T22:33:41.649759,9.480363,-2.033899,-2.134397,0.046425,-0.096516,-0.058643
2026-03-09T22:33:41.659759,9.461220,-2.009970,-1.976471,0.037873,-0.086742,-0.057421
2026-03-09T22:33:41.669759,9.370293,-2.029113,-1.986042,0.023212,-0.078190,-0.051312
2026-03-09T22:33:41.678759,9.389435,-2.038684,-2.038684,0.007330,-0.068416,-0.040317
2026-03-09T22:33:41.688759,9.284151,-2.105683,-2.081755,-0.008552,-0.062308,-0.028099
2026-03-09T22:33:41.697759,9.308079,-2.124826,-2.110469,-0.021991,-0.062308,-0.012217
2026-03-09T22:33:41.707759,9.317651,-2.187039,-2.148754,-0.031764,-0.065973,0.004886
2026-03-09T22:33:41.717759,9.394221,-2.105683,-2.067398,-0.032986,-0.069638,0.018325
2026-03-09T22:33:41.726759,9.379864,-2.134397,-2.038684,-0.034208,-0.067195,0.025656
2026-03-09T22:33:41.736759,9.308079,-2.100898,-2.043470,-0.032986,-0.068416,0.030543
2026-03-09T22:33:41.746759,9.317651,-2.158325,-2.053041,-0.024434,-0.069638,0.026878
2026-03-09T22:33:41.755759,9.327222,-2.043470,-2.206182,-0.015882,-0.069638,0.020769
2026-03-09T22:33:41.765759,9.308079,-2.005185,-2.182254,-0.025656,-0.065973,0.013439
2026-03-09T22:33:41.774759,9.250652,-2.086541,-2.215753,-0.035430,-0.068416,0.010995
2026-03-09T22:33:41.784759,9.279366,-2.024327,-2.167897,-0.041538,-0.068416,0.010995
2026-03-09T22:33:41.794759,9.341579,-2.091326,-2.143969,-0.051312,-0.065973,0.010995
2026-03-09T22:33:41.803759,9.308079,-2.263610,-2.038684,-0.056199,-0.062308,0.013439
2026-03-09T22:33:41.813759,9.288937,-2.277967,-2.019542,-0.050090,-0.067195,0.017104
2026-03-09T22:33:41.822759,9.442077,-2.249253,-1.962114,-0.037873,-0.069638,0.019547
2026-03-09T22:33:41.832759,9.389435,-2.301895,-1.952543,-0.024434,-0.063529,0.015882
2026-03-09T22:33:41.842759,9.317651,-2.268395,-2.067398,-0.008552,-0.063529,0.014660
2026-03-09T22:33:41.851759,9.303294,-2.292324,-2.100898,0.012217,-0.069638,0.009773
2026-03-09T22:33:41.861759,9.303294,-2.254038,-2.076970,0.028099,-0.070860,0.008552
2026-03-09T22:33:41.871759,9.370293,-2.359323,-2.081755,0.043982,-0.073303,0.006108
2026-03-09T22:33:41.880759,9.432506,-2.120040,-2.091326,0.062308,-0.074525,0.002443
2026-03-09T22:33:41.890759,9.442077,-2.096112,-2.177468,0.065973,-0.070860,-0.003665
2026-03-09T22:33:41.899759,9.475577,-1.966900,-2.191825,0.065973,-0.064751,-0.002443
2026-03-09T22:33:41.909759,9.418149,-2.005185,-2.287538,0.062308,-0.058643,-0.002443
2026-03-09T22:33:41.919759,9.432506,-2.048256,-2.210968,0.057421,-0.056199,-0.001221
2026-03-09T22:33:41.928759,9.351150,-1.962114,-2.273181,0.048869,-0.054977,0.002443
2026-03-09T22:33:41.938759,9.298508,-1.995614,-2.273181,0.034208,-0.051312,0.002443
2026-03-09T22:33:41.947759,9.322436,-2.014756,-2.230110,0.034208,-0.054977,0.001221
2026-03-09T22:33:41.957759,9.351150,-1.981257,-2.292324,0.036651,-0.051312,0.000000
2026-03-09T22:33:41.967759,9.308079,-2.072184,-2.335394,0.042760,-0.051312,-0.001221
2026-03-09T22:33:41.976759,9.303294,-2.072184,-2.292324,0.052534,-0.059864,-0.001221
2026-03-09T22:33:41.986759,9.312865,-2.019542,-2.349751,0.058643,-0.067195,-0.002443
2026-03-09T22:33:41.996759,9.284151,-1.933400,-2.321037,0.070860,-0.073303,-0.006108
2026-03-09T22:33:42.005759,9.279366,-1.933400,-2.354537,0.079412,-0.081855,-0.009773
2026-03-09T22:33:42.015759,9.221938,-1.904686,-2.244467,0.083077,-0.089186,-0.010995
2026-03-09T22:33:42.024759,9.169296,-1.832902,-2.210968,0.080634,-0.092851,-0.010995
2026-03-09T22:33:42.034759,9.198010,-1.971685,-2.177468,0.078190,-0.101403,-0.013439
2026-03-09T22:33:42.044759,9.265009,-1.995614,-2.139183,0.086742,-0.107512,-0.015882
2026-03-09T22:33:42.053759,9.284151,-2.048256,-2.076970,0.098960,-0.103847,-0.023212
2026-03-09T22:33:42.063759,9.226723,-2.053041,-2.086541,0.118507,-0.106290,-0.029321
2026-03-09T22:33:42.072759,9.346365,-1.899901,-2.115255,0.127059,-0.102625,-0.031764
2026-03-09T22:33:42.082759,9.332008,-1.947757,-2.057827,0.124616,-0.096516,-0.036651
2026-03-09T22:33:42.092759,9.533005,-2.019542,-2.072184,0.133168,-0.090408,-0.041538
2026-03-09T22:33:42.101759,9.533005,-1.986042,-2.067398,0.135612,-0.079412,-0.042760
2026-03-09T22:33:42.111759,9.518648,-1.966900,-2.115255,0.133168,-0.058643,-0.042760
2026-03-09T22:33:42.121759,9.413364,-1.928615,-2.110469,0.123394,-0.046425,-0.037873
2026-03-09T22:33:42.130759,9.389435,-1.938186,-2.220539,0.109955,-0.042760,-0.034208
2026-03-09T22:33:42.140759,9.336793,-1.990828,-2.234896,0.105068,-0.037873,-0.029321
2026-03-09T22:33:42.149759,9.207581,-1.966900,-2.282752,0.101403,-0.041538,-0.023212
2026-03-09T22:33:42.159759,9.174081,-1.895115,-2.268395,0.096516,-0.047647,-0.013439
2026-03-09T22:33:42.169759,9.178867,-1.861615,-2.273181,0.089186,-0.048869,-0.006108
2026-03-09T22:33:42.178759,9.164510,-1.904686,-2.239681,0.084299,-0.057421,-0.002443
2026-03-09T22:33:42.188759,9.241080,-1.938186,-2.277967,0.086742,-0.063529,0.000000
2026-03-09T22:33:42.197759,9.245866,-1.957328,-2.210968,0.100181,-0.065973,-0.001221
2026-03-09T22:33:42.207759,9.303294,-1.914258,-2.215753,0.101403,-0.063529,-0.003665
2026-03-09T22:33:42.217759,9.274580,-1.971685,-2.206182,0.096516,-0.062308,-0.006108
2026-03-09T22:33:42.226759,9.308079,-1.981257,-2.163111,0.095294,-0.059864,-0.006108
2026-03-09T22:33:42.236759,9.303294,-2.014756,-2.191825,0.089186,-0.057421,-0.004886
2026-03-09T22:33:42.246759,9.245866,-2.033899,-2.139183,0.086742,-0.053756,-0.001221
2026-03-09T22:33:42.255759,9.274580,-2.038684,-2.191825,0.085521,-0.052534,0.001221
2026-03-09T22:33:42.265759,9.269794,-2.062613,-2.167897,0.079412,-0.056199,0.001221
2026-03-09T22:33:42.274759,9.269794,-2.177468,-2.215753,0.084299,-0.056199,0.002443
2026-03-09T22:33:42.284759,9.193224,-2.110469,-2.215753,0.096516,-0.058643,0.003665
2026-03-09T22:33:42.294759,9.269794,-2.129612,-2.210968,0.103847,-0.064751,0.007330
2026-03-09T22:33:42.303759,9.298508,-2.067398,-2.129612,0.111177,-0.073303,0.009773
2026-03-09T22:33:42.313759,9.389435,-2.024327,-2.105683,0.116064,-0.068416,0.012217
2026-03-09T22:33:42.322759,9.399007,-2.000399,-2.120040,0.100181,-0.062308,0.013439
2026-03-09T22:33:42.332759,9.489934,-2.091326,-2.115255,0.092851,-0.059864,0.017104
2026-03-09T22:33:42.342759,9.466006,-1.976471,-2.143969,0.095294,-0.053756,0.017104
2026-03-09T22:33:42.351759,9.437292,-2.120040,-2.172682,0.084299,-0.053756,0.020769
2026-03-09T22:33:42.361759,9.485148,-2.096112,-2.086541,0.084299,-0.057421,0.023212
2026-03-09T22:33:42.371759,9.590432,-2.019542,-2.096112,0.084299,-0.053756,0.024434
2026-03-09T22:33:42.380759,9.456434,-1.990828,-2.086541,0.081855,-0.043982,0.023212
2026-03-09T22:33:42.390759,9.370293,-2.091326,-2.134397,0.078190,-0.036651,0.023212
2026-03-09T22:33:42.399759,9.265009,-2.143969,-2.172682,0.080634,-0.036651,0.020769
2026-03-09T22:33:42.409759,9.250652,-2.100898,-2.143969,0.080634,-0.037873,0.019547
2026-03-09T22:33:42.419759,9.279366,-2.134397,-2.163111,0.091629,-0.037873,0.014660
2026-03-09T22:33:42.428759,9.183653,-2.110469,-2.120040,0.087964,-0.039095,0.014660
2026-03-09T22:33:42.438759,9.346365,-2.043470,-2.105683,0.096516,-0.040317,0.014660
2026-03-09T22:33:42.447759,9.303294,-2.057827,-2.120040,0.092851,-0.035430,0.017104
2026-03-09T22:33:42.457759,9.346365,-2.043470,-2.129612,0.086742,-0.025656,0.024434
2026-03-09T22:33:42.467759,9.332008,-1.952543,-2.129612,0.080634,-0.019547,0.029321
2026-03-09T22:33:42.476759,9.250652,-1.928615,-2.148754,0.059864,-0.017104,0.032986
2026-03-09T22:33:42.486759,9.308079,-2.053041,-2.100898,0.031764,-0.014660,0.040317
2026-03-09T22:33:42.496759,9.193224,-2.048256,-2.115255,0.028099,-0.008552,0.042760
2026-03-09T22:33:42.505759,9.150153,-2.081755,-2.177468,0.020769,-0.009773,0.041538
2026-03-09T22:33:42.515759,9.135796,-2.115255,-2.057827,0.014660,-0.018325,0.040317
2026-03-09T22:33:42.524759,9.202795,-2.139183,-2.048256,0.010995,-0.026878,0.040317
2026-03-09T22:33:42.534759,9.193224,-2.187039,-2.086541,0.018325,-0.029321,0.037873
2026-03-09T22:33:42.544759,9.231509,-2.244467,-2.048256,0.021991,-0.036651,0.039095
2026-03-09T22:33:42.553759,9.327222,-2.124826,-2.076970,0.025656,-0.037873,0.035430
2026-03-09T22:33:42.563759,9.293722,-2.182254,-2.024327,0.028099,-0.034208,0.030543
2026-03-09T22:33:42.572759,9.288937,-2.249253,-2.048256,0.028099,-0.034208,0.026878
2026-03-09T22:33:42.582759,9.298508,-2.239681,-2.076970,0.034208,-0.030543,0.021991
2026-03-09T22:33:42.592759,9.221938,-2.306680,-2.014756,0.039095,-0.032986,0.019547
2026-03-09T22:33:42.601759,9.245866,-2.230110,-2.057827,0.047647,-0.041538,0.018325
2026-03-09T22:33:42.611759,9.260223,-2.172682,-2.009970,0.045204,-0.041538,0.018325
2026-03-09T22:33:42.621759,9.217152,-2.373680,-2.067398,0.048869,-0.042760,0.018325
2026-03-09T22:33:42.630759,9.231509,-2.359323,-2.000399,0.058643,-0.043982,0.014660
2026-03-09T22:33:42.640759,9.341579,-2.335394,-1.986042,0.069638,-0.046425,0.010995
2026-03-09T22:33:42.649759,9.288937,-2.330609,-2.005185,0.078190,-0.046425,0.009773
2026-03-09T22:33:42.659759,9.303294,-2.273181,-1.981257,0.087964,-0.046425,0.010995
2026-03-09T22:33:42.669759,9.317651,-2.230110,-1.976471,0.092851,-0.046425,0.010995
2026-03-09T22:33:42.678759,9.379864,-2.053041,-1.933400,0.094073,-0.046425,0.013439
2026-03-09T22:33:42.688759,9.504291,-2.062613,-1.966900,0.089186,-0.039095,0.015882
2026-03-09T22:33:42.697759,9.466006,-2.067398,-1.981257,0.080634,-0.034208,0.018325
2026-03-09T22:33:42.707759,9.456434,-1.995614,-2.029113,0.074525,-0.034208,0.020769
2026-03-09T22:33:42.717759,9.470791,-1.990828,-1.952543,0.067195,-0.031764,0.019547
2026-03-09T22:33:42.726759,9.437292,-1.952543,-1.952543,0.061086,-0.034208,0.018325
2026-03-09T22:33:42.736759,9.442077,-1.957328,-2.005185,0.057421,-0.036651,0.018325
2026-03-09T22:33:42.746759,9.437292,-1.962114,-1.914258,0.057421,-0.035430,0.020769
2026-03-09T22:33:42.755759,9.355936,-1.880758,-1.880758,0.056199,-0.031764,0.019547
2026-03-09T22:33:42.765759,9.375078,-1.871187,-1.904686,0.051312,-0.032986,0.015882
2026-03-09T22:33:42.774759,9.399007,-1.962114,-1.914258,0.052534,-0.032986,0.010995
2026-03-09T22:33:42.784759,9.399007,-2.005185,-2.038684,0.053756,-0.029321,0.002443
2026-03-09T22:33:42.794759,9.389435,-2.053041,-1.986042,0.054977,-0.030543,-0.004886
2026-03-09T22:33:42.803759,9.408578,-2.053041,-1.986042,0.053756,-0.025656,-0.008552
2026-03-09T22:33:42.813759,9.351150,-2.033899,-2.067398,0.051312,-0.023212,-0.008552
2026-03-09T22:33:42.822759,9.365507,-1.986042,-2.096112,0.036651,-0.019547,-0.006108
2026-03-09T22:33:42.832759,9.308079,-1.986042,-2.053041,0.021991,-0.014660,0.000000
2026-03-09T22:33:42.842759,9.255437,-2.024327,-2.062613,0.002443,-0.010995,0.003665
2026-03-09T22:33:42.851759,9.193224,-2.033899,-2.005185,-0.012217,-0.015882,0.006108
2026-03-09T22:33:42.861759,9.265009,-2.100898,-2.019542,-0.024434,-0.018325,0.008552
2026-03-09T22:33:42.871759,9.274580,-2.129612,-2.043470,-0.034208,-0.021991,0.006108
2026-03-09T22:33:42.880759,9.250652,-2.230110,-2.009970,-0.037873,-0.021991,0.003665
2026-03-09T22:33:42.890759,9.207581,-2.297109,-2.062613,-0.043982,-0.023212,0.001221
2026-03-09T22:33:42.899759,9.154939,-2.426322,-1.990828,-0.042760,-0.029321,0.000000
2026-03-09T22:33:42.909759,9.212367,-2.488535,-2.053041,-0.041538,-0.036651,-0.002443
2026-03-09T22:33:42.919759,9.250652,-2.531606,-1.880758,-0.034208,-0.039095,0.000000
2026-03-09T22:33:42.928759,9.226723,-2.565105,-1.923829,-0.025656,-0.040317,0.007330
2026-03-09T22:33:42.938759,9.250652,-2.536391,-1.823330,-0.019547,-0.040317,0.014660
2026-03-09T22:33:42.947759,9.221938,-2.459821,-1.861615,-0.009773,-0.045204,0.015882
2026-03-09T22:33:42.957759,9.241080,-2.522035,-1.856830,0.003665,-0.046425,0.020769
2026-03-09T22:33:42.967759,9.236295,-2.421536,-1.866401,0.014660,-0.048869,0.023212
2026-03-09T22:33:42.976759,9.236295,-2.368894,-1.837687,0.019547,-0.047647,0.023212
2026-03-09T22:33:42.986759,9.231509,-2.273181,-1.880758,0.023212,-0.046425,0.023212
2026-03-09T22:33:42.996759,9.284151,-2.258824,-1.842473,0.019547,-0.045204,0.019547
2026-03-09T22:33:43.005759,9.245866,-2.282752,-1.933400,0.019547,-0.043982,0.017104
2026-03-09T22:33:43.015759,9.245866,-2.297109,-1.962114,0.018325,-0.047647,0.012217
2026-03-09T22:33:43.024759,9.317651,-2.354537,-1.914258,0.023212,-0.051312,0.010995
2026-03-09T22:33:43.034759,9.332008,-2.349751,-1.952543,0.029321,-0.052534,0.006108
2026-03-09T22:33:43.044759,9.322436,-2.297109,-1.942971,0.034208,-0.057421,0.006108
2026-03-09T22:33:43.053759,9.365507,-2.239681,-1.928615,0.042760,-0.061086,0.007330
2026-03-09T22:33:43.063759,9.360722,-2.301895,-1.923829,0.045204,-0.061086,0.008552
2026-03-09T22:33:43.072759,9.327222,-2.196611,-1.909472,0.045204,-0.063529,0.008552
2026-03-09T22:33:43.082759,9.399007,-2.167897,-1.866401,0.042760,-0.061086,0.009773
2026-03-09T22:33:43.092759,9.399007,-2.143969,-1.837687,0.037873,-0.058643,0.008552
2026-03-09T22:33:43.101759,9.427721,-2.076970,-1.890329,0.029321,-0.053756,0.009773
2026-03-09T22:33:43.111759,9.422935,-2.115255,-1.852044,0.019547,-0.048869,0.006108
2026-03-09T22:33:43.121759,9.403792,-2.167897,-1.938186,0.009773,-0.043982,0.007330
2026-03-09T22:33:43.130759,9.332008,-2.100898,-1.928615,-0.002443,-0.043982,0.004886
2026-03-09T22:33:43.140759,9.355936,-2.230110,-1.919043,-0.013439,-0.042760,0.002443
2026-03-09T22:33:43.149759,9.365507,-2.210968,-1.942971,-0.017104,-0.041538,0.000000
2026-03-09T22:33:43.159759,9.365507,-2.297109,-1.928615,-0.018325,-0.042760,-0.001221
2026-03-09T22:33:43.169759,9.274580,-2.277967,-1.899901,-0.019547,-0.045204,0.000000
2026-03-09T22:33:43.178759,9.293722,-2.344966,-1.938186,-0.017104,-0.045204,0.001221
2026-03-09T22:33:43.188759,9.336793,-2.316252,-1.842473,-0.012217,-0.046425,0.003665
2026-03-09T22:33:43.197759,9.265009,-2.325823,-1.885544,-0.008552,-0.046425,0.004886
2026-03-09T22:33:43.207759,9.322436,-2.354537,-1.875972,-0.010995,-0.046425,0.003665
2026-03-09T22:33:43.217759,9.322436,-2.383251,-1.852044,-0.006108,-0.046425,0.003665
2026-03-09T22:33:43.226759,9.236295,-2.407179,-1.813759,-0.001221,-0.043982,0.001221
2026-03-09T22:33:43.236759,9.260223,-2.421536,-1.832902,0.003665,-0.047647,0.000000
2026-03-09T22:33:43.246759,9.351150,-2.416750,-1.875972,0.006108,-0.048869,0.001221
2026-03-09T22:33:43.255759,9.332008,-2.392822,-1.890329,0.009773,-0.047647,0.002443
2026-03-09T22:33:43.265759,9.288937,-2.493321,-1.890329,0.012217,-0.045204,0.001221
2026-03-09T22:33:43.274759,9.269794,-2.431107,-1.866401,0.015882,-0.046425,0.003665
2026-03-09T22:33:43.284759,9.284151,-2.397608,-1.885544,0.019547,-0.048869,0.004886
2026-03-09T22:33:43.294759,9.260223,-2.378465,-1.885544,0.019547,-0.048869,0.007330
2026-03-09T22:33:43.303759,9.360722,-2.368894,-1.885544,0.020769,-0.051312,0.010995
2026-03-09T22:33:43.313759,9.341579,-2.277967,-1.914258,0.024434,-0.050090,0.009773
2026-03-09T22:33:43.322759,9.394221,-2.239681,-1.856830,0.021991,-0.050090,0.009773
2026-03-09T22:33:43.332759,9.327222,-2.273181,-1.895115,0.015882,-0.050090,0.009773
2026-03-09T22:33:43.342759,9.399007,-2.210968,-1.895115,0.010995,-0.048869,0.007330
2026-03-09T22:33:43.351759,9.375078,-2.148754,-1.890329,0.003665,-0.045204,0.007330
2026-03-09T22:33:43.361759,9.312865,-2.254038,-1.885544,-0.003665,-0.040317,0.007330
2026-03-09T22:33:43.371759,9.288937,-2.268395,-1.919043,-0.009773,-0.042760,0.004886
2026-03-09T22:33:43.380759,9.336793,-2.321037,-1.966900,-0.009773,-0.042760,0.002443
2026-03-09T22:33:43.390759,9.351150,-2.321037,-1.938186,-0.008552,-0.043982,0.000000
2026-03-09T22:33:43.399759,9.317651,-2.364108,-1.942971,-0.008552,-0.043982,-0.001221
2026-03-09T22:33:43.409759,9.274580,-2.373680,-1.837687,-0.007330,-0.045204,-0.001221
2026-03-09T22:33:43.419759,9.231509,-2.359323,-1.852044,-0.003665,-0.046425,-0.001221
2026-03-09T22:33:43.428759,9.226723,-2.373680,-1.890329,0.000000,-0.046425,0.000000
2026-03-09T22:33:43.438759,9.269794,-2.316252,-1.919043,0.001221,-0.046425,0.002443
2026-03-09T22:33:43.447759,9.317651,-2.301895,-1.904686,-0.001221,-0.046425,0.003665
2026-03-09T22:33:43.457759,9.351150,-2.325823,-1.890329,-0.006108,-0.043982,0.002443
2026-03-09T22:33:43.467759,9.336793,-2.431107,-1.986042,-0.002443,-0.047647,-0.002443
2026-03-09T22:33:43.476759,9.351150,-2.306680,-1.914258,0.000000,-0.048869,-0.004886
2026-03-09T22:33:43.486759,9.317651,-2.368894,-1.899901,0.001221,-0.051312,-0.007330
2026-03-09T22:33:43.496759,9.312865,-2.397608,-1.875972,0.000000,-0.051312,-0.008552
2026-03-09T22:33:43.505759,9.303294,-2.455035,-1.875972,0.001221,-0.051312,-0.006108
2026-03-09T22:33:43.515759,9.226723,-2.392822,-1.832902,0.000000,-0.050090,-0.004886
2026-03-09T22:33:43.524759,9.255437,-2.354537,-1.823330,0.000000,-0.051312,-0.004886
2026-03-09T22:33:43.534759,9.351150,-2.378465,-1.837687,0.000000,-0.050090,-0.003665
2026-03-09T22:33:43.544759,9.312865,-2.421536,-1.866401,0.002443,-0.048869,-0.001221
2026-03-09T22:33:43.553759,9.317651,-2.388036,-1.861615,0.000000,-0.046425,-0.001221
2026-03-09T22:33:43.563759,9.226723,-2.344966,-1.832902,0.003665,-0.046425,0.000000
2026-03-09T22:33:43.572759,9.269794,-2.297109,-1.923829,0.002443,-0.048869,0.001221
2026-03-09T22:33:43.582759,9.265009,-2.325823,-1.928615,0.001221,-0.047647,0.002443
2026-03-09T22:33:43.592759,9.303294,-2.340180,-1.928615,0.002443,-0.050090,0.000000
2026-03-09T22:33:43.601759,9.308079,-2.349751,-1.832902,0.004886,-0.056199,-0.001221
2026-03-09T22:33:43.611759,9.312865,-2.354537,-1.890329,0.006108,-0.056199,-0.002443
2026-03-09T22:33:43.621759,9.279366,-2.359323,-1.909472,0.004886,-0.054977,-0.004886
2026-03-09T22:33:43.630759,9.255437,-2.321037,-1.919043,0.006108,-0.056199,-0.006108
2026-03-09T22:33:43.640759,9.322436,-2.340180,-1.866401,0.007330,-0.057421,-0.007330
2026-03-09T22:33:43.649759,9.279366,-2.335394,-1.875972,0.008552,-0.058643,-0.008552
2026-03-09T22:33:43.659759,9.245866,-2.277967,-1.852044,0.009773,-0.058643,-0.007330
2026-03-09T22:33:43.669759,9.303294,-2.273181,-1.866401,0.007330,-0.056199,-0.006108
2026-03-09T22:33:43.678759,9.298508,-2.321037,-1.890329,0.002443,-0.054977,-0.006108
2026-03-09T22:33:43.688759,9.298508,-2.344966,-1.880758,-0.001221,-0.054977,-0.008552
2026-03-09T22:33:43.697759,9.250652,-2.359323,-1.904686,0.000000,-0.054977,-0.008552
2026-03-09T22:33:43.707759,9.322436,-2.416750,-1.885544,0.004886,-0.057421,-0.012217
2026-03-09T22:33:43.717759,9.317651,-2.388036,-1.885544,0.009773,-0.057421,-0.015882
2026-03-09T22:33:43.726759,9.322436,-2.416750,-1.899901,0.013439,-0.058643,-0.017104
2026-03-09T22:33:43.736759,9.351150,-2.364108,-1.919043,0.018325,-0.061086,-0.017104
2026-03-09T22:33:43.746759,9.317651,-2.330609,-1.899901,0.020769,-0.062308,-0.013439
2026-03-09T22:33:43.755759,9.288937,-2.411965,-1.871187,0.017104,-0.062308,-0.012217
2026-03-09T22:33:43.765759,9.332008,-2.325823,-1.904686,0.014660,-0.061086,-0.012217
2026-03-09T22:33:43.774759,9.399007,-2.263610,-1.914258,0.009773,-0.058643,-0.010995
2026-03-09T22:33:43.784759,9.351150,-2.273181,-1.875972,0.004886,-0.057421,-0.009773
2026-03-09T22:33:43.794759,9.332008,-2.282752,-1.919043,-0.001221,-0.054977,-0.008552
2026-03-09T22:33:43.803759,9.427721,-2.206182,-1.923829,-0.007330,-0.053756,-0.007330
2026-03-09T22:33:43.813759,9.269794,-2.282752,-1.890329,-0.010995,-0.052534,-0.008552
2026-03-09T22:33:43.822759,9.284151,-2.273181,-1.966900,-0.012217,-0.056199,-0.012217
2026-03-09T22:33:43.832759,9.274580,-2.344966,-1.914258,-0.009773,-0.057421,-0.018325
2026-03-09T22:33:43.842759,9.241080,-2.316252,-1.938186,-0.009773,-0.057421,-0.018325
2026-03-09T22:33:43.851759,9.279366,-2.368894,-1.976471,-0.007330,-0.062308,-0.019547
2026-03-09T22:33:43.861759,9.303294,-2.397608,-1.890329,-0.006108,-0.061086,-0.020769
2026-03-09T22:33:43.871759,9.293722,-2.373680,-1.899901,0.001221,-0.061086,-0.019547
2026-03-09T22:33:43.880759,9.317651,-2.359323,-1.904686,0.003665,-0.059864,-0.020769
2026-03-09T22:33:43.890759,9.250652,-2.416750,-1.880758,0.000000,-0.057421,-0.018325
2026-03-09T22:33:43.899759,9.245866,-2.402393,-1.890329,0.006108,-0.058643,-0.015882
2026-03-09T22:33:43.909759,9.284151,-2.421536,-1.899901,0.006108,-0.057421,-0.012217
2026-03-09T22:33:43.919759,9.288937,-2.373680,-1.923829,0.010995,-0.056199,-0.008552
2026-03-09T22:33:43.928759,9.255437,-2.445464,-1.938186,0.012217,-0.056199,-0.007330
2026-03-09T22:33:43.938759,9.255437,-2.321037,-1.938186,0.013439,-0.054977,-0.004886
2026-03-09T22:33:43.947759,9.255437,-2.330609,-1.928615,0.013439,-0.053756,-0.003665
2026-03-09T22:33:43.957759,9.269794,-2.282752,-1.976471,0.013439,-0.054977,-0.003665
2026-03-09T22:33:43.967759,9.298508,-2.354537,-1.971685,0.010995,-0.056199,-0.003665
2026-03-09T22:33:43.976759,9.351150,-2.273181,-1.895115,0.009773,-0.054977,-0.003665
2026-03-09T22:33:43.986759,9.317651,-2.316252,-1.957328,0.004886,-0.054977,-0.006108
2026-03-09T22:33:43.996759,9.312865,-2.335394,-1.971685,0.002443,-0.056199,-0.007330
2026-03-09T22:33:44.005759,9.317651,-2.373680,-1.971685,0.001221,-0.057421,-0.007330
2026-03-09T22:33:44.015759,9.269794,-2.344966,-1.971685,0.002443,-0.059864,-0.006108
2026-03-09T22:33:44.024759,9.274580,-2.364108,-1.919043,0.006108,-0.061086,-0.006108
2026-03-09T22:33:44.034759,9.346365,-2.364108,-1.947757,0.012217,-0.061086,-0.008552
2026-03-09T22:33:44.044759,9.341579,-2.383251,-1.904686,0.018325,-0.061086,-0.009773
2026-03-09T22:33:44.053759,9.274580,-2.397608,-1.899901,0.023212,-0.059864,-0.009773
2026-03-09T22:33:44.063759,9.341579,-2.330609,-1.928615,0.026878,-0.061086,-0.009773
2026-03-09T22:33:44.072759,9.308079,-2.301895,-1.933400,0.028099,-0.058643,-0.010995
2026-03-09T22:33:44.082759,9.355936,-2.239681,-1.947757,0.021991,-0.054977,-0.010995
2026-03-09T22:33:44.092759,9.312865,-2.268395,-1.952543,0.014660,-0.053756,-0.008552
2026-03-09T22:33:44.101759,9.298508,-2.292324,-1.966900,0.013439,-0.052534,-0.008552
2026-03-09T22:33:44.111759,9.265009,-2.254038,-2.029113,0.013439,-0.057421,-0.010995
2026-03-09T22:33:44.121759,9.298508,-2.263610,-2.000399,0.010995,-0.059864,-0.007330
2026-03-09T22:33:44.130759,9.217152,-2.244467,-2.005185,0.013439,-0.059864,-0.010995
2026-03-09T22:33:44.140759,9.293722,-2.225325,-1.938186,0.014660,-0.062308,-0.009773
2026-03-09T22:33:44.149759,9.293722,-2.340180,-1.966900,0.014660,-0.062308,-0.008552
2026-03-09T22:33:44.159759,9.360722,-2.287538,-1.923829,0.013439,-0.063529,-0.008552
2026-03-09T22:33:44.169759,9.379864,-2.292324,-1.933400,0.012217,-0.062308,-0.012217
2026-03-09T22:33:44.178759,9.288937,-2.321037,-1.966900,0.017104,-0.061086,-0.014660
2026-03-09T22:33:44.188759,9.365507,-2.277967,-1.971685,0.025656,-0.059864,-0.015882
2026-03-09T22:33:44.197759,9.370293,-2.306680,-1.938186,0.024434,-0.057421,-0.015882
2026-03-09T22:33:44.207759,9.293722,-2.287538,-1.957328,0.023212,-0.057421,-0.015882
2026-03-09T22:33:44.217759,9.327222,-2.254038,-1.942971,0.019547,-0.061086,-0.013439
2026-03-09T22:33:44.226759,9.288937,-2.167897,-1.952543,0.012217,-0.057421,-0.010995
2026-03-09T22:33:44.236759,9.284151,-2.215753,-1.986042,0.003665,-0.054977,-0.010995
2026-03-09T22:33:44.246759,9.303294,-2.282752,-1.995614,-0.004886,-0.056199,-0.008552
2026-03-09T22:33:44.255759,9.255437,-2.282752,-1.904686,-0.007330,-0.058643,-0.009773
2026-03-09T22:33:44.265759,9.327222,-2.311466,-1.971685,-0.006108,-0.057421,-0.010995
2026-03-09T22:33:44.274759,9.269794,-2.397608,-1.866401,-0.006108,-0.057421,-0.009773
2026-03-09T22:33:44.284759,9.231509,-2.354537,-1.971685,-0.002443,-0.053756,-0.010995
2026-03-09T22:33:44.294759,9.260223,-2.378465,-2.048256,0.000000,-0.057421,-0.007330
2026-03-09T22:33:44.303759,9.236295,-2.321037,-1.942971,0.003665,-0.056199,-0.008552
2026-03-09T22:33:44.313759,9.274580,-2.335394,-2.024327,0.007330,-0.058643,-0.008552
2026-03-09T22:33:44.322759,9.226723,-2.301895,-2.009970,0.010995,-0.061086,-0.008552
2026-03-09T22:33:44.332759,9.217152,-2.282752,-1.971685,0.013439,-0.061086,-0.008552
2026-03-09T22:33:44.342759,9.221938,-2.301895,-1.957328,0.010995,-0.061086,-0.008552
2026-03-09T22:33:44.351759,9.284151,-2.392822,-1.986042,0.012217,-0.063529,-0.008552
2026-03-09T22:33:44.361759,9.298508,-2.301895,-1.914258,0.013439,-0.063529,-0.009773
2026-03-09T22:33:44.371759,9.274580,-2.239681,-1.952543,0.014660,-0.062308,-0.012217
2026-03-09T22:33:44.380759,9.236295,-2.277967,-1.947757,0.012217,-0.061086,-0.013439
2026-03-09T22:33:44.390759,9.288937,-2.258824,-1.990828,0.014660,-0.059864,-0.012217
2026-03-09T22:33:44.399759,9.265009,-2.234896,-1.957328,0.013439,-0.057421,-0.013439
2026-03-09T22:33:44.409759,9.284151,-2.277967,-1.947757,0.014660,-0.057421,-0.014660
2026-03-09T22:33:44.419759,9.312865,-2.349751,-1.990828,0.012217,-0.058643,-0.013439
2026-03-09T22:33:44.428759,9.327222,-2.359323,-1.971685,0.015882,-0.061086,-0.012217
2026-03-09T22:33:44.438759,9.317651,-2.349751,-2.000399,0.015882,-0.063529,-0.012217
2026-03-09T22:33:44.447759,9.303294,-2.335394,-1.962114,0.019547,-0.062308,-0.008552
2026-03-09T22:33:44.457759,9.298508,-2.220539,-1.938186,0.017104,-0.062308,-0.010995
2026-03-09T22:33:44.467759,9.265009,-2.244467,-2.005185,0.009773,-0.061086,-0.008552
2026-03-09T22:33:44.476759,9.303294,-2.187039,-1.971685,0.007330,-0.061086,-0.006108
2026-03-09T22:33:44.486759,9.308079,-2.249253,-1.904686,0.001221,-0.058643,-0.006108
2026-03-09T22:33:44.496759,9.288937,-2.239681,-1.981257,-0.003665,-0.054977,-0.006108
2026-03-09T22:33:44.505759,9.293722,-2.373680,-1.909472,-0.004886,-0.054977,-0.004886
2026-03-09T22:33:44.515759,9.327222,-2.330609,-1.928615,-0.002443,-0.050090,-0.004886
2026-03-09T22:33:44.524759,9.293722,-2.402393,-1.957328,0.000000,-0.051312,-0.007330
2026-03-09T22:33:44.534759,9.355936,-2.455035,-1.986042,0.006108,-0.052534,-0.009773
2026-03-09T22:33:44.544759,9.303294,-2.335394,-1.976471,0.013439,-0.052534,-0.007330
2026-03-09T22:33:44.553759,9.279366,-2.344966,-1.923829,0.013439,-0.048869,-0.006108
2026-03-09T22:33:44.563759,9.293722,-2.306680,-1.990828,0.013439,-0.052534,-0.006108
2026-03-09T22:33:44.572759,9.336793,-2.359323,-1.966900,0.012217,-0.052534,-0.007330
2026-03-09T22:33:44.582759,9.265009,-2.254038,-1.962114,0.013439,-0.054977,-0.004886
2026-03-09T22:33:44.592759,9.365507,-2.282752,-1.976471,0.008552,-0.053756,-0.003665
2026-03-09T22:33:44.601759,9.312865,-2.220539,-1.928615,0.004886,-0.051312,-0.001221
2026-03-09T22:33:44.611759,9.288937,-2.306680,-1.899901,0.000000,-0.047647,0.002443
2026-03-09T22:33:44.621759,9.293722,-2.263610,-1.885544,0.000000,-0.043982,0.002443
2026-03-09T22:33:44.630759,9.308079,-2.258824,-1.976471,-0.003665,-0.040317,0.002443
2026-03-09T22:33:44.640759,9.322436,-2.244467,-2.005185,-0.004886,-0.041538,0.002443
2026-03-09T22:33:44.649759,9.260223,-2.225325,-1.952543,-0.008552,-0.045204,0.002443
2026-03-09T22:33:44.659759,9.327222,-2.230110,-1.947757,-0.014660,-0.045204,0.002443
2026-03-09T22:33:44.669759,9.327222,-2.297109,-1.942971,-0.012217,-0.042760,0.002443
2026-03-09T22:33:44.678759,9.346365,-2.311466,-2.000399,-0.007330,-0.045204,0.000000
2026-03-09T22:33:44.688759,9.298508,-2.292324,-1.966900,-0.003665,-0.045204,0.002443
2026-03-09T22:33:44.697759,9.336793,-2.201396,-1.952543,-0.007330,-0.046425,0.001221
2026-03-09T22:33:44.707759,9.346365,-2.230110,-1.947757,-0.014660,-0.046425,0.001221
2026-03-09T22:33:44.717759,9.317651,-2.268395,-1.919043,-0.018325,-0.042760,0.000000
2026-03-09T22:33:44.726759,9.341579,-2.268395,-1.990828,-0.021991,-0.042760,-0.002443
2026-03-09T22:33:44.736759,9.293722,-2.306680,-1.919043,-0.023212,-0.043982,-0.003665
2026-03-09T22:33:44.746759,9.255437,-2.287538,-1.947757,-0.021991,-0.045204,-0.004886
2026-03-09T22:33:44.755759,9.274580,-2.421536,-1.899901,-0.021991,-0.045204,-0.003665
2026-03-09T22:33:44.765759,9.250652,-2.402393,-1.904686,-0.018325,-0.043982,-0.004886
2026-03-09T22:33:44.774759,9.245866,-2.335394,-1.914258,-0.017104,-0.045204,-0.004886
2026-03-09T22:33:44.784759,9.274580,-2.397608,-1.904686,-0.014660,-0.043982,-0.008552
2026-03-09T22:33:44.794759,9.317651,-2.340180,-1.938186,-0.012217,-0.047647,-0.008552
2026-03-09T22:33:44.803759,9.317651,-2.426322,-1.919043,-0.009773,-0.047647,-0.008552
2026-03-09T22:33:44.813759,9.226723,-2.440679,-1.923829,0.000000,-0.047647,-0.006108
2026-03-09T22:33:44.822759,9.226723,-2.364108,-1.842473,0.004886,-0.051312,-0.004886
2026-03-09T22:33:44.832759,9.212367,-2.325823,-1.923829,0.012217,-0.056199,-0.003665
2026-03-09T22:33:44.842759,9.265009,-2.292324,-1.866401,0.012217,-0.057421,-0.002443
2026-03-09T22:33:44.851759,9.265009,-2.239681,-1.904686,0.008552,-0.054977,-0.001221
2026-03-09T22:33:44.861759,9.303294,-2.301895,-1.938186,0.006108,-0.053756,-0.006108
2026-03-09T22:33:44.871759,9.332008,-2.354537,-1.971685,0.006108,-0.052534,-0.013439
2026-03-09T22:33:44.880759,9.317651,-2.364108,-1.947757,0.008552,-0.053756,-0.017104
2026-03-09T22:33:44.890759,9.308079,-2.383251,-1.909472,0.012217,-0.056199,-0.020769
2026-03-09T22:33:44.899759,9.379864,-2.383251,-1.923829,0.012217,-0.052534,-0.020769
2026-03-09T22:33:44.909759,9.303294,-2.450250,-1.899901,0.014660,-0.051312,-0.018325
2026-03-09T22:33:44.919759,9.317651,-2.354537,-1.914258,0.018325,-0.052534,-0.013439
2026-03-09T22:33:44.928759,9.327222,-2.306680,-1.823330,0.015882,-0.052534,-0.007330
2026-03-09T22:33:44.938759,9.351150,-2.301895,-1.914258,0.004886,-0.048869,-0.003665
2026-03-09T22:33:44.947759,9.370293,-2.301895,-1.899901,-0.002443,-0.052534,-0.001221
2026-03-09T22:33:44.957759,9.303294,-2.306680,-1.899901,-0.006108,-0.051312,-0.001221
2026-03-09T22:33:44.967759,9.274580,-2.268395,-1.866401,-0.004886,-0.053756,-0.006108
2026-03-09T22:33:44.976759,9.379864,-2.306680,-1.856830,0.001221,-0.059864,-0.012217
2026-03-09T22:33:44.986759,9.336793,-2.373680,-1.895115,0.010995,-0.063529,-0.019547
2026-03-09T22:33:44.996759,9.365507,-2.407179,-1.890329,0.026878,-0.063529,-0.026878
2026-03-09T22:33:45.005759,9.269794,-2.411965,-1.871187,0.039095,-0.062308,-0.030543
2026-03-09T22:33:45.015759,9.336793,-2.397608,-1.832902,0.052534,-0.063529,-0.030543
2026-03-09T22:33:45.024759,9.408578,-2.301895,-1.885544,0.062308,-0.065973,-0.029321
2026-03-09T22:33:45.034759,9.379864,-2.249253,-1.904686,0.064751,-0.062308,-0.028099
2026-03-09T22:33:45.044759,9.384650,-2.110469,-1.957328,0.067195,-0.062308,-0.025656
2026-03-09T22:33:45.053759,9.408578,-2.053041,-1.962114,0.067195,-0.058643,-0.029321
2026-03-09T22:33:45.063759,9.427721,-1.986042,-1.942971,0.063529,-0.053756,-0.034208
2026-03-09T22:33:45.072759,9.399007,-1.966900,-2.014756,0.064751,-0.051312,-0.042760
2026-03-09T22:33:45.082759,9.399007,-1.919043,-2.086541,0.058643,-0.048869,-0.053756
2026-03-09T22:33:45.092759,9.308079,-1.909472,-2.062613,0.050090,-0.053756,-0.065973
2026-03-09T22:33:45.101759,9.169296,-1.981257,-2.057827,0.039095,-0.058643,-0.081855
2026-03-09T22:33:45.111759,9.140582,-2.177468,-2.024327,0.035430,-0.065973,-0.097738
2026-03-09T22:33:45.121759,9.035298,-2.416750,-1.976471,0.041538,-0.079412,-0.112399
2026-03-09T22:33:45.130759,9.030512,-2.622533,-1.871187,0.059864,-0.091629,-0.125838
2026-03-09T22:33:45.140759,8.934799,-2.828316,-1.799402,0.083077,-0.097738,-0.138055
2026-03-09T22:33:45.149759,8.800801,-2.986242,-1.780260,0.109955,-0.105068,-0.140498
2026-03-09T22:33:45.159759,8.958727,-3.067598,-1.780260,0.146607,-0.119729,-0.136833
2026-03-09T22:33:45.169759,8.992227,-3.330809,-1.670190,0.182037,-0.128281,-0.125838
2026-03-09T22:33:45.178759,9.035298,-3.292523,-1.698904,0.224798,-0.131946,-0.108733
2026-03-09T22:33:45.188759,9.188438,-3.335594,-1.741974,0.262671,-0.135612,-0.087964
2026-03-09T22:33:45.197759,9.355936,-3.244667,-1.770688,0.296880,-0.136833,-0.062308
2026-03-09T22:33:45.207759,9.451649,-3.225524,-1.785045,0.322536,-0.128281,-0.036651
2026-03-09T22:33:45.217759,9.547362,-2.928814,-1.808973,0.348193,-0.124616,-0.017104
2026-03-09T22:33:45.226759,9.590432,-2.713460,-1.928615,0.368962,-0.118507,-0.001221
2026-03-09T22:33:45.236759,9.619146,-2.459821,-1.957328,0.381179,-0.114842,0.009773
2026-03-09T22:33:45.246759,9.652646,-2.292324,-1.962114,0.383623,-0.111177,0.014660
2026-03-09T22:33:45.255759,9.671788,-2.033899,-1.971685,0.375071,-0.105068,0.020769
2026-03-09T22:33:45.265759,9.681360,-1.904686,-1.981257,0.356745,-0.095294,0.025656
2026-03-09T22:33:45.274759,9.652646,-1.866401,-1.928615,0.329867,-0.084299,0.025656
2026-03-09T22:33:45.284759,9.633503,-1.957328,-1.952543,0.299323,-0.069638,0.026878
2026-03-09T22:33:45.294759,9.580861,-1.957328,-1.962114,0.272445,-0.053756,0.034208
2026-03-09T22:33:45.303759,9.499505,-1.895115,-1.947757,0.243124,-0.037873,0.045204
2026-03-09T22:33:45.313759,9.576076,-2.086541,-1.995614,0.210137,-0.029321,0.056199
2026-03-09T22:33:45.322759,9.485148,-1.995614,-1.966900,0.190589,-0.018325,0.072082
2026-03-09T22:33:45.332759,9.542576,-2.172682,-1.995614,0.182037,-0.007330,0.085521
2026-03-09T22:33:45.342759,9.523433,-1.947757,-1.971685,0.180816,-0.001221,0.094073
2026-03-09T22:33:45.351759,9.379864,-2.033899,-2.043470,0.161268,0.010995,0.102625
2026-03-09T22:33:45.361759,9.494720,-1.976471,-2.057827,0.151494,0.018325,0.117286
2026-03-09T22:33:45.371759,9.394221,-1.540977,-2.225325,0.151494,0.029321,0.111177
2026-03-09T22:33:45.380759,9.265009,-1.354337,-2.215753,0.116064,0.030543,0.113620
2026-03-09T22:33:45.390759,9.375078,-1.464407,-2.225325,0.067195,0.032986,0.118507
2026-03-09T22:33:45.399759,9.231509,-1.177268,-2.301895,0.025656,0.035430,0.119729
2026-03-09T22:33:45.409759,9.341579,-1.095912,-2.234896,-0.028099,0.037873,0.120951
2026-03-09T22:33:45.419759,9.312865,-0.894915,-2.234896,-0.095294,0.048869,0.119729
2026-03-09T22:33:45.428759,9.322436,-0.808774,-2.120040,-0.182037,0.053756,0.120951
2026-03-09T22:33:45.438759,9.202795,-0.827916,-2.182254,-0.268780,0.063529,0.113620
2026-03-09T22:33:45.447759,9.178867,-0.914058,-2.096112,-0.353080,0.058643,0.098960
2026-03-09T22:33:45.457759,9.073583,-1.191625,-2.086541,-0.430049,0.054977,0.084299
2026-03-09T22:33:45.467759,8.925228,-1.655833,-2.029113,-0.493579,0.046425,0.057421
2026-03-09T22:33:45.476759,9.001798,-2.081755,-1.909472,-0.529009,0.035430,0.036651
2026-03-09T22:33:45.486759,8.939585,-2.507678,-1.890329,-0.543669,0.028099,0.019547
2026-03-09T22:33:45.496759,8.910871,-2.871387,-1.875972,-0.527787,0.020769,0.003665
2026-03-09T22:33:45.505759,8.901300,-3.196810,-1.732403,-0.482583,0.008552,-0.009773
2026-03-09T22:33:45.515759,8.776873,-3.383451,-1.674975,-0.432492,-0.001221,-0.018325
2026-03-09T22:33:45.524759,8.882157,-3.570091,-1.674975,-0.383623,-0.009773,-0.018325
2026-03-09T22:33:45.534759,8.834301,-3.646661,-1.713260,-0.333532,-0.018325,-0.009773
2026-03-09T22:33:45.544759,8.987441,-3.723231,-1.698904,-0.284663,-0.030543,0.000000
2026-03-09T22:33:45.553759,9.121439,-3.780659,-1.593619,-0.237015,-0.037873,0.013439
2026-03-09T22:33:45.563759,9.183653,-3.713660,-1.651047,-0.194255,-0.047647,0.025656
2026-03-09T22:33:45.572759,9.169296,-3.555734,-1.698904,-0.149051,-0.052534,0.037873
2026-03-09T22:33:45.582759,9.265009,-3.455235,-1.545763,-0.109955,-0.057421,0.048869
2026-03-09T22:33:45.592759,9.288937,-3.177668,-1.507478,-0.083077,-0.056199,0.058643
2026-03-09T22:33:45.601759,9.269794,-3.081955,-1.464407,-0.062308,-0.056199,0.069638
2026-03-09T22:33:45.611759,9.341579,-2.818745,-1.593619,-0.048869,-0.057421,0.076969
2026-03-09T22:33:45.621759,9.509077,-2.737389,-1.550549,-0.041538,-0.056199,0.083077
2026-03-09T22:33:45.630759,9.456434,-2.622533,-1.617548,-0.031764,-0.050090,0.086742
2026-03-09T22:33:45.640759,9.556933,-2.464607,-1.646261,-0.021991,-0.045204,0.085521
2026-03-09T22:33:45.649759,9.657432,-2.344966,-1.722832,-0.018325,-0.034208,0.085521
2026-03-09T22:33:45.659759,9.561719,-2.148754,-1.808973,-0.017104,-0.026878,0.081855
2026-03-09T22:33:45.669759,9.499505,-2.024327,-1.986042,-0.021991,-0.020769,0.075747
2026-03-09T22:33:45.678759,9.394221,-1.895115,-1.981257,-0.031764,-0.020769,0.068416
2026-03-09T22:33:45.688759,9.317651,-1.761117,-2.062613,-0.039095,-0.025656,0.057421
2026-03-09T22:33:45.697759,9.308079,-1.713260,-2.096112,-0.051312,-0.031764,0.041538
2026-03-09T22:33:45.707759,9.355936,-1.684547,-2.115255,-0.063529,-0.040317,0.024434
2026-03-09T22:33:45.717759,9.312865,-1.631905,-2.134397,-0.074525,-0.052534,0.003665
2026-03-09T22:33:45.726759,9.499505,-1.694118,-2.057827,-0.091629,-0.053756,-0.015882
2026-03-09T22:33:45.736759,9.389435,-1.770688,-2.024327,-0.113620,-0.051312,-0.032986
2026-03-09T22:33:45.746759,9.394221,-1.875972,-2.005185,-0.129503,-0.051312,-0.046425
2026-03-09T22:33:45.755759,9.432506,-2.043470,-1.895115,-0.140498,-0.046425,-0.058643
2026-03-09T22:33:45.765759,9.298508,-2.206182,-1.813759,-0.144164,-0.041538,-0.068416
2026-03-09T22:33:45.774759,9.351150,-2.383251,-1.785045,-0.140498,-0.042760,-0.076969
2026-03-09T22:33:45.784759,9.308079,-2.392822,-1.770688,-0.130725,-0.041538,-0.083077
2026-03-09T22:33:45.794759,9.269794,-2.478964,-1.804188,-0.128281,-0.040317,-0.091629
2026-03-09T22:33:45.803759,9.236295,-2.593819,-1.837687,-0.124616,-0.040317,-0.100181
2026-03-09T22:33:45.813759,9.217152,-2.751745,-1.842473,-0.117286,-0.042760,-0.111177
2026-03-09T22:33:45.822759,9.159724,-2.785245,-1.770688,-0.105068,-0.051312,-0.119729
2026-03-09T22:33:45.832759,9.111868,-2.962314,-1.799402,-0.087964,-0.061086,-0.128281
2026-03-09T22:33:45.842759,9.068797,-3.110669,-1.708475,-0.064751,-0.068416,-0.135612
2026-03-09T22:33:45.851759,9.049655,-3.282952,-1.636690,-0.032986,-0.081855,-0.135612
2026-03-09T22:33:45.861759,9.030512,-3.378665,-1.603191,0.008552,-0.092851,-0.134390
2026-03-09T22:33:45.871759,9.121439,-3.416950,-1.579262,0.053756,-0.103847,-0.125838
2026-03-09T22:33:45.880759,9.154939,-3.455235,-1.540977,0.097738,-0.107512,-0.114842
2026-03-09T22:33:45.890759,9.226723,-3.354737,-1.569691,0.141720,-0.105068,-0.103847
2026-03-09T22:33:45.899759,9.212367,-3.235096,-1.584048,0.174707,-0.097738,-0.089186
2026-03-09T22:33:45.909759,9.245866,-3.053241,-1.722832,0.204028,-0.090408,-0.078190
2026-03-09T22:33:45.919759,9.255437,-2.919243,-1.722832,0.222354,-0.084299,-0.067195
2026-03-09T22:33:45.928759,9.269794,-2.746960,-1.928615,0.237015,-0.075747,-0.057421
2026-03-09T22:33:45.938759,9.221938,-2.670390,-1.962114,0.238237,-0.070860,-0.050090
2026-03-09T22:33:45.947759,9.217152,-2.455035,-2.029113,0.237015,-0.076969,-0.041538
2026-03-09T22:33:45.957759,9.250652,-2.268395,-2.048256,0.228463,-0.081855,-0.031764
2026-03-09T22:33:45.967759,9.308079,-2.177468,-1.986042,0.204028,-0.090408,-0.018325
2026-03-09T22:33:45.976759,9.370293,-2.115255,-1.899901,0.179594,-0.096516,-0.001221
2026-03-09T22:33:45.986759,9.413364,-2.067398,-1.895115,0.163711,-0.097738,0.013439
2026-03-09T22:33:45.996759,9.489934,-1.986042,-1.899901,0.145385,-0.094073,0.024434
2026-03-09T22:33:46.005759,9.518648,-1.962114,-1.981257,0.130725,-0.087964,0.026878
2026-03-09T22:33:46.015759,9.466006,-1.799402,-1.952543,0.116064,-0.079412,0.029321
2026-03-09T22:33:46.024759,9.437292,-1.722832,-2.005185,0.103847,-0.074525,0.020769
2026-03-09T22:33:46.034759,9.346365,-1.722832,-1.981257,0.091629,-0.072082,0.008552
2026-03-09T22:33:46.044759,9.312865,-1.674975,-2.029113,0.076969,-0.069638,-0.006108
2026-03-09T22:33:46.053759,9.298508,-1.746760,-2.053041,0.059864,-0.069638,-0.020769
2026-03-09T22:33:46.063759,9.322436,-1.866401,-1.971685,0.042760,-0.070860,-0.036651
2026-03-09T22:33:46.072759,9.269794,-1.990828,-2.000399,0.029321,-0.073303,-0.048869
2026-03-09T22:33:46.082759,9.303294,-2.158325,-1.981257,0.018325,-0.074525,-0.054977
2026-03-09T22:33:46.092759,9.341579,-2.301895,-1.952543,0.013439,-0.074525,-0.056199
2026-03-09T22:33:46.101759,9.322436,-2.416750,-1.971685,0.012217,-0.073303,-0.053756
2026-03-09T22:33:46.111759,9.413364,-2.493321,-1.842473,0.014660,-0.068416,-0.048869
2026-03-09T22:33:46.121759,9.418149,-2.522035,-1.880758,0.023212,-0.063529,-0.045204
2026-03-09T22:33:46.130759,9.418149,-2.522035,-1.842473,0.031764,-0.061086,-0.041538
2026-03-09T22:33:46.140759,9.399007,-2.584248,-1.823330,0.041538,-0.059864,-0.034208
2026-03-09T22:33:46.149759,9.293722,-2.507678,-1.828116,0.047647,-0.056199,-0.026878
2026-03-09T22:33:46.159759,9.279366,-2.455035,-1.861615,0.050090,-0.058643,-0.020769
2026-03-09T22:33:46.169759,9.394221,-2.388036,-1.847259,0.050090,-0.059864,-0.012217
2026-03-09T22:33:46.178759,9.384650,-2.349751,-1.938186,0.048869,-0.059864,-0.008552
2026-03-09T22:33:46.188759,9.403792,-2.220539,-1.919043,0.041538,-0.058643,-0.006108
2026-03-09T22:33:46.197759,9.442077,-2.206182,-1.962114,0.026878,-0.057421,-0.002443
2026-03-09T22:33:46.207759,9.298508,-2.225325,-1.938186,0.015882,-0.056199,0.000000
2026-03-09T22:33:46.217759,9.351150,-2.225325,-1.842473,0.009773,-0.057421,0.001221
2026-03-09T22:33:46.226759,9.317651,-2.206182,-1.823330,0.007330,-0.054977,0.002443
2026-03-09T22:33:46.236759,9.269794,-2.254038,-1.808973,0.004886,-0.053756,0.003665
2026-03-09T22:33:46.246759,9.308079,-2.282752,-1.837687,0.007330,-0.053756,0.000000
2026-03-09T22:33:46.255759,9.265009,-2.263610,-1.880758,0.015882,-0.054977,-0.003665
2026-03-09T22:33:46.265759,9.284151,-2.196611,-1.904686,0.023212,-0.053756,-0.009773
2026-03-09T22:33:46.274759,9.274580,-2.249253,-1.909472,0.026878,-0.054977,-0.017104
2026-03-09T22:33:46.284759,9.241080,-2.201396,-1.933400,0.031764,-0.058643,-0.021991
2026-03-09T22:33:46.294759,9.265009,-2.206182,-1.899901,0.032986,-0.063529,-0.024434
2026-03-09T22:33:46.303759,9.260223,-2.196611,-1.952543,0.031764,-0.061086,-0.025656
2026-03-09T22:33:46.313759,9.236295,-2.239681,-1.899901,0.028099,-0.063529,-0.028099
2026-03-09T22:33:46.322759,9.279366,-2.244467,-1.856830,0.024434,-0.063529,-0.029321
2026-03-09T22:33:46.332759,9.250652,-2.225325,-1.914258,0.020769,-0.061086,-0.030543
2026-03-09T22:33:46.342759,9.274580,-2.321037,-1.904686,0.021991,-0.062308,-0.034208
2026-03-09T22:33:46.351759,9.322436,-2.407179,-1.895115,0.024434,-0.062308,-0.032986
2026-03-09T22:33:46.361759,9.308079,-2.335394,-1.880758,0.028099,-0.061086,-0.030543
2026-03-09T22:33:46.371759,9.322436,-2.335394,-1.847259,0.030543,-0.062308,-0.029321
2026-03-09T22:33:46.380759,9.375078,-2.321037,-1.842473,0.028099,-0.061086,-0.026878
2026-03-09T22:33:46.390759,9.355936,-2.354537,-1.923829,0.028099,-0.058643,-0.024434
2026-03-09T22:33:46.399759,9.322436,-2.287538,-1.919043,0.032986,-0.063529,-0.020769
2026-03-09T22:33:46.409759,9.279366,-2.263610,-1.852044,0.031764,-0.062308,-0.020769
2026-03-09T22:33:46.419759,9.293722,-2.292324,-1.866401,0.025656,-0.062308,-0.020769
2026-03-09T22:33:46.428759,9.293722,-2.311466,-1.938186,0.023212,-0.062308,-0.019547
2026-03-09T22:33:46.438759,9.312865,-2.383251,-1.904686,0.026878,-0.063529,-0.019547
2026-03-09T22:33:46.447759,9.269794,-2.378465,-1.923829,0.028099,-0.063529,-0.017104
2026-03-09T22:33:46.457759,9.308079,-2.459821,-1.952543,0.031764,-0.064751,-0.015882
2026-03-09T22:33:46.467759,9.284151,-2.368894,-1.904686,0.032986,-0.063529,-0.010995
2026-03-09T22:33:46.476759,9.332008,-2.373680,-1.875972,0.032986,-0.063529,-0.009773
2026-03-09T22:33:46.486759,9.346365,-2.306680,-1.861615,0.036651,-0.063529,-0.006108
2026-03-09T22:33:46.496759,9.312865,-2.254038,-1.852044,0.036651,-0.063529,-0.007330
2026-03-09T22:33:46.505759,9.360722,-2.292324,-1.885544,0.035430,-0.058643,-0.009773
2026-03-09T22:33:46.515759,9.379864,-2.330609,-1.904686,0.036651,-0.057421,-0.012217
2026-03-09T22:33:46.524759,9.322436,-2.220539,-1.914258,0.037873,-0.058643,-0.015882
2026-03-09T22:33:46.534759,9.403792,-2.306680,-1.914258,0.032986,-0.059864,-0.018325
2026-03-09T22:33:46.544759,9.332008,-2.273181,-1.942971,0.035430,-0.059864,-0.018325
2026-03-09T22:33:46.553759,9.365507,-2.234896,-1.890329,0.034208,-0.056199,-0.015882
2026-03-09T22:33:46.563759,9.284151,-2.292324,-1.914258,0.032986,-0.056199,-0.014660
2026-03-09T22:33:46.572759,9.336793,-2.297109,-1.866401,0.031764,-0.056199,-0.013439
2026-03-09T22:33:46.582759,9.360722,-2.263610,-1.933400,0.026878,-0.056199,-0.012217
2026-03-09T22:33:46.592759,9.303294,-2.225325,-1.890329,0.023212,-0.054977,-0.012217
2026-03-09T22:33:46.601759,9.327222,-2.191825,-1.928615,0.019547,-0.052534,-0.010995
2026-03-09T22:33:46.611759,9.322436,-2.234896,-1.957328,0.013439,-0.051312,-0.012217
2026-03-09T22:33:46.621759,9.327222,-2.244467,-1.933400,0.008552,-0.052534,-0.012217
2026-03-09T22:33:46.630759,9.293722,-2.282752,-1.938186,0.008552,-0.051312,-0.013439
2026-03-09T22:33:46.640759,9.312865,-2.306680,-1.990828,0.007330,-0.050090,-0.013439
2026-03-09T22:33:46.649759,9.288937,-2.321037,-1.952543,0.007330,-0.051312,-0.013439
2026-03-09T22:33:46.659759,9.279366,-2.378465,-1.981257,0.004886,-0.053756,-0.013439
2026-03-09T22:33:46.669759,9.317651,-2.392822,-2.009970,0.006108,-0.056199,-0.013439
2026-03-09T22:33:46.678759,9.293722,-2.359323,-1.904686,0.007330,-0.058643,-0.010995
2026-03-09T22:33:46.688759,9.255437,-2.340180,-1.909472,0.010995,-0.056199,-0.007330
2026-03-09T22:33:46.697759,9.250652,-2.330609,-1.866401,0.008552,-0.057421,-0.006108
2026-03-09T22:33:46.707759,9.336793,-2.340180,-1.880758,0.009773,-0.058643,-0.004886
2026-03-09T22:33:46.717759,9.322436,-2.311466,-1.933400,0.010995,-0.057421,-0.004886
2026-03-09T22:33:46.726759,9.317651,-2.258824,-1.885544,0.010995,-0.054977,-0.004886
2026-03-09T22:33:46.736759,9.332008,-2.277967,-1.914258,0.010995,-0.053756,-0.006108
2026-03-09T22:33:46.746759,9.298508,-2.330609,-1.895115,0.008552,-0.050090,-0.007330
2026-03-09T22:33:46.755759,9.260223,-2.321037,-1.866401,0.007330,-0.048869,-0.008552
2026-03-09T22:33:46.765759,9.274580,-2.378465,-1.904686,0.007330,-0.051312,-0.008552
2026-03-09T22:33:46.774759,9.284151,-2.335394,-1.933400,0.008552,-0.051312,-0.008552
2026-03-09T22:33:46.784759,9.332008,-2.368894,-1.942971,0.008552,-0.056199,-0.007330
2026-03-09T22:33:46.794759,9.284151,-2.349751,-1.966900,0.009773,-0.058643,-0.004886
2026-03-09T22:33:46.803759,9.322436,-2.354537,-1.904686,0.009773,-0.058643,-0.004886
2026-03-09T22:33:46.813759,9.346365,-2.321037,-1.971685,0.014660,-0.061086,-0.002443
2026-03-09T22:33:46.822759,9.284151,-2.340180,-1.861615,0.015882,-0.061086,-0.004886
2026-03-09T22:33:46.832759,9.231509,-2.277967,-1.938186,0.017104,-0.058643,-0.007330
2026-03-09T22:33:46.842759,9.279366,-2.344966,-1.856830,0.018325,-0.059864,-0.007330
2026-03-09T22:33:46.851759,9.351150,-2.301895,-1.895115,0.019547,-0.056199,-0.008552
2026-03-09T22:33:46.861759,9.293722,-2.301895,-1.923829,0.018325,-0.053756,-0.010995
2026-03-09T22:33:46.871759,9.288937,-2.368894,-1.986042,0.018325,-0.054977,-0.009773
2026-03-09T22:33:46.880759,9.341579,-2.325823,-1.875972,0.018325,-0.057421,-0.010995
2026-03-09T22:33:46.890759,9.265009,-2.330609,-1.895115,0.015882,-0.056199,-0.010995
2026-03-09T22:33:46.899759,9.322436,-2.330609,-1.904686,0.019547,-0.057421,-0.008552
2026-03-09T22:33:46.909759,9.346365,-2.230110,-1.933400,0.021991,-0.062308,-0.009773
2026-03-09T22:33:46.919759,9.312865,-2.306680,-1.928615,0.018325,-0.059864,-0.008552
2026-03-09T22:33:46.928759,9.298508,-2.282752,-1.909472,0.018325,-0.059864,-0.007330
2026-03-09T22:33:46.938759,9.236295,-2.187039,-1.919043,0.018325,-0.062308,-0.006108
2026-03-09T22:33:46.947759,9.288937,-2.215753,-1.866401,0.019547,-0.059864,-0.006108
2026-03-09T22:33:46.957759,9.322436,-2.225325,-1.895115,0.015882,-0.059864,-0.006108
2026-03-09T22:33:46.967759,9.394221,-2.220539,-1.914258,0.013439,-0.057421,-0.008552
2026-03-09T22:33:46.976759,9.341579,-2.292324,-1.914258,0.013439,-0.056199,-0.010995
2026-03-09T22:33:46.986759,9.384650,-2.287538,-1.966900,0.013439,-0.053756,-0.014660
2026-03-09T22:33:46.996759,9.365507,-2.359323,-1.981257,0.017104,-0.057421,-0.017104
2026-03-09T22:33:47.005759,9.375078,-2.268395,-1.995614,0.015882,-0.058643,-0.015882
2026-03-09T22:33:47.015759,9.322436,-2.220539,-1.919043,0.010995,-0.056199,-0.014660
2026-03-09T22:33:47.024759,9.312865,-2.230110,-1.885544,0.006108,-0.054977,-0.013439
2026-03-09T22:33:47.034759,9.293722,-2.215753,-1.856830,-0.003665,-0.051312,-0.012217
2026-03-09T22:33:47.044759,9.284151,-2.306680,-1.875972,-0.008552,-0.056199,-0.009773
2026-03-09T22:33:47.053759,9.327222,-2.321037,-1.875972,-0.008552,-0.053756,-0.009773
2026-03-09T22:33:47.063759,9.241080,-2.349751,-1.899901,-0.006108,-0.052534,-0.010995
2026-03-09T22:33:47.072759,9.269794,-2.512463,-1.866401,0.001221,-0.052534,-0.009773
2026-03-09T22:33:47.082759,9.269794,-2.421536,-1.828116,0.009773,-0.052534,-0.008552
2026-03-09T22:33:47.092759,9.250652,-2.450250,-1.923829,0.020769,-0.053756,-0.004886
2026-03-09T22:33:47.101759,9.255437,-2.392822,-1.923829,0.026878,-0.054977,-0.002443
2026-03-09T22:33:47.111759,9.255437,-2.349751,-1.899901,0.032986,-0.054977,0.000000
2026-03-09T22:33:47.121759,9.284151,-2.258824,-1.919043,0.036651,-0.056199,-0.001221
2026-03-09T22:33:47.130759,9.308079,-2.220539,-1.981257,0.034208,-0.056199,-0.003665
2026-03-09T22:33:47.140759,9.327222,-2.254038,-2.000399,0.025656,-0.059864,-0.003665
2026-03-09T22:33:47.149759,9.303294,-2.201396,-1.995614,0.024434,-0.062308,-0.004886
2026-03-09T22:33:47.159759,9.394221,-2.263610,-1.880758,0.020769,-0.061086,-0.008552
2026-03-09T22:33:47.169759,9.298508,-2.249253,-1.823330,0.019547,-0.058643,-0.007330
2026-03-09T22:33:47.178759,9.317651,-2.263610,-1.871187,0.014660,-0.057421,-0.007330
2026-03-09T22:33:47.188759,9.346365,-2.301895,-1.895115,0.014660,-0.051312,-0.007330
2026-03-09T22:33:47.197759,9.355936,-2.287538,-1.942971,0.015882,-0.048869,-0.008552
2026-03-09T22:33:47.207759,9.355936,-2.230110,-1.895115,0.015882,-0.051312,-0.010995
2026-03-09T22:33:47.217759,9.384650,-2.349751,-1.885544,0.014660,-0.053756,-0.010995
2026-03-09T22:33:47.226759,9.379864,-2.206182,-1.942971,0.015882,-0.053756,-0.009773
2026-03-09T22:33:47.236759,9.317651,-2.244467,-1.923829,0.013439,-0.051312,-0.010995
2026-03-09T22:33:47.246759,9.341579,-2.254038,-1.909472,0.010995,-0.053756,-0.010995
2026-03-09T22:33:47.255759,9.288937,-2.287538,-1.957328,0.008552,-0.052534,-0.012217
2026-03-09T22:33:47.265759,9.360722,-2.273181,-1.928615,0.007330,-0.051312,-0.010995
2026-03-09T22:33:47.274759,9.351150,-2.282752,-1.933400,0.000000,-0.050090,-0.008552
2026-03-09T22:33:47.284759,9.308079,-2.330609,-1.919043,-0.002443,-0.050090,-0.006108
2026-03-09T22:33:47.294759,9.303294,-2.330609,-1.919043,0.000000,-0.053756,-0.004886
2026-03-09T22:33:47.303759,9.322436,-2.263610,-1.919043,-0.002443,-0.050090,-0.003665
2026-03-09T22:33:47.313759,9.312865,-2.311466,-1.947757,-0.003665,-0.051312,-0.003665
2026-03-09T22:33:47.322759,9.250652,-2.206182,-1.899901,-0.006108,-0.048869,-0.002443
2026-03-09T22:33:47.332759,9.303294,-2.301895,-1.875972,-0.008552,-0.048869,-0.004886
2026-03-09T22:33:47.342759,9.327222,-2.239681,-1.856830,-0.012217,-0.048869,-0.007330
2026-03-09T22:33:47.351759,9.308079,-2.335394,-1.856830,-0.012217,-0.047647,-0.006108
2026-03-09T22:33:47.361759,9.370293,-2.359323,-1.837687,-0.009773,-0.047647,-0.009773
2026-03-09T22:33:47.371759,9.322436,-2.402393,-1.880758,-0.008552,-0.045204,-0.012217
2026-03-09T22:33:47.380759,9.226723,-2.426322,-1.923829,-0.007330,-0.042760,-0.009773
2026-03-09T22:33:47.390759,9.265009,-2.488535,-1.828116,0.002443,-0.050090,-0.009773
2026-03-09T22:33:47.399759,9.265009,-2.474178,-1.856830,0.017104,-0.053756,-0.009773
2026-03-09T22:33:47.409759,9.255437,-2.440679,-1.818545,0.023212,-0.056199,-0.009773
2026-03-09T22:33:47.419759,9.260223,-2.388036,-1.890329,0.031764,-0.056199,-0.007330
2026-03-09T22:33:47.428759,9.293722,-2.249253,-1.895115,0.031764,-0.057421,-0.003665
2026-03-09T22:33:47.438759,9.308079,-2.287538,-1.914258,0.031764,-0.053756,-0.001221
2026-03-09T22:33:47.447759,9.365507,-2.220539,-1.923829,0.024434,-0.048869,0.000000
2026-03-09T22:33:47.457759,9.288937,-2.282752,-1.923829,0.018325,-0.048869,0.000000
2026-03-09T22:33:47.467759,9.317651,-2.239681,-1.962114,0.012217,-0.047647,0.000000
2026-03-09T22:33:47.476759,9.308079,-2.258824,-1.895115,0.006108,-0.045204,-0.002443
2026-03-09T22:33:47.486759,9.260223,-2.268395,-1.890329,0.006108,-0.050090,-0.004886
2026-03-09T22:33:47.496759,9.308079,-2.325823,-1.885544,0.006108,-0.050090,-0.006108
2026-03-09T22:33:47.505759,9.341579,-2.335394,-1.885544,0.004886,-0.050090,-0.009773
2026-03-09T22:33:47.515759,9.293722,-2.402393,-1.808973,0.008552,-0.048869,-0.010995
2026-03-09T22:33:47.524759,9.341579,-2.383251,-1.890329,0.015882,-0.053756,-0.010995
2026-03-09T22:33:47.534759,9.365507,-2.359323,-1.856830,0.018325,-0.052534,-0.010995
2026-03-09T22:33:47.544759,9.288937,-2.325823,-1.842473,0.017104,-0.051312,-0.009773
2026-03-09T22:33:47.553759,9.317651,-2.306680,-1.871187,0.023212,-0.050090,-0.008552
2026-03-09T22:33:47.563759,9.274580,-2.263610,-1.890329,0.023212,-0.052534,-0.007330
2026-03-09T22:33:47.572759,9.303294,-2.306680,-1.861615,0.019547,-0.050090,-0.007330
2026-03-09T22:33:47.582759,9.355936,-2.254038,-1.856830,0.017104,-0.052534,-0.006108
2026-03-09T22:33:47.592759,9.327222,-2.210968,-1.885544,0.014660,-0.051312,-0.007330
2026-03-09T22:33:47.601759,9.341579,-2.287538,-1.962114,0.009773,-0.048869,-0.006108
2026-03-09T22:33:47.611759,9.308079,-2.143969,-1.986042,0.004886,-0.051312,-0.008552
2026-03-09T22:33:47.621759,9.308079,-2.273181,-1.914258,0.003665,-0.052534,-0.009773
2026-03-09T22:33:47.630759,9.250652,-2.306680,-1.895115,0.001221,-0.054977,-0.013439
2026-03-09T22:33:47.640759,9.284151,-2.282752,-1.847259,0.003665,-0.054977,-0.009773
2026-03-09T22:33:47.649759,9.322436,-2.234896,-1.847259,0.004886,-0.056199,-0.010995
2026-03-09T22:33:47.659759,9.274580,-2.325823,-1.861615,0.002443,-0.054977,-0.012217
2026-03-09T22:33:47.669759,9.365507,-2.416750,-1.904686,0.003665,-0.053756,-0.012217
2026-03-09T22:33:47.678759,9.370293,-2.440679,-1.847259,0.006108,-0.059864,-0.012217
2026-03-09T22:33:47.688759,9.413364,-2.364108,-1.871187,0.010995,-0.057421,-0.012217
2026-03-09T22:33:47.697759,9.384650,-2.340180,-1.847259,0.014660,-0.054977,-0.010995
2026-03-09T22:33:47.707759,9.303294,-2.282752,-1.856830,0.014660,-0.053756,-0.008552
2026-03-09T22:33:47.717759,9.336793,-2.301895,-1.828116,0.013439,-0.053756,-0.009773
2026-03-09T22:33:47.726759,9.303294,-2.306680,-1.808973,0.008552,-0.052534,-0.008552
2026-03-09T22:33:47.736759,9.274580,-2.268395,-1.813759,0.003665,-0.048869,-0.009773
2026-03-09T22:33:47.746759,9.250652,-2.349751,-1.818545,0.004886,-0.047647,-0.009773
2026-03-09T22:33:47.755759,9.308079,-2.340180,-1.875972,0.012217,-0.048869,-0.010995
2026-03-09T22:33:47.765759,9.322436,-2.368894,-1.890329,0.017104,-0.047647,-0.009773
2026-03-09T22:33:47.774759,9.308079,-2.388036,-1.837687,0.018325,-0.045204,-0.007330
2026-03-09T22:33:47.784759,9.288937,-2.368894,-1.890329,0.019547,-0.047647,-0.007330
2026-03-09T22:33:47.794759,9.279366,-2.297109,-1.885544,0.025656,-0.052534,-0.003665
2026-03-09T22:33:47.803759,9.303294,-2.325823,-1.909472,0.024434,-0.052534,-0.003665
2026-03-09T22:33:47.813759,9.332008,-2.277967,-1.895115,0.025656,-0.054977,-0.003665
2026-03-09T22:33:47.822759,9.394221,-2.234896,-1.832902,0.020769,-0.053756,-0.002443
2026-03-09T22:33:47.832759,9.370293,-2.206182,-1.880758,0.012217,-0.056199,-0.002443
2026-03-09T22:33:47.842759,9.403792,-2.187039,-1.871187,0.013439,-0.056199,-0.003665
2026-03-09T22:33:47.851759,9.317651,-2.206182,-1.813759,0.006108,-0.052534,-0.006108
2026-03-09T22:33:47.861759,9.317651,-2.292324,-1.861615,0.002443,-0.050090,-0.006108
2026-03-09T22:33:47.871759,9.269794,-2.325823,-1.852044,0.004886,-0.050090,-0.007330
2026-03-09T22:33:47.880759,9.298508,-2.378465,-1.871187,0.007330,-0.048869,-0.006108
2026-03-09T22:33:47.890759,9.265009,-2.364108,-1.895115,0.006108,-0.046425,-0.006108
2026-03-09T22:33:47.899759,9.298508,-2.407179,-1.919043,0.010995,-0.050090,-0.004886
2026-03-09T22:33:47.909759,9.308079,-2.301895,-1.952543,0.012217,-0.052534,-0.002443
2026-03-09T22:33:47.919759,9.298508,-2.301895,-1.971685,0.010995,-0.054977,-0.003665
2026-03-09T22:33:47.928759,9.384650,-2.234896,-1.775474,0.009773,-0.057421,-0.004886
2026-03-09T22:33:47.938759,9.351150,-2.287538,-1.847259,0.006108,-0.053756,-0.006108
2026-03-09T22:33:47.947759,9.336793,-2.287538,-1.885544,0.006108,-0.056199,-0.007330
2026-03-09T22:33:47.957759,9.298508,-2.297109,-1.837687,0.003665,-0.053756,-0.009773
2026-03-09T22:33:47.967759,9.298508,-2.321037,-1.837687,0.004886,-0.051312,-0.009773
2026-03-09T22:33:47.976759,9.284151,-2.373680,-1.832902,0.007330,-0.053756,-0.009773
2026-03-09T22:33:47.986759,9.308079,-2.349751,-1.852044,0.010995,-0.054977,-0.007330
2026-03-09T22:33:47.996759,9.288937,-2.321037,-1.856830,0.009773,-0.052534,-0.007330
2026-03-09T22:33:48.005759,9.341579,-2.258824,-1.919043,0.010995,-0.051312,-0.003665
2026-03-09T22:33:48.015759,9.341579,-2.282752,-1.904686,0.012217,-0.051312,-0.007330
2026-03-09T22:33:48.024759,9.265009,-2.244467,-1.957328,0.008552,-0.052534,-0.008552
2026-03-09T22:33:48.034759,9.308079,-2.263610,-1.947757,0.007330,-0.054977,-0.009773
2026-03-09T22:33:48.044759,9.284151,-2.287538,-1.919043,0.004886,-0.056199,-0.010995
2026-03-09T22:33:48.053759,9.303294,-2.311466,-1.852044,0.003665,-0.059864,-0.010995
2026-03-09T22:33:48.063759,9.308079,-2.364108,-1.842473,0.004886,-0.059864,-0.009773
2026-03-09T22:33:48.072759,9.317651,-2.354537,-1.899901,0.006108,-0.058643,-0.010995
2026-03-09T22:33:48.082759,9.303294,-2.431107,-1.818545,0.008552,-0.058643,-0.010995
2026-03-09T22:33:48.092759,9.355936,-2.373680,-1.837687,0.010995,-0.056199,-0.009773
2026-03-09T22:33:48.101759,9.327222,-2.359323,-1.852044,0.013439,-0.057421,-0.010995
2026-03-09T22:33:48.111759,9.322436,-2.368894,-1.842473,0.015882,-0.053756,-0.008552
2026-03-09T22:33:48.121759,9.336793,-2.301895,-1.818545,0.020769,-0.053756,-0.008552
2026-03-09T22:33:48.130759,9.336793,-2.287538,-1.875972,0.021991,-0.053756,-0.007330
2026-03-09T22:33:48.140759,9.336793,-2.244467,-1.938186,0.019547,-0.052534,-0.006108
2026-03-09T22:33:48.149759,9.322436,-2.225325,-1.923829,0.014660,-0.051312,-0.006108
2026-03-09T22:33:48.159759,9.293722,-2.306680,-1.899901,0.008552,-0.053756,-0.006108
2026-03-09T22:33:48.169759,9.269794,-2.344966,-1.866401,0.007330,-0.054977,-0.004886
2026-03-09T22:33:48.178759,9.269794,-2.349751,-1.880758,0.008552,-0.053756,-0.007330
2026-03-09T22:33:48.188759,9.312865,-2.306680,-1.837687,0.009773,-0.053756,-0.007330
2026-03-09T22:33:48.197759,9.255437,-2.344966,-1.818545,0.009773,-0.053756,-0.009773
2026-03-09T22:33:48.207759,9.303294,-2.383251,-1.852044,0.013439,-0.057421,-0.010995
2026-03-09T22:33:48.217759,9.336793,-2.301895,-1.875972,0.018325,-0.058643,-0.009773
2026-03-09T22:33:48.226759,9.288937,-2.354537,-1.856830,0.019547,-0.057421,-0.009773
2026-03-09T22:33:48.236759,9.327222,-2.354537,-1.828116,0.021991,-0.056199,-0.009773
2026-03-09T22:33:48.246759,9.293722,-2.301895,-1.818545,0.021991,-0.053756,-0.009773
2026-03-09T22:33:48.255759,9.355936,-2.282752,-1.875972,0.024434,-0.052534,-0.008552
2026-03-09T22:33:48.265759,9.336793,-2.306680,-1.885544,0.021991,-0.052534,-0.008552
2026-03-09T22:33:48.274759,9.332008,-2.273181,-1.899901,0.019547,-0.052534,-0.008552
2026-03-09T22:33:48.284759,9.303294,-2.239681,-1.933400,0.017104,-0.052534,-0.008552
2026-03-09T22:33:48.294759,9.355936,-2.277967,-1.890329,0.014660,-0.054977,-0.008552
2026-03-09T22:33:48.303759,9.312865,-2.268395,-1.966900,0.012217,-0.053756,-0.007330
2026-03-09T22:33:48.313759,9.360722,-2.268395,-1.952543,0.008552,-0.056199,-0.007330
2026-03-09T22:33:48.322759,9.351150,-2.249253,-1.895115,0.003665,-0.052534,-0.007330
2026-03-09T22:33:48.332759,9.288937,-2.297109,-1.981257,0.002443,-0.053756,-0.008552
2026-03-09T22:33:48.342759,9.284151,-2.340180,-1.919043,0.004886,-0.056199,-0.010995
2026-03-09T22:33:48.351759,9.265009,-2.335394,-1.866401,0.007330,-0.058643,-0.010995
2026-03-09T22:33:48.361759,9.221938,-2.316252,-1.856830,0.010995,-0.058643,-0.009773
2026-03-09T22:33:48.371759,9.221938,-2.321037,-1.832902,0.009773,-0.058643,-0.009773
2026-03-09T22:33:48.380759,9.298508,-2.349751,-1.852044,0.009773,-0.056199,-0.008552
2026-03-09T22:33:48.390759,9.341579,-2.431107,-1.914258,0.008552,-0.054977,-0.009773
2026-03-09T22:33:48.399759,9.332008,-2.431107,-1.890329,0.013439,-0.056199,-0.010995
2026-03-09T22:33:48.409759,9.341579,-2.388036,-1.957328,0.017104,-0.058643,-0.014660
2026-03-09T22:33:48.419759,9.408578,-2.368894,-1.895115,0.024434,-0.058643,-0.012217
2026-03-09T22:33:48.428759,9.336793,-2.349751,-1.808973,0.025656,-0.057421,-0.010995
2026-03-09T22:33:48.438759,9.308079,-2.330609,-1.919043,0.023212,-0.057421,-0.008552
2026-03-09T22:33:48.447759,9.303294,-2.254038,-1.923829,0.015882,-0.056199,-0.003665
2026-03-09T22:33:48.457759,9.332008,-2.258824,-1.871187,0.008552,-0.056199,-0.001221
2026-03-09T22:33:48.467759,9.336793,-2.297109,-1.832902,0.001221,-0.054977,-0.002443
2026-03-09T22:33:48.476759,9.308079,-2.287538,-1.818545,0.002443,-0.053756,-0.003665
2026-03-09T22:33:48.486759,9.308079,-2.368894,-1.866401,0.004886,-0.050090,-0.007330
2026-03-09T22:33:48.496759,9.308079,-2.321037,-1.909472,0.012217,-0.052534,-0.008552
2026-03-09T22:33:48.505759,9.279366,-2.340180,-1.933400,0.015882,-0.053756,-0.009773
2026-03-09T22:33:48.515759,9.284151,-2.392822,-1.928615,0.019547,-0.054977,-0.008552
2026-03-09T22:33:48.524759,9.293722,-2.335394,-1.904686,0.021991,-0.058643,-0.007330
2026-03-09T22:33:48.534759,9.332008,-2.287538,-1.919043,0.019547,-0.058643,-0.003665
2026-03-09T22:33:48.544759,9.332008,-2.306680,-1.871187,0.019547,-0.057421,-0.002443
2026-03-09T22:33:48.553759,9.303294,-2.239681,-1.861615,0.018325,-0.059864,0.000000
2026-03-09T22:33:48.563759,9.332008,-2.239681,-1.856830,0.009773,-0.058643,0.000000
2026-03-09T22:33:48.572759,9.336793,-2.148754,-1.861615,0.003665,-0.057421,-0.001221
2026-03-09T22:33:48.582759,9.389435,-2.258824,-1.880758,0.001221,-0.053756,-0.006108
2026-03-09T22:33:48.592759,9.322436,-2.277967,-1.852044,0.001221,-0.048869,-0.008552
2026-03-09T22:33:48.601759,9.298508,-2.321037,-1.789831,-0.001221,-0.048869,-0.008552
2026-03-09T22:33:48.611759,9.298508,-2.349751,-1.885544,0.001221,-0.047647,-0.012217
2026-03-09T22:33:48.621759,9.327222,-2.416750,-1.852044,0.001221,-0.048869,-0.009773
2026-03-09T22:33:48.630759,9.312865,-2.344966,-1.914258,0.003665,-0.051312,-0.007330
2026-03-09T22:33:48.640759,9.336793,-2.416750,-1.890329,0.004886,-0.051312,-0.007330
2026-03-09T22:33:48.649759,9.288937,-2.383251,-1.856830,0.007330,-0.053756,-0.008552
2026-03-09T22:33:48.659759,9.312865,-2.335394,-1.861615,0.013439,-0.056199,-0.010995
2026-03-09T22:33:48.669759,9.284151,-2.392822,-1.866401,0.017104,-0.058643,-0.012217
2026-03-09T22:33:48.678759,9.317651,-2.311466,-1.808973,0.020769,-0.058643,-0.012217
2026-03-09T22:33:48.688759,9.293722,-2.330609,-1.875972,0.020769,-0.057421,-0.010995
2026-03-09T22:33:48.697759,9.288937,-2.340180,-1.785045,0.015882,-0.057421,-0.009773
2026-03-09T22:33:48.707759,9.336793,-2.321037,-1.804188,0.017104,-0.054977,-0.007330
2026-03-09T22:33:48.717759,9.265009,-2.316252,-1.785045,0.014660,-0.053756,-0.008552
2026-03-09T22:33:48.726759,9.279366,-2.354537,-1.866401,0.017104,-0.053756,-0.009773
2026-03-09T22:33:48.736759,9.274580,-2.287538,-1.919043,0.019547,-0.054977,-0.008552
2026-03-09T22:33:48.746759,9.284151,-2.282752,-1.914258,0.019547,-0.056199,-0.009773
2026-03-09T22:33:48.755759,9.322436,-2.297109,-1.909472,0.018325,-0.059864,-0.008552
2026-03-09T22:33:48.765759,9.370293,-2.239681,-1.852044,0.018325,-0.056199,-0.008552
2026-03-09T22:33:48.774759,9.288937,-2.244467,-1.933400,0.014660,-0.057421,-0.009773
2026-03-09T22:33:48.784759,9.351150,-2.287538,-1.923829,0.012217,-0.057421,-0.010995
2026-03-09T22:33:48.794759,9.332008,-2.277967,-1.866401,0.010995,-0.056199,-0.009773
2026-03-09T22:33:48.803759,9.346365,-2.277967,-1.832902,0.008552,-0.056199,-0.007330
2026-03-09T22:33:48.813759,9.346365,-2.330609,-1.885544,0.009773,-0.054977,-0.009773
2026-03-09T22:33:48.822759,9.298508,-2.407179,-1.890329,0.012217,-0.056199,-0.008552
2026-03-09T22:33:48.832759,9.341579,-2.416750,-1.856830,0.012217,-0.056199,-0.008552
