Timestamp,Acceleration_X,Acceleration_Y,Acceleration_Z,Gyro_X,Gyro_Y,Gyro_Z
2026-01-24T18:20:50.010983,9.198010,-3.924229,0.813559,0.035430,-0.045204,-0.008552
2026-01-24T18:20:50.020983,9.087940,-3.862015,0.784845,0.031764,-0.040317,-0.006108
2026-01-24T18:20:50.029983,8.958727,-3.833301,0.803988,0.030543,-0.040317,0.000000
2026-01-24T18:20:50.039983,9.020941,-3.866801,0.799202,0.024434,-0.041538,-0.001221
2026-01-24T18:20:50.048983,8.906085,-3.905086,0.784845,0.018325,-0.045204,0.000000
2026-01-24T18:20:50.058983,8.977870,-3.962514,0.746560,0.018325,-0.052534,0.001221
2026-01-24T18:20:50.068983,9.006584,-3.972085,0.736989,0.025656,-0.067195,-0.004886
2026-01-24T18:20:50.077983,8.973084,-3.957728,0.756131,0.047647,-0.074525,-0.010995
2026-01-24T18:20:50.087983,9.083154,-3.957728,0.808774,0.063529,-0.079412,-0.015882
2026-01-24T18:20:50.097983,9.126225,-3.871586,0.856630,0.072082,-0.078190,-0.023212
2026-01-24T18:20:50.106983,9.102297,-3.876372,0.780060,0.081855,-0.072082,-0.031764
2026-01-24T18:20:50.116983,9.135796,-3.818944,0.799202,0.078190,-0.064751,-0.035430
2026-01-24T18:20:50.125983,9.126225,-3.823730,0.851844,0.059864,-0.056199,-0.035430
2026-01-24T18:20:50.135983,9.054440,-3.775874,0.770488,0.036651,-0.048869,-0.035430
2026-01-24T18:20:50.145983,9.030512,-3.818944,0.827916,0.020769,-0.048869,-0.034208
2026-01-24T18:20:50.154983,9.044869,-3.881158,0.837487,0.006108,-0.048869,-0.028099
2026-01-24T18:20:50.164983,9.001798,-3.938585,0.861416,0.002443,-0.051312,-0.025656
2026-01-24T18:20:50.173983,9.078368,-3.919443,0.818345,0.001221,-0.050090,-0.025656
2026-01-24T18:20:50.183983,8.992227,-3.938585,0.770488,0.004886,-0.050090,-0.024434
2026-01-24T18:20:50.193983,9.073583,-3.909872,0.732203,0.008552,-0.051312,-0.024434
2026-01-24T18:20:50.202983,9.087940,-3.900300,0.722632,0.006108,-0.048869,-0.023212
2026-01-24T18:20:50.212983,9.102297,-3.881158,0.708275,0.001221,-0.047647,-0.023212
2026-01-24T18:20:50.222983,9.126225,-3.852444,0.684347,-0.006108,-0.047647,-0.024434
2026-01-24T18:20:50.231983,9.107082,-3.866801,0.708275,-0.013439,-0.046425,-0.024434
2026-01-24T18:20:50.241983,9.107082,-3.881158,0.756131,-0.020769,-0.046425,-0.024434
2026-01-24T18:20:50.250983,9.035298,-3.885943,0.746560,-0.021991,-0.052534,-0.023212
2026-01-24T18:20:50.260983,9.049655,-3.976871,0.636490,-0.019547,-0.057421,-0.024434
2026-01-24T18:20:50.270983,9.087940,-3.929014,0.717846,-0.014660,-0.062308,-0.023212
2026-01-24T18:20:50.279983,9.059226,-3.967299,0.780060,-0.013439,-0.063529,-0.023212
2026-01-24T18:20:50.289983,9.006584,-3.943371,0.751346,-0.007330,-0.063529,-0.020769
2026-01-24T18:20:50.298983,9.083154,-3.881158,0.698704,-0.004886,-0.061086,-0.017104
2026-01-24T18:20:50.308983,9.035298,-3.948157,0.717846,-0.003665,-0.057421,-0.017104
2026-01-24T18:20:50.318983,8.992227,-3.885943,0.722632,-0.002443,-0.056199,-0.012217
2026-01-24T18:20:50.327983,8.968299,-3.838087,0.727418,-0.008552,-0.058643,-0.008552
2026-01-24T18:20:50.337983,8.939585,-3.838087,0.693918,-0.017104,-0.069638,-0.008552
2026-01-24T18:20:50.347983,8.968299,-3.852444,0.698704,-0.025656,-0.083077,-0.008552
2026-01-24T18:20:50.356983,9.025726,-3.857230,0.722632,-0.031764,-0.092851,-0.012217
2026-01-24T18:20:50.366983,9.054440,-3.876372,0.741775,-0.032986,-0.096516,-0.014660
2026-01-24T18:20:50.375983,9.059226,-3.952942,0.746560,-0.026878,-0.089186,-0.015882
2026-01-24T18:20:50.385983,9.001798,-3.952942,0.751346,-0.021991,-0.080634,-0.019547
2026-01-24T18:20:50.395983,8.963513,-3.847658,0.794417,-0.012217,-0.075747,-0.023212
2026-01-24T18:20:50.404983,8.910871,-3.871586,0.746560,-0.009773,-0.074525,-0.020769
2026-01-24T18:20:50.414983,8.839086,-3.862015,0.746560,-0.012217,-0.081855,-0.018325
2026-01-24T18:20:50.423983,8.877371,-3.881158,0.736989,-0.017104,-0.092851,-0.020769
2026-01-24T18:20:50.433983,8.915657,-3.842873,0.746560,-0.023212,-0.107512,-0.021991
2026-01-24T18:20:50.443983,8.920442,-3.909872,0.760917,-0.024434,-0.125838,-0.025656
2026-01-24T18:20:50.452983,9.078368,-3.929014,0.784845,-0.018325,-0.134390,-0.028099
2026-01-24T18:20:50.462983,9.111868,-3.962514,0.789631,-0.010995,-0.124616,-0.034208
2026-01-24T18:20:50.472983,9.054440,-3.900300,0.775274,0.001221,-0.109955,-0.036651
2026-01-24T18:20:50.481983,9.020941,-3.876372,0.799202,0.006108,-0.100181,-0.036651
2026-01-24T18:20:50.491983,8.910871,-3.881158,0.842273,0.006108,-0.100181,-0.034208
2026-01-24T18:20:50.500983,8.886943,-3.866801,0.933200,-0.001221,-0.108733,-0.034208
2026-01-24T18:20:50.510983,8.843872,-3.828516,0.885344,-0.008552,-0.122173,-0.031764
2026-01-24T18:20:50.520983,8.791230,-3.905086,0.870987,-0.014660,-0.135612,-0.029321
2026-01-24T18:20:50.529983,8.776873,-3.876372,0.933200,-0.023212,-0.134390,-0.026878
2026-01-24T18:20:50.539983,8.685946,-3.895515,0.904486,-0.030543,-0.133168,-0.032986
2026-01-24T18:20:50.548983,8.614161,-4.063012,0.961914,-0.034208,-0.131946,-0.042760
2026-01-24T18:20:50.558983,8.480163,-4.254438,0.976271,-0.018325,-0.146607,-0.063529
2026-01-24T18:20:50.568983,8.350950,-4.484149,0.985842,0.023212,-0.178372,-0.094073
2026-01-24T18:20:50.577983,8.274380,-4.661218,0.985842,0.101403,-0.207694,-0.130725
2026-01-24T18:20:50.587983,8.212167,-4.742574,1.004985,0.211359,-0.230907,-0.171042
2026-01-24T18:20:50.597983,8.140382,-4.709074,0.995414,0.320093,-0.255341,-0.207694
2026-01-24T18:20:50.606983,7.977670,-4.785645,1.038485,0.419053,-0.280997,-0.248011
2026-01-24T18:20:50.616983,7.881957,-4.814359,1.038485,0.513126,-0.300545,-0.282219
2026-01-24T18:20:50.625983,7.757530,-4.795216,1.196411,0.585208,-0.321315,-0.311541
2026-01-24T18:20:50.635983,7.700103,-4.857429,1.196411,0.651182,-0.351858,-0.339641
2026-01-24T18:20:50.645983,7.690531,-4.962714,1.124626,0.728151,-0.395840,-0.368962
2026-01-24T18:20:50.654983,7.752745,-4.991427,1.148554,0.816115,-0.450818,-0.404392
2026-01-24T18:20:50.664983,7.972884,-5.115854,1.062413,0.891863,-0.499687,-0.450818
2026-01-24T18:20:50.673983,8.126025,-5.178068,1.095912,0.973718,-0.549778,-0.496022
2026-01-24T18:20:50.683983,8.298308,-5.331208,1.052841,1.061683,-0.583987,-0.547335
2026-01-24T18:20:50.693983,8.575876,-5.446064,1.024128,1.149648,-0.605978,-0.613308
2026-01-24T18:20:50.702983,8.738588,-5.489135,0.942772,1.264490,-0.614530,-0.664621
2026-01-24T18:20:50.712983,8.867800,-5.513063,0.842273,1.368337,-0.632856,-0.702494
2026-01-24T18:20:50.722983,8.891728,-5.747559,0.564706,1.424537,-0.646295,-0.742811
2026-01-24T18:20:50.731983,8.973084,-6.192624,0.497707,1.545488,-0.651182,-0.786794
2026-01-24T18:20:50.741983,9.111868,-6.470192,0.483350,1.733635,-0.653625,-0.833220
2026-01-24T18:20:50.750983,9.049655,-6.690331,0.086141,1.948659,-0.652403,-0.855211
2026-01-24T18:20:50.760983,9.025726,-7.101897,-0.550349,2.195449,-0.680503,-0.871093
2026-01-24T18:20:50.770983,8.886943,-7.570890,-0.803988,2.515542,-0.726929,-0.918741
2026-01-24T18:20:50.779983,8.901300,-8.097311,-0.430708,2.940704,-0.799011,-0.968832
2026-01-24T18:20:50.789983,8.958727,-8.403592,0.009571,3.466048,-0.906523,-0.996931
2026-01-24T18:20:50.798983,9.154939,-8.743373,0.033499,4.002388,-0.987158,-0.998153
2026-01-24T18:20:50.808983,9.269794,-9.049655,-0.583848,4.581488,-1.032362,-0.968832
2026-01-24T18:20:50.818983,9.274580,-9.346365,-1.201196,5.260770,-1.062905,-0.943175
2026-01-24T18:20:50.827983,9.327222,-9.341579,-1.272981,6.041455,-1.125213,-0.927293
2026-01-24T18:20:50.837983,9.590432,-8.681160,-0.660419,6.830693,-1.197295,-0.932180
2026-01-24T18:20:50.847983,9.911071,-7.585247,0.311066,7.561288,-1.238834,-0.965166
2026-01-24T18:20:50.856983,10.308279,-5.680560,0.957129,8.126949,-1.219286,-0.981049
2026-01-24T18:20:50.866983,10.700702,-3.766302,1.397408,8.425051,-1.145982,-0.911410
2026-01-24T18:20:50.875983,11.016555,-1.899901,1.837687,8.415277,-1.031140,-0.806341
2026-01-24T18:20:50.885983,11.260623,-0.378065,2.464607,8.128171,-0.849102,-0.682947
2026-01-24T18:20:50.895983,11.212766,0.689132,2.909672,7.575949,-0.645073,-0.519235
2026-01-24T18:20:50.904983,11.236694,1.143769,3.058027,6.872232,-0.465479,-0.350636
2026-01-24T18:20:50.914983,11.174481,1.387837,3.105883,6.124533,-0.278554,-0.201585
2026-01-24T18:20:50.923983,11.030912,1.363908,3.349951,5.362174,-0.091629,-0.050090
2026-01-24T18:20:50.933983,10.796415,1.263410,3.665804,4.610809,0.059864,0.112399
2026-01-24T18:20:50.943983,10.604989,1.325623,4.082155,3.877771,0.141720,0.276111
2026-01-24T18:20:50.952983,10.509276,1.612762,4.412364,3.134959,0.208915,0.405614
2026-01-24T18:20:50.962983,10.490134,1.761117,4.536791,2.293187,0.285884,0.537561
2026-01-24T18:20:50.972983,10.423135,1.445264,4.651647,1.419650,0.344527,0.671951
2026-01-24T18:20:50.981983,10.523633,0.827916,4.575076,0.634077,0.399505,0.810007
2026-01-24T18:20:50.991983,10.671988,0.081355,4.503292,-0.003665,0.449596,0.926071
2026-01-24T18:20:51.000983,10.930413,-0.842273,4.173082,-0.453261,0.504574,1.018923
2026-01-24T18:20:51.010983,11.270194,-1.708475,4.058227,-0.747698,0.566882,1.105665
2026-01-24T18:20:51.020983,11.653046,-2.440679,3.866801,-0.908967,0.646295,1.171639
2026-01-24T18:20:51.029983,11.978469,-3.010170,3.483949,-0.945619,0.740368,1.213178
2026-01-24T18:20:51.039983,12.308679,-3.330809,3.297309,-0.896749,0.856432,1.255938
2026-01-24T18:20:51.048983,12.476177,-3.211167,3.407379,-0.814894,0.998153,1.282816
2026-01-24T18:20:51.058983,12.768101,-2.885744,3.905086,-0.739146,1.155756,1.293812
2026-01-24T18:20:51.068983,13.045668,-2.234896,4.354937,-0.761137,1.313359,1.346346
2026-01-24T18:20:51.077983,13.447663,-1.421336,4.675575,-0.956614,1.446528,1.472184
2026-01-24T18:20:51.087983,13.902299,-0.454636,4.503292,-1.353677,1.543045,1.650557
2026-01-24T18:20:51.097983,14.605789,0.468993,3.751945,-1.923003,1.627344,1.868025
2026-01-24T18:20:51.106983,15.117853,1.296909,2.914457,-2.623054,1.750739,2.119701
2026-01-24T18:20:51.116983,15.534204,2.024327,1.995614,-3.472157,1.953546,2.411695
2026-01-24T18:20:51.125983,15.730415,2.163111,0.995414,-4.458093,2.224770,2.725680
2026-01-24T18:20:51.135983,15.687344,1.579262,-0.153140,-5.439142,2.525316,3.021338
2026-01-24T18:20:51.145983,15.323635,0.531206,-1.076770,-6.260145,2.819753,3.276680
2026-01-24T18:20:51.154983,14.677573,-0.823130,-1.966900,-6.863680,3.051882,3.497813
2026-01-24T18:20:51.164983,13.438091,-2.837887,-2.431107,-7.125130,3.143511,3.681073
2026-01-24T18:20:51.173983,12.782458,-3.775874,-3.220739,-7.171556,3.178942,3.857002
2026-01-24T18:20:51.183983,11.944970,-5.331208,-3.177668,-7.027392,3.281567,3.881436
2026-01-24T18:20:51.193983,11.006983,-6.183053,-2.928814,-6.528926,3.316997,3.795915
2026-01-24T18:20:51.202983,9.877571,-6.159125,-2.804388,-5.903400,3.290119,3.731164
2026-01-24T18:20:51.212983,8.748159,-5.929414,-2.947957,-5.380499,3.258354,3.656638
2026-01-24T18:20:51.222983,7.599604,-6.053841,-2.703889,-4.913798,3.203376,3.502700
2026-01-24T18:20:51.231983,6.527620,-6.259623,-2.301895,-4.371350,3.150842,3.325549
2026-01-24T18:20:51.241983,5.388636,-6.374479,-1.507478,-3.775146,3.018895,3.158172
2026-01-24T18:20:51.250983,4.421936,-6.431907,-0.847059,-3.138624,2.807536,2.955365
2026-01-24T18:20:51.260983,3.814159,-6.317051,-0.416351,-2.493551,2.554637,2.735453
2026-01-24T18:20:51.270983,3.316452,-6.269195,-0.095712,-1.814269,2.307848,2.509433
2026-01-24T18:20:51.279983,2.593819,-5.938985,0.397208,-1.075122,2.035402,2.277305
2026-01-24T18:20:51.289983,2.469392,-5.235495,0.555134,-0.401949,1.718974,2.024406
2026-01-24T18:20:51.298983,2.641676,-4.618147,0.459421,0.128281,1.428202,1.759291
2026-01-24T18:20:51.308983,3.005385,-3.885943,0.516849,0.585208,1.218065,1.501506
2026-01-24T18:20:51.318983,3.536591,-3.000599,0.713061,0.930958,1.094670,1.243721
2026-01-24T18:20:51.327983,3.866801,-2.086541,0.780060,1.106887,1.054353,0.998153
2026-01-24T18:20:51.337983,4.053441,-1.354337,0.732203,1.131322,1.071457,0.774576
2026-01-24T18:20:51.347983,4.086941,-0.775274,0.440279,1.037248,1.122770,0.563217
2026-01-24T18:20:51.356983,3.890729,-0.315852,0.397208,0.845437,1.165530,0.345749
2026-01-24T18:20:51.366983,3.756731,-0.110069,0.406779,0.572991,1.182634,0.120951
2026-01-24T18:20:51.375983,3.584448,-0.095712,0.488135,0.259006,1.178969,-0.113620
2026-01-24T18:20:51.385983,3.522234,-0.358923,0.416351,-0.053756,1.152091,-0.350636
2026-01-24T18:20:51.395983,3.555734,-0.789631,0.129212,-0.335975,1.097113,-0.588873
2026-01-24T18:20:51.404983,3.814159,-1.311266,-0.196211,-0.569326,1.015257,-0.853989
2026-01-24T18:20:51.414983,4.197010,-1.890329,-0.354137,-0.725707,0.922406,-1.141096
2026-01-24T18:20:51.423983,4.584648,-2.474178,-0.124426,-0.777020,0.833220,-1.453858
2026-01-24T18:20:51.433983,5.091926,-2.833101,0.296710,-0.766024,0.755029,-1.786169
2026-01-24T18:20:51.443983,5.718846,-3.029313,0.445065,-0.734259,0.700051,-2.109928
2026-01-24T18:20:51.452983,6.216553,-3.244667,0.435493,-0.687834,0.667064,-2.408030
2026-01-24T18:20:51.462983,6.513263,-3.402593,0.253639,-0.643851,0.642630,-2.686584
2026-01-24T18:20:51.472983,6.752545,-3.445664,0.267996,-0.616973,0.603534,-2.946813
2026-01-24T18:20:51.481983,6.833901,-3.550948,0.215354,-0.619417,0.547335,-3.176498
2026-01-24T18:20:51.491983,6.867400,-3.713660,0.196211,-0.618195,0.471587,-3.371975
2026-01-24T18:20:51.500983,6.953542,-3.919443,0.224925,-0.591317,0.379958,-3.540574
2026-01-24T18:20:51.510983,7.039684,-4.110869,0.325423,-0.546113,0.276111,-3.688403
2026-01-24T18:20:51.520983,7.097111,-4.192225,0.421136,-0.481361,0.166155,-3.815463
2026-01-24T18:20:51.529983,7.302894,-4.436293,0.449850,-0.398284,0.048869,-3.933971
2026-01-24T18:20:51.539983,7.456035,-4.560719,0.607776,-0.287106,-0.090408,-4.046370
2026-01-24T18:20:51.548983,7.700103,-4.704289,0.765703,-0.150272,-0.257785,-4.150217
2026-01-24T18:20:51.558983,8.097311,-4.852644,0.890130,0.009773,-0.439822,-4.254064
2026-01-24T18:20:51.568983,8.542376,-5.010570,0.957129,0.182037,-0.641408,-4.345694
2026-01-24T18:20:51.577983,9.202795,-5.130211,1.024128,0.362853,-0.847880,-4.428772
2026-01-24T18:20:51.587983,9.925428,-5.149354,1.071984,0.555887,-1.038470,-4.502075
2026-01-24T18:20:51.597983,10.710273,-5.154139,1.182054,0.725707,-1.197295,-4.559497
2026-01-24T18:20:51.606983,11.657831,-5.101497,1.239482,0.858876,-1.314581,-4.597370
2026-01-24T18:20:51.616983,12.485748,-5.067998,1.196411,0.941954,-1.378111,-4.593705
2026-01-24T18:20:51.625983,13.351950,-4.819144,0.995414,0.956614,-1.375668,-4.528953
2026-01-24T18:20:51.635983,14.050654,-4.565505,0.942772,0.935845,-1.318246,-4.432437
2026-01-24T18:20:51.645983,14.634503,-4.431507,1.387837,0.735481,-1.160643,-4.287051
2026-01-24T18:20:51.654983,15.002997,-4.996213,1.789831,0.455705,-0.995710,-4.057366
2026-01-24T18:20:51.664983,15.290136,-6.149554,3.010170,0.218689,-0.797789,-3.946188
2026-01-24T18:20:51.673983,14.706287,-6.948756,2.220539,0.213802,-0.662177,-3.721390
2026-01-24T18:20:51.683983,13.988440,-5.967699,1.607976,0.499687,-0.630412,-3.457496
2026-01-24T18:20:51.693983,14.596217,-2.124826,3.876372,0.774576,-0.458148,-3.034777
2026-01-24T18:20:51.702983,13.146167,-1.545763,4.168296,-0.678060,-0.073303,-2.755001
2026-01-24T18:20:51.712983,10.815558,-7.441678,1.397408,-2.372600,-0.357966,-2.509433
2026-01-24T18:20:51.722983,10.743773,-10.298708,1.392622,-1.492954,-0.872315,-2.128254
2026-01-24T18:20:51.731983,10.877771,-8.221738,3.220739,0.041538,-0.784350,-1.773952
2026-01-24T18:20:51.741983,10.939984,-7.499106,3.536591,-0.147829,-0.827111,-1.533271
2026-01-24T18:20:51.750983,10.892128,-9.518648,1.598405,-0.452040,-0.921184,-1.319468
2026-01-24T18:20:51.760983,10.533205,-9.710074,0.966700,0.471587,-0.845437,-1.048244
2026-01-24T18:20:51.770983,10.025926,-8.236095,1.430907,1.295034,-0.698829,-0.802676
2026-01-24T18:20:51.779983,9.269794,-7.427321,1.751546,1.414763,-0.686612,-0.612086
2026-01-24T18:20:51.789983,8.939585,-7.173682,2.057827,1.591914,-0.753807,-0.433714
2026-01-24T18:20:51.798983,8.709874,-6.293123,2.656033,1.894903,-0.882089,-0.228463
2026-01-24T18:20:51.808983,8.958727,-5.675775,2.703889,1.951103,-1.014036,-0.065973
2026-01-24T18:20:51.818983,9.260223,-5.637490,2.368894,1.899790,-1.091005,0.054977
2026-01-24T18:20:51.827983,9.643075,-5.474778,2.335394,1.979202,-1.120326,0.153938
2026-01-24T18:20:51.837983,10.078568,-4.972285,2.445464,2.009746,-1.128878,0.211359
2026-01-24T18:20:51.847983,10.571490,-4.766502,2.627319,1.866803,-1.148426,0.241902
2026-01-24T18:20:51.856983,11.102696,-4.948357,2.790031,1.733635,-1.185078,0.250454
2026-01-24T18:20:51.866983,11.921042,-5.106283,2.909672,1.685987,-1.204625,0.230907
2026-01-24T18:20:51.875983,12.701102,-5.254638,2.876172,1.633453,-1.160643,0.204028
2026-01-24T18:20:51.885983,13.184452,-5.517848,2.502892,1.587027,-1.017701,0.174707
2026-01-24T18:20:51.895983,13.150953,-5.599204,1.923829,1.598023,-0.747698,0.152716
2026-01-24T18:20:51.904983,12.380464,-5.345565,1.569691,1.612683,-0.370184,0.150272
2026-01-24T18:20:51.914983,10.944770,-5.053641,1.330409,1.572366,-0.003665,0.183259
2026-01-24T18:20:51.923983,9.092725,-4.934000,1.210768,1.524719,0.229685,0.257785
2026-01-24T18:20:51.933983,7.623532,-4.867001,1.138983,1.506393,0.283441,0.367740
2026-01-24T18:20:51.943983,6.297909,-4.900500,1.076770,1.516167,0.188146,0.487470
2026-01-24T18:20:51.952983,5.575276,-5.144568,1.048056,1.612683,-0.025656,0.544891
2026-01-24T18:20:51.962983,5.412564,-5.479563,1.292124,1.964542,-0.256563,0.445931
2026-01-24T18:20:51.972983,5.790630,-5.446064,0.937986,2.582737,-0.419053,0.327423
2026-01-24T18:20:51.981983,6.149554,-5.039284,0.014356,3.403740,-0.527787,0.230907
2026-01-24T18:20:51.991983,6.752545,-4.455435,-0.727418,4.212525,-0.598647,0.101403
2026-01-24T18:20:52.000983,7.274180,-3.617947,-1.464407,4.873482,-0.642630,-0.031764
2026-01-24T18:20:52.010983,7.661817,-2.163111,-2.292324,5.423260,-0.663399,-0.134390
2026-01-24T18:20:52.020983,7.824529,-0.507278,-2.244467,5.530772,-0.575434,-0.172263
2026-01-24T18:20:52.029983,7.743173,0.507278,-0.990628,5.241222,-0.443488,-0.287106
2026-01-24T18:20:52.039983,8.020741,0.827916,0.315852,4.608366,-0.445931,-0.305432
2026-01-24T18:20:52.048983,8.585447,0.330209,0.138783,3.908314,-0.529009,-0.191811
2026-01-24T18:20:52.058983,9.365507,-0.124426,-0.770488,3.290119,-0.676838,-0.179594
2026-01-24T18:20:52.068983,10.365707,-1.129412,-1.507478,2.621833,-0.879645,-0.107512
2026-01-24T18:20:52.077983,11.705688,-2.450250,-1.091127,2.096489,-0.993266,-0.087964
2026-01-24T18:20:52.087983,12.892528,-3.828516,-1.019342,1.738522,-1.009149,-0.146607
2026-01-24T18:20:52.097983,13.710873,-5.297709,-2.354537,1.451415,-0.896749,-0.204028
2026-01-24T18:20:52.106983,14.136795,-7.116254,-3.785445,1.422093,-0.590095,-0.301767
2026-01-24T18:20:52.116983,13.907084,-8.465806,-4.479363,1.836260,-0.123394,-0.443488
2026-01-24T18:20:52.125983,13.093525,-9.035298,-4.584648,2.524094,0.323758,-0.558330
2026-01-24T18:20:52.135983,11.868400,-9.092725,-4.800002,3.213150,0.554665,-0.627969
2026-01-24T18:20:52.145983,10.810772,-8.906085,-5.163711,3.887545,0.531452,-0.684168
2026-01-24T18:20:52.154983,10.351350,-8.441878,-5.321637,4.590040,0.361632,-0.764803
2026-01-24T18:20:52.164983,10.456634,-7.393821,-5.383850,5.246109,0.156381,-0.862541
2026-01-24T18:20:52.173983,10.987841,-6.360122,-5.852844,5.606520,0.015882,-0.915075
2026-01-24T18:20:52.183983,11.562118,-6.173482,-6.020341,5.782449,-0.039095,-0.965166
2026-01-24T18:20:52.193983,12.203395,-6.226124,-5.589633,5.987699,0.001221,-1.015257
2026-01-24T18:20:52.202983,12.705888,-6.407978,-5.034498,6.196615,0.108733,-1.034805
2026-01-24T18:20:52.212983,13.012169,-6.551548,-4.814359,6.411640,0.260228,-1.044579
2026-01-24T18:20:52.222983,13.131810,-6.360122,-4.756931,6.655986,0.442266,-1.028696
2026-01-24T18:20:52.231983,13.060025,-5.900700,-4.603790,6.858793,0.630412,-0.981049
2026-01-24T18:20:52.241983,12.801600,-4.910071,-4.426721,6.901554,0.813672,-0.908967
2026-01-24T18:20:52.250983,12.547961,-3.766302,-4.010370,6.729290,0.999375,-0.823446
2026-01-24T18:20:52.260983,12.141181,-2.344966,-3.182454,6.302906,1.164308,-0.689055
2026-01-24T18:20:52.270983,11.868400,-1.215553,-2.522035,5.583307,1.280373,-0.524122
2026-01-24T18:20:52.279983,11.557333,-0.387637,-1.986042,4.674339,1.379333,-0.317649
2026-01-24T18:20:52.289983,11.404192,0.119641,-1.440479,3.687181,1.457524,-0.065973
2026-01-24T18:20:52.298983,11.461620,0.229710,-0.990628,2.624276,1.525941,0.217467
2026-01-24T18:20:52.308983,11.423335,-0.162711,-0.693918,1.563814,1.593136,0.503352
2026-01-24T18:20:52.318983,11.428120,-1.028913,-0.669990,0.610865,1.642005,0.780685
2026-01-24T18:20:52.327983,11.614760,-1.957328,-0.794417,-0.182037,1.678657,1.048244
2026-01-24T18:20:52.337983,11.710473,-2.770888,-0.861416,-0.764803,1.725083,1.277929
2026-01-24T18:20:52.347983,11.753544,-3.244667,-0.861416,-1.174082,1.793499,1.483180
2026-01-24T18:20:52.356983,11.437692,-3.704089,-0.985842,-1.490510,1.868025,1.676213
2026-01-24T18:20:52.366983,10.887342,-3.761517,-1.210768,-1.717752,1.916894,1.855808
2026-01-24T18:20:52.375983,10.403992,-3.680161,-1.454836,-1.932777,1.918116,2.009746
2026-01-24T18:20:52.385983,9.958927,-3.589233,-1.698904,-2.149023,1.880242,2.139249
2026-01-24T18:20:52.395983,9.705288,-3.613162,-1.761117,-2.340835,1.798386,2.252870
2026-01-24T18:20:52.404983,9.547362,-3.675375,-1.828116,-2.547307,1.684765,2.395812
2026-01-24T18:20:52.414983,9.542576,-4.015156,-2.014756,-2.665815,1.602910,2.504546
2026-01-24T18:20:52.423983,9.427721,-4.048655,-2.091326,-2.713462,1.532049,2.596176
2026-01-24T18:20:52.433983,9.298508,-4.307080,-2.488535,-2.735453,1.481958,2.671923
2026-01-24T18:20:52.443983,8.877371,-4.565505,-2.976671,-2.693915,1.453858,2.729345
2026-01-24T18:20:52.452983,8.417949,-4.814359,-3.129811,-2.576629,1.406211,2.747671
2026-01-24T18:20:52.462983,7.996813,-5.029713,-3.077169,-2.389704,1.313359,2.724458
2026-01-24T18:20:52.472983,7.652246,-5.364708,-2.732603,-2.156353,1.160643,2.679254
2026-01-24T18:20:52.481983,7.661817,-5.618347,-2.277967,-1.853364,0.977384,2.624276
2026-01-24T18:20:52.491983,7.862815,-5.694917,-1.933400,-1.478293,0.767246,2.564411
2026-01-24T18:20:52.500983,8.260023,-5.613561,-1.832902,-1.109331,0.592539,2.504546
2026-01-24T18:20:52.510983,8.566304,-5.292923,-1.799402,-0.757472,0.493579,2.450790
2026-01-24T18:20:52.520983,8.709874,-4.742574,-1.981257,-0.460592,0.454483,2.416582
2026-01-24T18:20:52.529983,8.709874,-3.981656,-1.923829,-0.312762,0.409279,2.406808
2026-01-24T18:20:52.539983,8.647660,-3.555734,-2.096112,-0.360410,0.378736,2.376265
2026-01-24T18:20:52.548983,8.470592,-3.254238,-2.029113,-0.426383,0.304210,2.393369
2026-01-24T18:20:52.558983,8.350950,-2.914457,-1.775474,-0.531452,0.186924,2.421469
2026-01-24T18:20:52.568983,8.427521,-2.952743,-1.607976,-0.709825,0.053756,2.436130
2026-01-24T18:20:52.577983,8.518448,-3.139383,-1.531406,-0.863763,-0.083077,2.452012
2026-01-24T18:20:52.587983,8.671589,-3.450450,-1.459621,-0.960279,-0.213802,2.471560
2026-01-24T18:20:52.597983,8.781658,-3.895515,-1.445264,-0.987158,-0.277332,2.412917
2026-01-24T18:20:52.606983,8.910871,-4.240081,-1.478764,-0.912632,-0.335975,2.322509
2026-01-24T18:20:52.616983,8.863014,-4.646861,-1.430907,-0.741590,-0.425162,2.190562
2026-01-24T18:20:52.625983,8.891728,-4.723431,-1.670190,-0.486248,-0.537561,2.048841
2026-01-24T18:20:52.635983,9.006584,-4.498506,-1.871187,-0.224798,-0.647517,1.875355
2026-01-24T18:20:52.645983,9.279366,-4.211367,-1.885544,-0.003665,-0.737925,1.689652
2026-01-24T18:20:52.654983,9.513862,-3.780659,-1.923829,0.158824,-0.764803,1.512502
2026-01-24T18:20:52.664983,9.355936,-3.239881,-1.895115,0.259006,-0.712268,1.354898
2026-01-24T18:20:52.673983,8.863014,-2.679961,-1.574477,0.296880,-0.587652,1.218065
2026-01-24T18:20:52.683983,7.896314,-2.120040,-1.048056,0.257785,-0.461814,1.093448
2026-01-24T18:20:52.693983,6.728617,-1.852044,-0.569491,0.151494,-0.392175,0.974940
2026-01-24T18:20:52.702983,5.546562,-1.933400,-0.114855,0.050090,-0.397062,0.850324
2026-01-24T18:20:52.712983,4.517649,-2.234896,0.416351,0.058643,-0.486248,0.722042
2026-01-24T18:20:52.722983,3.938585,-2.450250,0.966700,0.152716,-0.648738,0.586430
2026-01-24T18:20:52.731983,3.665804,-2.502892,1.320838,0.298102,-0.847880,0.449596
2026-01-24T18:20:52.741983,3.732803,-2.445464,1.454836,0.486248,-1.055574,0.294436
2026-01-24T18:20:52.750983,4.091726,-2.258824,1.450050,0.678060,-1.249830,0.109955
2026-01-24T18:20:52.760983,4.608576,-1.966900,1.430907,0.827111,-1.406211,-0.100181
2026-01-24T18:20:52.770983,5.273781,-1.636690,1.473978,0.918741,-1.514945,-0.333532
2026-01-24T18:20:52.779983,5.857629,-1.402194,1.526620,0.935845,-1.583362,-0.575434
2026-01-24T18:20:52.789983,6.527620,-1.316052,1.775474,0.885754,-1.616349,-0.835663
2026-01-24T18:20:52.798983,7.106683,-1.368694,2.110469,0.794124,-1.623679,-1.117883
2026-01-24T18:20:52.808983,7.733602,-1.627119,2.201396,0.676838,-1.598023,-1.395215
2026-01-24T18:20:52.818983,8.169096,-1.713260,2.239681,0.557108,-1.544267,-1.660331
2026-01-24T18:20:52.827983,8.427521,-1.832902,2.153540,0.425162,-1.481958,-1.931555
2026-01-24T18:20:52.837983,8.676374,-1.804188,2.220539,0.255341,-1.424537,-2.210109
2026-01-24T18:20:52.847983,8.843872,-1.741974,2.378465,0.035430,-1.373224,-2.484999
2026-01-24T18:20:52.856983,8.977870,-1.761117,2.560320,-0.218689,-1.325577,-2.740340
2026-01-24T18:20:52.866983,9.116654,-1.785045,2.632104,-0.502131,-1.292590,-2.965139
2026-01-24T18:20:52.875983,9.308079,-2.038684,2.833101,-0.803898,-1.295034,-3.166724
2026-01-24T18:20:52.885983,9.609575,-2.469392,2.890529,-1.099557,-1.326799,-3.336545
2026-01-24T18:20:52.895983,9.968498,-2.866601,2.809173,-1.357342,-1.369559,-3.496591
2026-01-24T18:20:52.904983,10.447063,-3.474378,2.703889,-1.556484,-1.418428,-3.643199
2026-01-24T18:20:52.914983,10.872985,-4.220939,2.478964,-1.677435,-1.456302,-3.773924
2026-01-24T18:20:52.923983,11.265408,-5.000999,2.163111,-1.694539,-1.483180,-3.898541
2026-01-24T18:20:52.933983,11.547761,-5.761916,2.009970,-1.585805,-1.506393,-4.021935
2026-01-24T18:20:52.943983,11.815757,-6.541976,1.895115,-1.354898,-1.544267,-4.157547
2026-01-24T18:20:52.952983,12.165110,-7.322037,1.880758,-1.020144,-1.601688,-4.291938
2026-01-24T18:20:52.962983,12.519247,-8.126025,1.952543,-0.599869,-1.693318,-4.412889
2026-01-24T18:20:52.972983,13.165309,-8.953942,2.033899,-0.078190,-1.804495,-4.509406
2026-01-24T18:20:52.981983,13.830514,-9.623932,2.268395,0.548556,-1.916894,-4.560718
2026-01-24T18:20:52.991983,14.701502,-10.212566,2.301895,1.232725,-1.980424,-4.561940
2026-01-24T18:20:53.000983,15.337992,-10.671988,2.459821,1.926668,-1.932777,-4.482528
2026-01-24T18:20:53.010983,15.491133,-10.872985,2.536391,2.621833,-1.749517,-4.322481
2026-01-24T18:20:53.020983,14.993426,-10.882557,2.464607,3.313332,-1.439198,-4.087909
2026-01-24T18:20:53.029983,13.596018,-10.327422,2.392822,3.970623,-1.131322,-3.751933
2026-01-24T18:20:53.039983,12.040683,-9.413364,2.105683,4.505741,-0.933401,-3.362201
2026-01-24T18:20:53.048983,10.533205,-8.298308,1.866401,4.885698,-0.911410,-2.970026
2026-01-24T18:20:53.058983,9.748359,-6.982256,1.536192,5.180136,-1.115439,-2.548529
2026-01-24T18:20:53.068983,9.748359,-5.364708,1.406979,5.335295,-1.461189,-2.156353
2026-01-24T18:20:53.077983,10.604989,-4.010370,1.344766,5.276652,-1.802052,-1.830151
2026-01-24T18:20:53.087983,11.839686,-2.718246,1.277767,5.120271,-2.029293,-1.566258
2026-01-24T18:20:53.097983,13.122239,-1.229910,1.402194,4.875924,-1.948659,-1.328020
2026-01-24T18:20:53.106983,13.782658,0.028713,2.139183,4.361576,-1.595579,-1.080009
2026-01-24T18:20:53.116983,13.624731,0.545563,2.871387,3.622430,-1.117883,-0.852767
2026-01-24T18:20:53.125983,12.600603,0.435493,3.005385,2.924822,-0.612086,-0.656069
2026-01-24T18:20:53.135983,11.117053,0.057427,3.239881,2.368934,-0.206472,-0.489913
2026-01-24T18:20:53.145983,9.619146,-0.526420,3.306880,1.931555,0.012217,-0.377514
2026-01-24T18:20:53.154983,8.609375,-1.062413,3.306880,1.707978,0.025656,-0.285884
2026-01-24T18:20:53.164983,8.049455,-1.225125,3.273381,1.594357,-0.089186,-0.243124
2026-01-24T18:20:53.173983,8.183453,-1.258624,3.172882,1.470963,-0.241902,-0.239459
2026-01-24T18:20:53.183983,8.829515,-1.253839,2.890529,1.346346,-0.335975,-0.251676
2026-01-24T18:20:53.193983,9.734002,-1.134197,2.541177,1.199739,-0.298102,-0.255341
2026-01-24T18:20:53.202983,10.327422,-1.138983,2.210968,1.009149,-0.147829,-0.240680
2026-01-24T18:20:53.212983,10.461420,-1.210768,1.828116,0.790459,0.068416,-0.226020
2026-01-24T18:20:53.222983,10.126425,-1.607976,1.325623,0.591317,0.291993,-0.207694
2026-01-24T18:20:53.231983,9.604789,-1.928615,1.110269,0.454483,0.463035,-0.183259
2026-01-24T18:20:53.241983,9.174081,-2.282752,0.961914,0.371405,0.543669,-0.162490
2026-01-24T18:20:53.250983,8.743373,-2.694318,0.904486,0.353080,0.546113,-0.147829
2026-01-24T18:20:53.260983,8.585447,-3.168097,0.803988,0.408057,0.519235,-0.128281
2026-01-24T18:20:53.270983,8.556733,-3.450450,0.827916,0.519235,0.499687,-0.114842
2026-01-24T18:20:53.279983,8.580661,-3.656232,0.856630,0.656069,0.505796,-0.102625
2026-01-24T18:20:53.289983,8.504091,-3.751945,1.024128,0.796568,0.529009,-0.091629
2026-01-24T18:20:53.298983,8.437092,-3.857230,1.033699,0.926071,0.552222,-0.076969
2026-01-24T18:20:53.308983,8.417949,-3.900300,1.100698,1.036027,0.563217,-0.061086
2026-01-24T18:20:53.318983,8.518448,-4.058227,0.985842,1.134987,0.552222,-0.051312
2026-01-24T18:20:53.327983,8.772087,-4.144368,0.976271,1.213178,0.540004,-0.046425
2026-01-24T18:20:53.337983,9.049655,-4.292723,0.918843,1.274264,0.537561,-0.042760
2026-01-24T18:20:53.347983,9.451649,-4.460221,0.803988,1.334129,0.552222,-0.042760
2026-01-24T18:20:53.356983,9.891928,-4.618147,0.650847,1.389107,0.583987,-0.041538
2026-01-24T18:20:53.366983,10.384850,-4.699503,0.354137,1.434311,0.605978,-0.042760
2026-01-24T18:20:53.375983,11.117053,-4.814359,0.052642,1.468519,0.581543,-0.046425
2026-01-24T18:20:53.385983,12.117253,-4.857429,-0.177068,1.483180,0.500909,-0.057421
2026-01-24T18:20:53.395983,13.572089,-5.048855,-0.440279,1.439198,0.359188,-0.072082
2026-01-24T18:20:53.404983,15.275779,-5.211567,-0.588634,1.363450,0.252898,-0.090408
2026-01-24T18:20:53.414983,16.821543,-5.393422,-0.904486,1.295034,0.311541,-0.113620
2026-01-24T18:20:53.423983,17.749958,-5.221138,-1.349551,1.221730,0.675616,-0.119729
2026-01-24T18:20:53.433983,17.314465,-4.843072,-1.808973,1.102000,1.369559,-0.062308
2026-01-24T18:20:53.443983,15.180066,-4.321437,-1.890329,0.908967,2.139249,0.114842
2026-01-24T18:20:53.452983,12.093325,-3.818944,-2.115255,0.548556,2.631606,0.370184
2026-01-24T18:20:53.462983,8.925228,-3.751945,-2.254038,0.054977,2.654819,0.645073
2026-01-24T18:20:53.472983,6.747759,-4.163511,-2.325823,-0.400727,2.295631,0.908967
2026-01-24T18:20:53.481983,5.747559,-4.972285,-2.115255,-0.626747,1.743409,1.142317
2026-01-24T18:20:53.491983,6.020341,-5.871986,-1.861615,-0.624304,1.139874,1.336572
2026-01-24T18:20:53.500983,7.369893,-6.642475,-1.880758,-0.454483,0.605978,1.496619
2026-01-24T18:20:53.510983,8.949156,-7.221538,-2.206182,-0.131946,0.249232,1.643227
2026-01-24T18:20:53.520983,10.370493,-7.652246,-2.675175,0.322536,0.114842,1.762956
2026-01-24T18:20:53.529983,11.298908,-7.800601,-3.153740,0.824667,0.145385,1.815491
2026-01-24T18:20:53.539983,11.748758,-7.881957,-3.498306,1.331685,0.261450,1.811825
2026-01-24T18:20:53.548983,11.901899,-7.747959,-3.742374,1.839925,0.357966,1.766621
2026-01-24T18:20:53.558983,11.734402,-7.436892,-3.914657,2.322509,0.367740,1.706757
2026-01-24T18:20:53.568983,11.772687,-6.771687,-4.034298,2.708575,0.299323,1.639561
2026-01-24T18:20:53.577983,12.050254,-6.068198,-4.024727,2.952921,0.179594,1.579697
2026-01-24T18:20:53.587983,12.452248,-5.426921,-3.790230,3.066542,0.069638,1.532049
2026-01-24T18:20:53.597983,12.993026,-4.929214,-3.584448,3.070208,0.019547,1.490510
2026-01-24T18:20:53.606983,13.261022,-4.541577,-3.436093,2.989573,0.040317,1.462411
2026-01-24T18:20:53.616983,13.385449,-4.374079,-3.402593,2.874731,0.118507,1.451415
2026-01-24T18:20:53.625983,13.184452,-4.321437,-3.297309,2.764775,0.222354,1.452637
2026-01-24T18:20:53.635983,12.777672,-4.359722,-3.125026,2.662150,0.300545,1.470963
2026-01-24T18:20:53.645983,12.351750,-4.407579,-3.019742,2.558303,0.338419,1.500284
2026-01-24T18:20:53.654983,12.074182,-4.465006,-2.876172,2.470338,0.331088,1.541823
2026-01-24T18:20:53.664983,12.002398,-4.417150,-2.746960,2.400699,0.289550,1.593136
2026-01-24T18:20:53.673983,12.088539,-4.039084,-2.703889,2.295631,0.248011,1.663996
2026-01-24T18:20:53.683983,12.356535,-3.579662,-2.474178,2.142914,0.229685,1.755626
2026-01-24T18:20:53.693983,12.667602,-2.885744,-2.268395,1.905899,0.256563,1.890016
2026-01-24T18:20:53.702983,12.926027,-2.096112,-2.282752,1.529606,0.302989,2.069610
2026-01-24T18:20:53.712983,13.251451,-1.287338,-2.177468,1.040914,0.359188,2.278526
2026-01-24T18:20:53.722983,13.380663,-0.315852,-2.675175,0.394618,0.460592,2.548529
2026-01-24T18:20:53.731983,13.060025,0.272781,-3.460021,-0.404392,0.618195,2.856405
2026-01-24T18:20:53.741983,12.351750,0.330209,-4.249652,-1.252273,0.797789,3.141068
2026-01-24T18:20:53.750983,11.184052,-0.181854,-4.287938,-2.026850,0.937067,3.401296
2026-01-24T18:20:53.760983,9.930213,-1.258624,-3.976871,-2.635272,0.949284,3.654195
2026-01-24T18:20:53.770983,8.719445,-2.622533,-3.780659,-2.955365,0.824667,3.835011
2026-01-24T18:20:53.779983,7.939385,-3.871586,-3.751945,-2.966360,0.557108,3.960849
2026-01-24T18:20:53.789983,7.642675,-4.938785,-3.536591,-2.726901,0.206472,4.048813
2026-01-24T18:20:53.798983,7.834101,-5.570491,-3.316452,-2.279748,-0.144164,4.075692
2026-01-24T18:20:53.808983,8.283951,-5.977270,-3.077169,-1.712865,-0.431270,4.081800
2026-01-24T18:20:53.818983,8.934799,-5.800201,-2.904886,-1.093448,-0.599869,4.062252
2026-01-24T18:20:53.827983,9.403792,-5.063212,-2.732603,-0.516791,-0.643851,4.001166
2026-01-24T18:20:53.837983,9.533005,-4.106083,-2.598605,-0.091629,-0.598647,3.924197
2026-01-24T18:20:53.847983,9.375078,-3.196810,-2.474178,0.116064,-0.526565,3.855780
2026-01-24T18:20:53.856983,8.958727,-2.646461,-2.258824,0.150272,-0.470366,3.781255
2026-01-24T18:20:53.866983,8.432306,-2.373680,-2.019542,0.111177,-0.450818,3.695733
2026-01-24T18:20:53.875983,7.963313,-2.364108,-1.761117,0.072082,-0.486248,3.586999
2026-01-24T18:20:53.885983,7.719245,-2.440679,-1.493121,0.057421,-0.557108,3.452609
2026-01-24T18:20:53.895983,7.604390,-2.656033,-0.933200,0.062308,-0.619417,3.274236
2026-01-24T18:20:53.904983,7.566105,-3.043670,-0.210568,0.125838,-0.647517,3.065321
2026-01-24T18:20:53.914983,7.647461,-3.378665,0.363709,0.224798,-0.632856,2.844187
2026-01-24T18:20:53.923983,7.704888,-3.594019,0.445065,0.365297,-0.576656,2.615724
2026-01-24T18:20:53.933983,7.590033,-3.531806,0.425922,0.538783,-0.507018,2.362826
2026-01-24T18:20:53.943983,7.427321,-3.220739,0.473778,0.681725,-0.453261,2.086715
2026-01-24T18:20:53.952983,7.231109,-3.038884,0.722632,0.748920,-0.411723,1.797165
2026-01-24T18:20:53.962983,7.154539,-2.890529,0.981057,0.770911,-0.373849,1.505171
2026-01-24T18:20:53.972983,7.049255,-2.665604,1.258624,0.755029,-0.333532,1.194852
2026-01-24T18:20:53.981983,6.982256,-2.579462,1.272981,0.696386,-0.295658,0.863763
2026-01-24T18:20:53.991983,7.030112,-2.622533,1.229910,0.619417,-0.288328,0.491135
2026-01-24T18:20:54.000983,7.384250,-2.660818,1.335195,0.540004,-0.321315,0.080634
2026-01-24T18:20:54.010983,7.872386,-2.818745,1.459621,0.463035,-0.379958,-0.377514
2026-01-24T18:20:54.020983,8.403592,-2.928814,1.694118,0.375071,-0.420275,-0.860098
2026-01-24T18:20:54.029983,8.709874,-2.890529,1.957328,0.254119,-0.410501,-1.302364
2026-01-24T18:20:54.039983,8.752945,-2.847458,2.560320,0.069638,-0.338419,-1.690874
2026-01-24T18:20:54.048983,8.398807,-2.684746,3.129811,-0.205250,-0.199142,-2.010967
2026-01-24T18:20:54.058983,7.523034,-2.775674,3.527020,-0.566882,0.006108,-2.228435
2026-01-24T18:20:54.068983,6.250052,-3.168097,4.043870,-0.917519,0.218689,-2.324952
2026-01-24T18:20:54.077983,4.814359,-3.972085,4.986642,-1.175304,0.355523,-2.351830
2026-01-24T18:20:54.087983,3.359522,-5.015356,6.087340,-1.319468,0.382401,-2.334726
2026-01-24T18:20:54.097983,2.124826,-6.393621,6.786044,-1.295034,0.289550,-2.263866
2026-01-24T18:20:54.106983,1.215553,-7.743173,7.130611,-0.999375,0.058643,-2.186897
2026-01-24T18:20:54.116983,0.885344,-8.518448,7.168896,-0.497244,-0.290771,-2.156353
2026-01-24T18:20:54.125983,1.627119,-8.843872,6.900900,0.081855,-0.685390,-2.175901
2026-01-24T18:20:54.135983,3.144168,-8.810372,6.326622,0.660956,-0.987158,-2.197892
2026-01-24T18:20:54.145983,4.957928,-8.437092,5.527420,1.214399,-1.114217,-2.205223
2026-01-24T18:20:54.154983,6.508477,-7.590033,4.484149,1.677435,-1.091005,-2.223549
2026-01-24T18:20:54.164983,7.637889,-6.551548,3.038884,1.919338,-0.952949,-2.256535
2026-01-24T18:20:54.173983,8.413164,-5.704489,1.751546,1.966985,-0.763581,-2.320065
2026-01-24T18:20:54.183983,8.791230,-5.000999,0.957129,1.859473,-0.602312,-2.425134
2026-01-24T18:20:54.193983,9.245866,-4.264009,0.679561,1.624901,-0.530230,-2.579072
2026-01-24T18:20:54.202983,9.810572,-3.747160,0.765703,1.274264,-0.552222,-2.762332
2026-01-24T18:20:54.212983,10.777272,-3.450450,1.172483,0.813672,-0.631634,-2.916270
2026-01-24T18:20:54.222983,11.672188,-3.584448,1.512263,0.289550,-0.709825,-3.006678
2026-01-24T18:20:54.231983,12.658031,-3.416950,1.258624,-0.274889,-0.725707,-3.039664
2026-01-24T18:20:54.241983,13.524233,-3.684946,1.301695,-0.885754,-0.582765,-3.072651
2026-01-24T18:20:54.250983,13.921441,-4.249652,1.919043,-1.508836,-0.329867,-3.001791
2026-01-24T18:20:54.260983,13.868799,-5.015356,1.928615,-2.074497,-0.004886,-2.850296
2026-01-24T18:20:54.270983,13.074382,-5.618347,1.670190,-2.495994,0.365297,-2.676810
2026-01-24T18:20:54.279983,11.882757,-6.168696,1.612762,-2.796540,0.657290,-2.520429
2026-01-24T18:20:54.289983,10.049854,-5.335994,0.540777,-2.999347,0.805120,-2.342056
2026-01-24T18:20:54.298983,8.791230,-4.733003,1.014556,-3.412292,0.857654,-2.073276
2026-01-24T18:20:54.308983,8.059026,-5.771488,3.220739,-4.179539,0.872315,-1.881464
2026-01-24T18:20:54.318983,8.427521,-8.245666,2.732603,-5.114162,0.626747,-1.631009
2026-01-24T18:20:54.327983,8.949156,-12.050254,3.024527,-5.323078,0.371405,-1.440419
2026-01-24T18:20:54.337983,9.351150,-14.017154,-0.473778,-4.566827,0.334754,-1.505171
2026-01-24T18:20:54.347983,8.786444,-15.046068,-3.622733,-3.315775,0.449596,-1.324355
2026-01-24T18:20:54.356983,8.011170,-14.380863,-2.555534,-1.328020,0.649960,-1.563814
2026-01-24T18:20:54.366983,7.001398,-11.174481,-1.043270,0.598647,0.828333,-1.963320
2026-01-24T18:20:54.375983,5.967699,-8.006384,-0.454636,1.589471,0.744033,-2.020741
2026-01-24T18:20:54.385983,5.364708,-6.269195,-1.383051,1.872912,0.469144,-1.937664
2026-01-24T18:20:54.395983,5.441278,-5.426921,-2.172682,1.999972,0.175929,-1.916894
2026-01-24T18:20:54.404983,5.867201,-4.670789,-1.306481,1.995085,-0.097738,-1.890016
2026-01-24T18:20:54.414983,6.652046,-4.465006,-0.229710,1.648114,-0.340862,-1.871690
2026-01-24T18:20:54.423983,7.561319,-5.350351,-0.138783,1.253495,-0.445931,-1.814269
2026-01-24T18:20:54.433983,8.111668,-5.943771,-0.330209,1.154535,-0.416610,-1.726304
2026-01-24T18:20:54.443983,8.260023,-6.044269,-0.114855,1.211956,-0.311541,-1.671326
2026-01-24T18:20:54.452983,7.968099,-5.733202,0.392422,1.265712,-0.201585,-1.605353
2026-01-24T18:20:54.462983,7.652246,-5.221138,0.784845,1.258382,-0.147829,-1.510058
2026-01-24T18:20:54.472983,7.298108,-4.699503,0.885344,1.163087,-0.156381,-1.385442
2026-01-24T18:20:54.481983,7.020541,-4.206582,0.818345,0.970053,-0.204028,-1.240056
2026-01-24T18:20:54.491983,7.097111,-4.072584,0.646062,0.685390,-0.267558,-1.098335
2026-01-24T18:20:54.500983,7.269395,-4.153940,0.669990,0.375071,-0.328645,-0.972497
2026-01-24T18:20:54.510983,7.556533,-4.651647,0.646062,0.102625,-0.373849,-0.855211
2026-01-24T18:20:54.520983,7.834101,-5.312066,0.756131,-0.063529,-0.388510,-0.750142
2026-01-24T18:20:54.529983,8.178667,-5.828915,0.784845,-0.084299,-0.400727,-0.656069
2026-01-24T18:20:54.539983,8.575876,-6.034698,0.909272,-0.013439,-0.421496,-0.572991
2026-01-24T18:20:54.548983,9.025726,-6.039484,1.091127,0.086742,-0.443488,-0.498465
2026-01-24T18:20:54.558983,9.580861,-5.838487,1.335195,0.164933,-0.450818,-0.426383
2026-01-24T18:20:54.568983,10.150353,-5.465206,1.287338,0.189368,-0.436157,-0.342084
2026-01-24T18:20:54.577983,10.499705,-5.187639,1.014556,0.147829,-0.409279,-0.256563
2026-01-24T18:20:54.587983,10.858628,-4.934000,0.732203,0.050090,-0.388510,-0.171042
2026-01-24T18:20:54.597983,11.179267,-4.929214,0.526420,-0.085521,-0.376292,-0.094073
2026-01-24T18:20:54.606983,11.509476,-4.905286,0.382851,-0.230907,-0.371405,-0.021991
2026-01-24T18:20:54.616983,11.796615,-4.977071,0.401994,-0.368962,-0.359188,0.047647
2026-01-24T18:20:54.625983,12.131610,-5.111069,0.449850,-0.483805,-0.333532,0.112399
2026-01-24T18:20:54.635983,12.375678,-5.273781,0.488135,-0.571769,-0.327423,0.160046
2026-01-24T18:20:54.645983,12.792029,-5.513063,0.416351,-0.627969,-0.403170,0.186924
2026-01-24T18:20:54.654983,13.543375,-5.915057,0.349352,-0.651182,-0.580321,0.195476
2026-01-24T18:20:54.664983,14.687145,-6.436692,0.220139,-0.654847,-0.800233,0.195476
2026-01-24T18:20:54.673983,15.859628,-6.896114,-0.009571,-0.627969,-0.902858,0.208915
2026-01-24T18:20:54.683983,16.319050,-7.116254,-0.086141,-0.533896,-0.660956,0.237015
2026-01-24T18:20:54.693983,15.218351,-6.910471,-0.320638,-0.349414,0.032986,0.305432
2026-01-24T18:20:54.702983,12.145967,-6.293123,-0.062213,-0.155159,0.882089,0.441044
2026-01-24T18:20:54.712983,8.212167,-5.637490,0.330209,-0.048869,1.361007,0.651182
2026-01-24T18:20:54.722983,4.445864,-5.379065,0.741775,-0.091629,1.320690,0.857654
2026-01-24T18:20:54.731983,1.895115,-5.771488,1.057627,-0.076969,0.933401,1.038470
2026-01-24T18:20:54.741983,0.622133,-6.192624,1.363908,0.177150,0.350636,1.192408
2026-01-24T18:20:54.750983,0.669990,-6.336194,1.727617,0.540004,-0.322536,1.291368
2026-01-24T18:20:54.760983,2.143969,-6.364908,1.483550,0.890641,-0.944397,1.357342
2026-01-24T18:20:54.770983,4.431507,-6.283552,1.057627,1.241277,-1.339016,1.395215
2026-01-24T18:20:54.779983,6.556333,-6.015556,0.890130,1.617570,-1.478293,1.412320
2026-01-24T18:20:54.789983,8.202595,-5.379065,0.765703,1.916894,-1.402546,1.423315
2026-01-24T18:20:54.798983,9.303294,-4.814359,0.516849,2.089158,-1.189965,1.419650
2026-01-24T18:20:54.808983,9.963713,-4.383651,0.497707,2.200336,-0.970053,1.390328
2026-01-24T18:20:54.818983,10.624132,-4.005585,0.588634,2.256535,-0.836885,1.334129
2026-01-24T18:20:54.827983,11.341979,-3.737588,0.521635,2.262644,-0.812450,1.270599
2026-01-24T18:20:54.837983,12.327822,-3.565305,0.148355,2.256535,-0.864984,1.197295
2026-01-24T18:20:54.847983,13.538590,-3.235096,-0.263210,2.232101,-0.888197,1.088561
2026-01-24T18:20:54.856983,14.691930,-2.933600,-0.827916,2.102597,-0.853989,0.996931
2026-01-24T18:20:54.866983,15.749558,-2.464607,-1.249053,1.916894,-0.690277,0.907745
2026-01-24T18:20:54.875983,16.204193,-2.306680,-1.478764,1.569923,-0.408057,0.841772
2026-01-24T18:20:54.885983,16.156338,-2.268395,-1.813759,1.216843,-0.025656,0.745255
2026-01-24T18:20:54.895983,15.304493,-2.383251,-1.574477,0.917519,0.315206,0.691499
2026-01-24T18:20:54.904983,14.309079,-2.507678,-1.153340,0.632856,0.519235,0.658512
2026-01-24T18:20:54.914983,13.184452,-2.924029,-1.105484,0.383623,0.627969,0.609643
2026-01-24T18:20:54.923983,11.916256,-3.632304,-0.775274,0.313984,0.597426,0.641408
2026-01-24T18:20:54.933983,11.050054,-3.909872,-0.497707,0.425162,0.485026,0.663399
2026-01-24T18:20:54.943983,10.528419,-3.986442,-0.196211,0.541226,0.280997,0.659734
2026-01-24T18:20:54.952983,10.370493,-3.761517,-0.224925,0.641408,0.100181,0.649960
2026-01-24T18:20:54.962983,10.269994,-3.469592,-0.172283,0.659734,0.028099,0.682947
2026-01-24T18:20:54.972983,10.126425,-3.287738,-0.138783,0.577878,0.043982,0.778242
2026-01-24T18:20:54.981983,9.628718,-3.512663,-0.057427,0.502131,0.087964,0.869871
2026-01-24T18:20:54.991983,9.102297,-3.742374,0.110069,0.511904,0.125838,0.955393
2026-01-24T18:20:55.000983,8.489734,-3.818944,0.425922,0.631634,0.131946,1.033583
2026-01-24T18:20:55.010983,7.934599,-3.742374,0.521635,0.784350,0.094073,1.094670
2026-01-24T18:20:55.020983,7.575676,-3.493520,0.583848,0.907745,0.020769,1.139874
2026-01-24T18:20:55.029983,7.360322,-3.254238,0.602991,1.016479,-0.064751,1.175304
2026-01-24T18:20:55.039983,7.398607,-2.904886,0.655633,1.082452,-0.134390,1.198517
2026-01-24T18:20:55.048983,7.523034,-2.603390,0.722632,1.089783,-0.167377,1.198517
2026-01-24T18:20:55.058983,7.609175,-2.297109,0.827916,1.061683,-0.139277,1.194852
2026-01-24T18:20:55.068983,7.613961,-2.005185,0.957129,1.005483,-0.072082,1.186300
2026-01-24T18:20:55.077983,7.465606,-1.890329,1.033699,0.915075,0.003665,1.167974
2026-01-24T18:20:55.087983,7.432106,-1.775474,1.095912,0.814894,0.059864,1.139874
2026-01-24T18:20:55.097983,7.307680,-1.603191,1.110269,0.713490,0.089186,1.102000
2026-01-24T18:20:55.106983,7.345965,-1.588834,1.115055,0.596204,0.097738,1.059240
2026-01-24T18:20:55.116983,7.546962,-1.579262,0.966700,0.480139,0.103847,1.006705
2026-01-24T18:20:55.125983,7.886743,-1.536192,0.928415,0.373849,0.129503,0.943175
2026-01-24T18:20:55.135983,8.044669,-1.560120,0.856630,0.262671,0.182037,0.867428
2026-01-24T18:20:55.145983,8.279166,-1.536192,0.770488,0.152716,0.260228,0.785572
2026-01-24T18:20:55.154983,8.331808,-1.622333,0.736989,0.050090,0.355523,0.693942
2026-01-24T18:20:55.164983,8.331808,-1.785045,0.660419,-0.039095,0.444709,0.596204
2026-01-24T18:20:55.173983,8.293523,-1.971685,0.588634,-0.098960,0.514348,0.487470
2026-01-24T18:20:55.183983,8.231309,-2.086541,0.564706,-0.138055,0.558330,0.360410
2026-01-24T18:20:55.193983,8.365307,-2.172682,0.650847,-0.164933,0.582765,0.221133
2026-01-24T18:20:55.202983,8.499305,-2.167897,0.497707,-0.191811,0.585208,0.074525
2026-01-24T18:20:55.212983,8.858229,-2.163111,0.454636,-0.230907,0.581543,-0.083077
2026-01-24T18:20:55.222983,9.245866,-2.196611,0.378065,-0.289550,0.580321,-0.248011
2026-01-24T18:20:55.231983,9.700502,-2.187039,0.378065,-0.362853,0.581543,-0.415388
2026-01-24T18:20:55.241983,10.217352,-2.191825,0.258424,-0.456927,0.586430,-0.577878
2026-01-24T18:20:55.250983,10.676774,-2.158325,0.210568,-0.575434,0.602312,-0.734259
2026-01-24T18:20:55.260983,11.097911,-2.201396,0.258424,-0.696386,0.631634,-0.899193
2026-01-24T18:20:55.270983,11.480762,-2.172682,0.277567,-0.818559,0.653625,-1.081231
2026-01-24T18:20:55.279983,11.911470,-2.148754,0.181854,-0.962723,0.625525,-1.280373
2026-01-24T18:20:55.289983,12.595818,-2.306680,-0.205782,-1.131322,0.531452,-1.499062
2026-01-24T18:20:55.298983,13.476376,-2.517249,-0.416351,-1.291368,0.392175,-1.725083
2026-01-24T18:20:55.308983,14.414363,-2.828316,-0.531206,-1.428202,0.257785,-1.930333
2026-01-24T18:20:55.318983,15.486347,-2.991028,-0.507278,-1.593136,0.201585,-2.101375
2026-01-24T18:20:55.327983,16.170694,-3.062812,-0.177068,-1.797165,0.324980,-2.240653
2026-01-24T18:20:55.337983,15.950555,-3.196810,0.004785,-2.041511,0.696386,-2.333504
2026-01-24T18:20:55.347983,14.409577,-3.349951,0.416351,-2.261422,1.235169,-2.335948
2026-01-24T18:20:55.356983,12.160324,-3.316452,0.851844,-2.533868,1.684765,-2.258979
2026-01-24T18:20:55.366983,9.451649,-3.991228,1.335195,-2.866179,1.921781,-2.131919
2026-01-24T18:20:55.375983,6.929614,-4.991427,1.741974,-2.961474,1.946216,-1.921781
2026-01-24T18:20:55.385983,4.675575,-5.871986,2.392822,-2.787988,1.815491,-1.721417
2026-01-24T18:20:55.395983,2.991028,-6.728617,3.110669,-2.427577,1.530827,-1.572366
2026-01-24T18:20:55.404983,1.933400,-7.202396,3.483949,-1.897347,1.123991,-1.452637
2026-01-24T18:20:55.414983,1.598405,-7.369893,3.445664,-1.205847,0.618195,-1.365894
2026-01-24T18:20:55.423983,2.263610,-6.819544,2.947957,-0.504574,0.120951,-1.313359
2026-01-24T18:20:55.433983,3.847658,-6.087340,2.244467,0.061086,-0.232128,-1.275486
2026-01-24T18:20:55.443983,5.374279,-5.264209,2.029113,0.521678,-0.377514,-1.265712
2026-01-24T18:20:55.452983,6.795616,-4.211367,1.746760,0.829554,-0.361632,-1.301142
2026-01-24T18:20:55.462983,7.872386,-3.091526,1.301695,0.897971,-0.262671,-1.352455
2026-01-24T18:20:55.472983,8.781658,-2.325823,0.866201,0.752585,-0.169820,-1.407433
2026-01-24T18:20:55.481983,9.643075,-1.832902,0.497707,0.452040,-0.122173,-1.472184
2026-01-24T18:20:55.491983,10.604989,-1.660618,0.287138,0.068416,-0.125838,-1.554040
2026-01-24T18:20:55.500983,11.691331,-1.536192,0.071784,-0.329867,-0.160046,-1.642005
2026-01-24T18:20:55.510983,12.887742,-1.464407,-0.129212,-0.784350,-0.168598,-1.734856
2026-01-24T18:20:55.520983,13.878371,-1.287338,-0.449850,-1.313359,-0.057421,-1.798386
2026-01-24T18:20:55.529983,14.222937,-1.335195,-0.732203,-1.959655,0.211359,-1.805717
2026-01-24T18:20:55.539983,13.935798,-1.890329,-0.923629,-2.686584,0.576656,-1.726304
2026-01-24T18:20:55.548983,12.897313,-2.890529,-0.741775,-3.331658,0.891863,-1.573588
2026-01-24T18:20:55.558983,11.605189,-4.019941,-0.583848,-3.809354,1.089783,-1.404989
2026-01-24T18:20:55.568983,10.107282,-5.331208,-0.210568,-3.987727,1.164308,-1.207069
2026-01-24T18:20:55.577983,8.523234,-6.163911,0.124426,-3.858224,1.131322,-1.009149
2026-01-24T18:20:55.587983,7.159325,-6.704688,0.363709,-3.582113,0.988379,-0.845437
2026-01-24T18:20:55.597983,6.106483,-7.211967,0.583848,-3.166724,0.729372,-0.700051
2026-01-24T18:20:55.606983,5.522634,-7.417750,0.674775,-2.610837,0.393397,-0.541226
2026-01-24T18:20:55.616983,5.441278,-7.231109,0.636490,-2.024406,0.028099,-0.383623
2026-01-24T18:20:55.625983,5.900700,-6.915257,0.315852,-1.459967,-0.295658,-0.234572
2026-01-24T18:20:55.635983,6.599404,-6.360122,0.062213,-0.948062,-0.521678,-0.090408
2026-01-24T18:20:55.645983,7.250252,-5.642275,0.114855,-0.565661,-0.636521,0.054977
2026-01-24T18:20:55.654983,7.580461,-5.005784,0.306281,-0.346971,-0.670729,0.175929
2026-01-24T18:20:55.664983,7.685746,-4.565505,0.488135,-0.267558,-0.651182,0.283441
2026-01-24T18:20:55.673983,7.513462,-4.426721,0.545563,-0.254119,-0.618195,0.383623
2026-01-24T18:20:55.683983,7.207181,-4.201796,0.641276,-0.260228,-0.619417,0.463035
2026-01-24T18:20:55.693983,6.872186,-4.096512,0.856630,-0.283441,-0.669508,0.518013
2026-01-24T18:20:55.702983,6.690331,-4.082155,0.933200,-0.309097,-0.745255,0.558330
2026-01-24T18:20:55.712983,6.771687,-3.919443,0.966700,-0.318871,-0.821002,0.585208
2026-01-24T18:20:55.722983,6.843472,-3.613162,1.349551,-0.307876,-0.877202,0.576656
2026-01-24T18:20:55.731983,6.776473,-3.010170,1.890329,-0.276111,-0.855211,0.503352
2026-01-24T18:20:55.741983,6.685546,-2.392822,2.263610,-0.267558,-0.818559,0.422718
2026-01-24T18:20:55.750983,6.494120,-1.823330,2.569891,-0.277332,-0.778242,0.349414
2026-01-24T18:20:55.760983,6.250052,-1.196411,2.900100,-0.331088,-0.734259,0.261450
2026-01-24T18:20:55.770983,6.441478,-0.981057,4.034298,-0.466700,-0.686612,0.160046
2026-01-24T18:20:55.779983,6.474977,-0.961914,4.216153,-0.469144,-0.447153,-0.002443
2026-01-24T18:20:55.789983,6.360122,-0.693918,4.579862,-0.366519,-0.419053,-0.194255
2026-01-24T18:20:55.798983,6.522834,-0.368494,4.713860,-0.321315,-0.592539,-0.357966
2026-01-24T18:20:55.808983,7.077969,0.047856,4.895715,-0.309097,-0.849102,-0.541226
2026-01-24T18:20:55.818983,8.183453,0.306281,4.991427,-0.428827,-1.150869,-0.697607
2026-01-24T18:20:55.827983,9.695717,-0.258424,4.704289,-0.800233,-1.392772,-0.761137
2026-01-24T18:20:55.837983,11.112268,-2.191825,4.101297,-1.183856,-1.453858,-0.773355
2026-01-24T18:20:55.847983,12.141181,-4.374079,3.306880,-1.222951,-1.402546,-0.799011
2026-01-24T18:20:55.856983,13.045668,-5.876772,2.981456,-0.926071,-1.363450,-0.880867
2026-01-24T18:20:55.866983,14.347364,-6.723831,3.321237,-0.524122,-1.424537,-1.043357
2026-01-24T18:20:55.875983,16.175480,-7.302894,3.948157,-0.113620,-1.649335,-1.220508
2026-01-24T18:20:55.885983,19.022940,-7.599604,4.398007,0.248011,-1.957211,-1.363450
2026-01-24T18:20:55.895983,22.037895,-7.322037,4.469792,0.609643,-2.081828,-1.401324
2026-01-24T18:20:55.904983,23.990438,-6.541976,2.727817,0.833220,-1.825264,-1.262047
2026-01-24T18:20:55.914983,24.095722,-5.379065,-0.076570,0.766024,-0.877202,-1.158200
2026-01-24T18:20:55.923983,21.535402,-4.637290,-1.296909,0.555887,0.784350,-0.935845
2026-01-24T18:20:55.933983,16.486547,-3.890729,-0.540777,0.417831,2.425134,-0.555887
2026-01-24T18:20:55.943983,10.456634,-2.904886,0.818345,0.177150,3.325549,-0.169820
2026-01-24T18:20:55.952983,5.307280,-3.259024,1.143769,-0.261450,3.332880,0.241902
2026-01-24T18:20:55.962983,1.464407,-4.541577,1.698904,-0.045204,2.858848,0.640186
2026-01-24T18:20:55.972983,-1.000199,-4.106083,2.689532,0.777020,2.129475,0.877202
2026-01-24T18:20:55.981983,-1.545763,-3.081955,3.412165,1.242499,1.204625,1.006705
2026-01-24T18:20:55.991983,-0.038285,-3.115455,3.474378,1.429424,0.227241,1.145982
2026-01-24T18:20:56.000983,3.048455,-2.483749,3.761517,1.855808,-0.564439,1.269377
2026-01-24T18:20:56.010983,6.135197,-0.880558,4.508077,2.039067,-0.908967,1.329242
2026-01-24T18:20:56.020983,8.834301,0.315852,4.766502,1.612683,-0.888197,1.408654
2026-01-24T18:20:56.029983,10.930413,0.760917,4.211367,0.867428,-0.570548,1.535714
2026-01-24T18:20:56.039983,12.662817,0.593420,3.804587,0.053756,-0.103847,1.660331
2026-01-24T18:20:56.048983,13.801800,-0.220139,3.579662,-0.691499,0.328645,1.744630
2026-01-24T18:20:56.058983,14.577075,-1.263410,3.201596,-1.215621,0.602312,1.792278
2026-01-24T18:20:56.068983,15.438491,-2.081755,2.383251,-1.444085,0.696386,1.795943
2026-01-24T18:20:56.077983,16.543976,-2.507678,0.976271,-1.552819,0.713490,1.788613
2026-01-24T18:20:56.087983,17.783457,-2.526820,-0.196211,-1.698205,0.811228,1.769065
2026-01-24T18:20:56.097983,18.697515,-2.158325,-0.823130,-1.985311,1.098335,1.742187
2026-01-24T18:20:56.106983,18.912868,-1.296909,-1.909472,-2.399478,1.598023,1.748295
2026-01-24T18:20:56.116983,18.180666,-0.306281,-2.780459,-2.994460,2.194227,1.817934
2026-01-24T18:20:56.125983,16.692329,0.492921,-3.053241,-3.815463,2.746449,1.941329
2026-01-24T18:20:56.135983,14.644074,0.823130,-3.263810,-4.806286,3.145955,2.147801
2026-01-24T18:20:56.145983,12.466605,0.535992,-3.699303,-5.789779,3.335323,2.425134
2026-01-24T18:20:56.154983,10.332207,-0.320638,-4.015156,-6.580238,3.325549,2.703688
2026-01-24T18:20:56.164983,8.432306,-1.823330,-3.771088,-7.028613,3.086090,2.941926
2026-01-24T18:20:56.173983,6.953542,-3.273381,-3.445664,-7.228977,2.715906,3.119077
2026-01-24T18:20:56.183983,6.149554,-4.823930,-3.034099,-7.194769,2.255313,3.232698
2026-01-24T18:20:56.193983,5.737988,-6.474977,-2.407179,-6.847797,1.712865,3.321884
2026-01-24T18:20:56.202983,5.790630,-7.724031,-2.076970,-6.217385,1.175304,3.357314
2026-01-24T18:20:56.212983,6.297909,-8.599804,-1.794616,-5.389051,0.680503,3.338988
2026-01-24T18:20:56.222983,6.872186,-9.399007,-1.426122,-4.439767,0.276111,3.280345
2026-01-24T18:20:56.231983,7.350751,-9.767501,-1.076770,-3.320662,-0.043982,3.226589
2026-01-24T18:20:56.241983,8.073383,-9.379864,-1.306481,-2.122145,-0.221133,3.100751
2026-01-24T18:20:56.250983,8.417949,-8.781658,-1.167697,-1.048244,-0.285884,2.971247
2026-01-24T18:20:56.260983,8.609375,-7.757530,-1.316052,-0.114842,-0.234572,2.781879
2026-01-24T18:20:56.270983,8.575876,-6.532405,-1.062413,0.646295,-0.150272,2.582737
2026-01-24T18:20:56.279983,8.513662,-5.020141,-0.521635,1.183856,-0.087964,2.415360
2026-01-24T18:20:56.289983,8.417949,-3.646661,0.167497,1.376889,-0.047647,2.254092
2026-01-24T18:20:56.298983,8.350950,-2.933600,0.459421,1.252273,-0.014660,2.102597
2026-01-24T18:20:56.308983,8.260023,-2.857030,0.406779,1.072679,0.061086,1.991420
2026-01-24T18:20:56.318983,8.073383,-2.804388,0.579063,0.910189,0.164933,1.880242
2026-01-24T18:20:56.327983,7.925028,-2.866601,0.684347,0.730594,0.288328,1.744630
2026-01-24T18:20:56.337983,7.594818,-2.809173,0.593420,0.558330,0.419053,1.620014
2026-01-24T18:20:56.347983,7.221538,-2.962314,0.583848,0.381179,0.551000,1.516167
2026-01-24T18:20:56.356983,6.857829,-3.115455,0.583848,0.183259,0.657290,1.403768
2026-01-24T18:20:56.366983,6.589833,-3.378665,0.650847,0.013439,0.728151,1.286481
2026-01-24T18:20:56.375983,6.446264,-3.522234,0.751346,-0.123394,0.784350,1.174082
2026-01-24T18:20:56.385983,6.369693,-3.565305,0.823130,-0.246789,0.846659,1.048244
2026-01-24T18:20:56.395983,6.451049,-3.632304,0.904486,-0.386066,0.922406,0.928514
2026-01-24T18:20:56.404983,6.412764,-3.833301,0.842273,-0.541226,1.022588,0.796568
2026-01-24T18:20:56.414983,6.431907,-4.067798,0.789631,-0.679282,1.111774,0.658512
2026-01-24T18:20:56.423983,6.575476,-4.498506,0.784845,-0.831998,1.186300,0.525343
2026-01-24T18:20:56.433983,6.623332,-5.039284,0.727418,-0.992044,1.262047,0.404392
2026-01-24T18:20:56.443983,6.963113,-5.670989,0.526420,-1.119104,1.306029,0.280997
2026-01-24T18:20:56.452983,7.345965,-6.254838,0.334995,-1.188743,1.321912,0.130725
2026-01-24T18:20:56.462983,7.881957,-6.556333,0.052642,-1.214399,1.340238,-0.036651
2026-01-24T18:20:56.472983,8.532805,-6.786044,0.028713,-1.220508,1.397659,-0.199142
2026-01-24T18:20:56.481983,8.973084,-6.934399,0.191425,-1.240056,1.517388,-0.366519
2026-01-24T18:20:56.491983,9.064012,-7.087540,0.287138,-1.292590,1.694539,-0.524122
2026-01-24T18:20:56.500983,8.839086,-7.264609,0.550349,-1.341459,1.881464,-0.669508
2026-01-24T18:20:56.510983,8.226524,-7.417750,0.976271,-1.407433,2.035402,-0.814894
2026-01-24T18:20:56.520983,7.518248,-7.704888,1.368694,-1.501506,2.113593,-0.941954
2026-01-24T18:20:56.529983,6.752545,-8.011170,1.536192,-1.594357,2.114815,-1.059240
2026-01-24T18:20:56.539983,6.187839,-8.226524,1.440479,-1.671326,2.048841,-1.100778
2026-01-24T18:20:56.548983,5.967699,-8.547162,1.004985,-1.737300,1.925446,-1.098335
2026-01-24T18:20:56.558983,6.159125,-9.140582,0.239282,-1.718974,1.778839,-1.083674
2026-01-24T18:20:56.568983,6.388836,-9.662217,-0.411565,-1.506393,1.696983,-1.064127
2026-01-24T18:20:56.577983,6.608976,-9.853643,-0.655633,-1.125213,1.728748,-1.022588
2026-01-24T18:20:56.587983,6.589833,-9.844072,-0.583848,-0.729372,1.810604,-0.955393
2026-01-24T18:20:56.597983,6.240481,-9.762716,-0.521635,-0.356745,1.880242,-0.896749
2026-01-24T18:20:56.606983,5.781059,-9.542576,-0.272781,0.036651,1.925446,-0.863763
2026-01-24T18:20:56.616983,5.158925,-9.001798,0.100498,0.423940,1.986533,-0.851545
2026-01-24T18:20:56.625983,4.517649,-8.178667,0.540777,0.697607,2.010967,-0.821002
2026-01-24T18:20:56.635983,4.283152,-7.365107,1.124626,0.746477,1.909564,-0.750142
2026-01-24T18:20:56.645983,4.484149,-6.881757,1.162911,0.592539,1.712865,-0.675616
2026-01-24T18:20:56.654983,5.254638,-6.800401,0.957129,0.405614,1.546710,-0.619417
2026-01-24T18:20:56.664983,6.259623,-6.833901,0.641276,0.248011,1.473406,-0.602312
2026-01-24T18:20:56.673983,7.164110,-6.742974,0.545563,0.081855,1.495397,-0.604756
2026-01-24T18:20:56.683983,7.862815,-6.714260,0.564706,-0.111177,1.591914,-0.609643
2026-01-24T18:20:56.693983,8.283951,-6.498906,0.468993,-0.348193,1.737300,-0.605978
2026-01-24T18:20:56.702983,8.465806,-6.168696,0.282353,-0.668286,1.903455,-0.574213
2026-01-24T18:20:56.712983,8.312665,-6.063412,-0.043070,-1.073900,2.061058,-0.516791
2026-01-24T18:20:56.722983,7.963313,-6.183053,-0.148355,-1.494176,2.200336,-0.459370
2026-01-24T18:20:56.731983,7.460820,-6.642475,-0.253639,-1.868025,2.305404,-0.394618
2026-01-24T18:20:56.741983,6.939185,-7.149753,-0.569491,-2.160019,2.353052,-0.304210
2026-01-24T18:20:56.750983,6.470192,-7.743173,-0.832702,-2.313957,2.349387,-0.211359
2026-01-24T18:20:56.760983,6.135197,-8.073383,-0.837487,-2.316400,2.304183,-0.130725
2026-01-24T18:20:56.770983,5.972485,-8.111668,-0.622133,-2.228435,2.247983,-0.058643
2026-01-24T18:20:56.779983,5.785845,-8.025527,-0.430708,-2.119701,2.193005,0.004886
2026-01-24T18:20:56.789983,5.656632,-7.757530,-0.373280,-2.012189,2.150245,0.053756
2026-01-24T18:20:56.798983,5.436492,-7.503891,-0.105284,-1.909564,2.123367,0.090408
2026-01-24T18:20:56.808983,5.216353,-7.245466,0.124426,-1.816712,2.102597,0.113620
2026-01-24T18:20:56.818983,4.780859,-6.991827,0.248853,-1.739743,2.073276,0.136833
2026-01-24T18:20:56.827983,4.316651,-6.714260,0.205782,-1.666440,2.025628,0.156381
2026-01-24T18:20:56.837983,3.852444,-6.455835,0.244067,-1.583362,1.949881,0.161268
2026-01-24T18:20:56.847983,3.479164,-6.273980,0.478564,-1.510058,1.850921,0.147829
2026-01-24T18:20:56.856983,3.220739,-6.053841,0.756131,-1.446528,1.733635,0.123394
2026-01-24T18:20:56.866983,2.924029,-5.819344,1.024128,-1.372003,1.611462,0.095294
2026-01-24T18:20:56.875983,2.847458,-5.642275,1.253839,-1.306029,1.492954,0.058643
2026-01-24T18:20:56.885983,2.766102,-5.402993,1.502692,-1.276708,1.382998,0.018325
2026-01-24T18:20:56.895983,2.813959,-5.355136,1.746760,-1.273042,1.282816,-0.028099
2026-01-24T18:20:56.904983,2.785245,-5.436492,1.981257,-1.284038,1.199739,-0.073303
2026-01-24T18:20:56.914983,2.861815,-5.771488,2.143969,-1.309694,1.117883,-0.103847
2026-01-24T18:20:56.923983,2.904886,-6.159125,2.210968,-1.299920,1.034805,-0.136833
2026-01-24T18:20:56.933983,3.034099,-6.393621,2.172682,-1.243721,0.955393,-0.167377
2026-01-24T18:20:56.943983,3.134597,-6.647261,2.316252,-1.181413,0.894306,-0.194255
2026-01-24T18:20:56.952983,3.201596,-6.819544,2.349751,-1.130100,0.839328,-0.232128
2026-01-24T18:20:56.962983,3.354737,-7.001398,2.378465,-1.076344,0.784350,-0.252898
2026-01-24T18:20:56.972983,3.570091,-7.360322,2.325823,-1.022588,0.723264,-0.272445
2026-01-24T18:20:56.981983,3.862015,-7.733602,2.134397,-0.987158,0.647517,-0.302989
2026-01-24T18:20:56.991983,4.235296,-8.092526,2.029113,-0.927293,0.565661,-0.344527
2026-01-24T18:20:57.000983,4.675575,-8.384450,2.009970,-0.835663,0.503352,-0.395840
2026-01-24T18:20:57.010983,5.192425,-8.523234,2.005185,-0.739146,0.471587,-0.449596
2026-01-24T18:20:57.020983,5.608776,-8.671589,1.890329,-0.671951,0.461814,-0.508239
2026-01-24T18:20:57.029983,6.039484,-8.810372,1.837687,-0.619417,0.453261,-0.575434
2026-01-24T18:20:57.039983,6.451049,-8.843872,1.698904,-0.559552,0.445931,-0.654847
2026-01-24T18:20:57.048983,6.900900,-8.824729,1.603191,-0.497244,0.430049,-0.753807
2026-01-24T18:20:57.058983,7.441678,-8.599804,1.569691,-0.437379,0.412944,-0.869871
2026-01-24T18:20:57.068983,7.944171,-8.355736,1.545763,-0.411723,0.404392,-1.004262
2026-01-24T18:20:57.077983,8.341379,-8.025527,1.636690,-0.426383,0.405614,-1.145982
2026-01-24T18:20:57.087983,8.729016,-7.814958,1.708475,-0.464257,0.415388,-1.291368
2026-01-24T18:20:57.097983,9.025726,-7.518248,1.789831,-0.529009,0.444709,-1.425759
2026-01-24T18:20:57.106983,9.121439,-7.188039,1.794616,-0.625525,0.483805,-1.528384
2026-01-24T18:20:57.116983,9.135796,-6.843472,1.828116,-0.757472,0.548556,-1.606575
2026-01-24T18:20:57.125983,8.829515,-6.417550,1.842473,-0.913854,0.659734,-1.654222
2026-01-24T18:20:57.135983,8.307880,-6.173482,2.033899,-1.115439,0.744033,-1.659109
2026-01-24T18:20:57.145983,7.618747,-6.221338,2.311466,-1.307251,0.768468,-1.627344
2026-01-24T18:20:57.154983,6.862615,-6.527620,2.651247,-1.444085,0.724486,-1.596801
2026-01-24T18:20:57.164983,6.192624,-6.915257,3.048455,-1.510058,0.637743,-1.582140
2026-01-24T18:20:57.173983,5.771488,-7.140182,3.402593,-1.517388,0.502131,-1.527162
2026-01-24T18:20:57.183983,5.570491,-7.317251,3.311666,-1.480737,0.322536,-1.448972
2026-01-24T18:20:57.193983,5.891129,-7.331608,2.584248,-1.430646,0.162490,-1.391550
2026-01-24T18:20:57.202983,6.474977,-7.336394,1.545763,-1.319468,0.058643,-1.326799
2026-01-24T18:20:57.212983,7.030112,-7.360322,0.693918,-1.059240,-0.010995,-1.287703
2026-01-24T18:20:57.222983,7.580461,-7.164110,0.110069,-0.713490,-0.034208,-1.290147
2026-01-24T18:20:57.231983,8.006384,-6.900900,-0.153140,-0.370184,0.018325,-1.357342
2026-01-24T18:20:57.241983,8.173882,-6.915257,-0.138783,-0.050090,0.098960,-1.474628
2026-01-24T18:20:57.250983,8.226524,-7.101897,-0.114855,0.315206,0.164933,-1.609018
2026-01-24T18:20:57.260983,8.417949,-7.020541,-0.215354,0.731816,0.193033,-1.778839
2026-01-24T18:20:57.270983,8.872586,-6.695117,-0.311066,1.110552,0.134390,-1.958433
2026-01-24T18:20:57.279983,9.671788,-6.197410,-0.445065,1.400102,0.003665,-2.114815
2026-01-24T18:20:57.289983,10.743773,-5.613561,-0.411565,1.618792,-0.124616,-2.274861
2026-01-24T18:20:57.298983,11.691331,-5.058426,-0.253639,1.728748,-0.205250,-2.417804
2026-01-24T18:20:57.308983,12.739387,-4.450650,-0.210568,1.698205,-0.180816,-2.517985
2026-01-24T18:20:57.318983,13.457234,-3.957728,-0.272781,1.488067,-0.046425,-2.576629
2026-01-24T18:20:57.327983,13.777872,-3.517449,-0.449850,1.176526,0.149051,-2.565633
2026-01-24T18:20:57.337983,13.773086,-3.110669,-0.473778,0.792902,0.381179,-2.489886
2026-01-24T18:20:57.347983,13.241880,-2.938386,-0.430708,0.315206,0.647517,-2.357939
2026-01-24T18:20:57.356983,12.385249,-2.957528,-0.306281,-0.180816,0.880867,-2.160019
2026-01-24T18:20:57.366983,11.241480,-2.933600,-0.296710,-0.631634,1.034805,-1.923003
2026-01-24T18:20:57.375983,10.083354,-2.885744,-0.430708,-1.053131,1.088561,-1.673770
2026-01-24T18:20:57.385983,9.025726,-3.053241,-0.454636,-1.442863,1.055574,-1.415985
2026-01-24T18:20:57.395983,8.106882,-3.158525,-0.531206,-1.762956,0.945619,-1.153313
2026-01-24T18:20:57.404983,7.484749,-3.330809,-0.569491,-2.051285,0.780685,-0.911410
2026-01-24T18:20:57.414983,7.168896,-3.795016,-0.631705,-2.282192,0.579100,-0.678060
2026-01-24T18:20:57.423983,7.082754,-4.335794,-0.602991,-2.417804,0.381179,-0.471587
2026-01-24T18:20:57.433983,7.235895,-4.895715,-0.665204,-2.448347,0.216246,-0.301767
2026-01-24T18:20:57.443983,7.432106,-5.422136,-0.736989,-2.359161,0.109955,-0.166155
2026-01-24T18:20:57.452983,7.652246,-5.781059,-0.698704,-2.173458,0.048869,-0.063529
2026-01-24T18:20:57.462983,7.671389,-6.130411,-0.665204,-1.916894,0.009773,0.001221
2026-01-24T18:20:57.472983,7.642675,-6.331408,-0.689132,-1.584584,-0.030543,0.024434
2026-01-24T18:20:57.481983,7.637889,-6.407978,-0.669990,-1.203404,-0.076969,0.018325
2026-01-24T18:20:57.491983,7.709674,-6.403193,-0.646062,-0.796568,-0.138055,-0.018325
2026-01-24T18:20:57.500983,7.896314,-6.206981,-0.555134,-0.395840,-0.204028,-0.078190
2026-01-24T18:20:57.510983,8.188238,-5.938985,-0.387637,-0.046425,-0.256563,-0.146607
2026-01-24T18:20:57.520983,8.461020,-5.618347,-0.267996,0.248011,-0.285884,-0.218689
2026-01-24T18:20:57.529983,8.815158,-5.154139,-0.177068,0.474031,-0.285884,-0.287106
2026-01-24T18:20:57.539983,9.140582,-4.694717,-0.138783,0.625525,-0.261450,-0.349414
2026-01-24T18:20:57.548983,9.322436,-4.369294,-0.071784,0.692721,-0.222354,-0.400727
2026-01-24T18:20:57.558983,9.437292,-4.043870,0.000000,0.698829,-0.174707,-0.448374
2026-01-24T18:20:57.568983,9.509077,-3.704089,0.124426,0.660956,-0.127059,-0.487470
2026-01-24T18:20:57.577983,9.623932,-3.426521,0.244067,0.583987,-0.081855,-0.516791
2026-01-24T18:20:57.587983,9.657432,-3.096312,0.296710,0.475253,-0.046425,-0.537561
2026-01-24T18:20:57.597983,9.858429,-2.857030,0.425922,0.315206,-0.024434,-0.552222
2026-01-24T18:20:57.606983,10.064211,-2.732603,0.574277,0.123394,-0.023212,-0.558330
2026-01-24T18:20:57.616983,10.360921,-2.550748,0.636490,-0.096516,-0.023212,-0.547335
2026-01-24T18:20:57.625983,10.652846,-2.445464,0.708275,-0.332310,0.004886,-0.518013
2026-01-24T18:20:57.635983,10.944770,-2.483749,0.693918,-0.568104,0.069638,-0.491135
2026-01-24T18:20:57.645983,11.078768,-2.459821,0.746560,-0.783129,0.151494,-0.460592
2026-01-24T18:20:57.654983,11.140982,-2.416750,0.789631,-0.982271,0.233350,-0.425162
2026-01-24T18:20:57.664983,11.164910,-2.378465,0.875773,-1.163087,0.294436,-0.395840
2026-01-24T18:20:57.673983,11.093125,-2.335394,0.703489,-1.308473,0.342084,-0.378736
2026-01-24T18:20:57.683983,11.054840,-2.344966,0.535992,-1.437976,0.372627,-0.375071
2026-01-24T18:20:57.693983,11.021340,-2.388036,0.397208,-1.546710,0.384845,-0.382401
2026-01-24T18:20:57.702983,11.117053,-2.569891,0.267996,-1.622457,0.373849,-0.403170
2026-01-24T18:20:57.712983,11.207981,-2.675175,0.200997,-1.660331,0.353080,-0.437379
2026-01-24T18:20:57.722983,11.428120,-2.732603,0.114855,-1.662774,0.309097,-0.496022
2026-01-24T18:20:57.731983,11.806186,-2.785245,-0.081355,-1.649335,0.222354,-0.570548
2026-01-24T18:20:57.741983,12.337393,-2.852244,-0.358923,-1.643227,0.080634,-0.640186
2026-01-24T18:20:57.750983,13.270594,-3.110669,-0.492921,-1.643227,-0.094073,-0.715933
2026-01-24T18:20:57.760983,14.270793,-3.440878,-0.559920,-1.651779,-0.230907,-0.785572
2026-01-24T18:20:57.770983,15.098710,-3.756731,-0.492921,-1.688431,-0.245567,-0.833220
2026-01-24T18:20:57.779983,15.366706,-4.158725,-0.244067,-1.747074,-0.023212,-0.855211
2026-01-24T18:20:57.789983,14.371292,-4.661218,0.330209,-1.726304,0.460592,-0.823446
2026-01-24T18:20:57.798983,12.222537,-4.790430,0.990628,-1.620014,1.055574,-0.722042
2026-01-24T18:20:57.808983,9.040083,-4.905286,1.957328,-1.514945,1.525941,-0.542448
2026-01-24T18:20:57.818983,5.446064,-5.015356,2.790031,-1.348790,1.712865,-0.277332
2026-01-24T18:20:57.827983,2.445464,-5.221138,3.196810,-1.089783,1.609018,0.009773
2026-01-24T18:20:57.837983,0.282353,-5.350351,3.354737,-0.703716,1.196073,0.295658
2026-01-24T18:20:57.847983,-0.512064,-5.139782,3.483949,-0.218689,0.518013,0.509461
2026-01-24T18:20:57.856983,0.708275,-4.417150,3.259024,0.226020,-0.324980,0.640186
2026-01-24T18:20:57.866983,3.747160,-3.804587,2.938386,0.472809,-1.098335,0.703716
2026-01-24T18:20:57.875983,7.135396,-3.613162,2.670390,0.626747,-1.601688,0.740368
2026-01-24T18:20:57.885983,10.423135,-3.297309,2.201396,0.821002,-1.798386,0.811228
2026-01-24T18:20:57.895983,13.232308,-2.852244,1.445264,0.929736,-1.695761,0.906523
2026-01-24T18:20:57.904983,15.385849,-2.024327,0.330209,0.836885,-1.275486,0.939510
2026-01-24T18:20:57.914983,16.491333,-1.249053,-0.253639,0.522900,-0.557108,0.899193
2026-01-24T18:20:57.923983,16.314264,-0.492921,0.153140,0.048869,0.364075,0.853989
2026-01-24T18:20:57.933983,14.495719,-0.033499,0.665204,-0.554665,1.214399,0.834441
2026-01-24T18:20:57.943983,12.007183,0.191425,0.445065,-1.255938,1.814269,0.813672
2026-01-24T18:20:57.952983,9.480363,-0.138783,0.191425,-1.958433,2.091602,0.796568
2026-01-24T18:20:57.962983,7.566105,-0.823130,0.354137,-2.539977,2.062280,0.799011
2026-01-24T18:20:57.972983,6.020341,-2.076970,0.837487,-2.910161,1.787391,0.838106
2026-01-24T18:20:57.981983,5.292923,-3.081955,1.119840,-3.000569,1.381776,0.904080
2026-01-24T18:20:57.991983,5.249852,-3.785445,1.067198,-2.943148,0.976162,0.921184
2026-01-24T18:20:58.000983,5.690132,-4.417150,1.043270,-2.740340,0.631634,0.894306
2026-01-24T18:20:58.010983,6.460621,-4.747360,1.339980,-2.412917,0.403170,0.851545
2026-01-24T18:20:58.020983,7.259823,-4.737788,1.799402,-2.053728,0.326201,0.797789
2026-01-24T18:20:58.029983,7.690531,-4.704289,2.014756,-1.709200,0.384845,0.747698
2026-01-24T18:20:58.039983,7.527819,-4.546362,2.067398,-1.375668,0.508239,0.695164
2026-01-24T18:20:58.048983,6.943971,-4.297509,2.143969,-1.081231,0.621860,0.635299
2026-01-24T18:20:58.058983,6.245266,-3.991228,2.191825,-0.846659,0.664621,0.569326
2026-01-24T18:20:58.068983,5.723631,-3.646661,2.297109,-0.676838,0.632856,0.489913
2026-01-24T18:20:58.077983,5.302494,-3.297309,2.321037,-0.575434,0.535117,0.414166
2026-01-24T18:20:58.087983,5.278566,-3.062812,2.349751,-0.547335,0.404392,0.348193
2026-01-24T18:20:58.097983,5.522634,-3.005385,2.407179,-0.581543,0.272445,0.289550
2026-01-24T18:20:58.106983,5.881557,-3.053241,2.522035,-0.620638,0.168598,0.235793
2026-01-24T18:20:58.116983,6.293123,-3.225524,2.545963,-0.646295,0.108733,0.195476
2026-01-24T18:20:58.125983,6.647261,-3.201596,2.665604,-0.665842,0.094073,0.163711
2026-01-24T18:20:58.135983,6.771687,-3.263810,2.876172,-0.703716,0.100181,0.133168
2026-01-24T18:20:58.145983,6.924828,-3.436093,2.933600,-0.770911,0.120951,0.103847
2026-01-24T18:20:58.154983,6.814758,-3.756731,2.914457,-0.796568,0.145385,0.079412
2026-01-24T18:20:58.164983,6.666403,-3.948157,2.665604,-0.766024,0.155159,0.052534
2026-01-24T18:20:58.173983,6.498906,-4.000799,2.517249,-0.731816,0.135612,0.025656
2026-01-24T18:20:58.183983,6.465406,-4.192225,2.268395,-0.700051,0.075747,-0.007330
2026-01-24T18:20:58.193983,6.628118,-4.340580,2.096112,-0.632856,-0.009773,-0.058643
2026-01-24T18:20:58.202983,6.857829,-4.412364,2.086541,-0.542448,-0.091629,-0.116064
2026-01-24T18:20:58.212983,7.231109,-4.503292,2.172682,-0.449596,-0.149051,-0.177150
2026-01-24T18:20:58.222983,7.623532,-4.522434,2.153540,-0.338419,-0.189368,-0.240680
2026-01-24T18:20:58.231983,7.896314,-4.532006,2.100898,-0.240680,-0.218689,-0.295658
2026-01-24T18:20:58.241983,8.111668,-4.560719,2.143969,-0.168598,-0.235793,-0.355523
2026-01-24T18:20:58.250983,8.307880,-4.527220,1.971685,-0.109955,-0.263893,-0.426383
2026-01-24T18:20:58.260983,8.551947,-4.479363,1.852044,-0.085521,-0.324980,-0.493579
2026-01-24T18:20:58.270983,8.963513,-4.622933,1.612762,-0.078190,-0.436157,-0.570548
2026-01-24T18:20:58.279983,9.619146,-4.680361,1.292124,-0.064751,-0.585208,-0.656069
2026-01-24T18:20:58.289983,10.384850,-4.761716,0.722632,-0.070860,-0.718377,-0.733038
2026-01-24T18:20:58.298983,11.121839,-4.857429,-0.191425,-0.076969,-0.831998,-0.821002
2026-01-24T18:20:58.308983,12.050254,-5.158925,-0.832702,-0.048869,-0.968832,-0.968832
2026-01-24T18:20:58.318983,13.323236,-5.814558,-0.713061,-0.023212,-1.203404,-1.165530
2026-01-24T18:20:58.327983,15.165709,-6.924828,-0.172283,0.073303,-1.491732,-1.367116
2026-01-24T18:20:58.337983,17.553745,-8.111668,0.401994,0.317649,-1.701870,-1.523497
2026-01-24T18:20:58.347983,19.573288,-9.030512,0.827916,0.654847,-1.600466,-1.631009
2026-01-24T18:20:58.356983,20.181065,-9.456434,0.626919,1.110552,-0.961501,-1.677435
2026-01-24T18:20:58.366983,18.616159,-9.107082,0.516849,1.692096,0.163711,-1.604131
2026-01-24T18:20:58.375983,14.888142,-8.441878,0.674775,2.164905,1.282816,-1.404989
2026-01-24T18:20:58.385983,10.475777,-8.264809,0.593420,2.311513,1.901012,-1.152091
2026-01-24T18:20:58.395983,6.580262,-9.724431,0.622133,2.416582,1.874134,-0.806341
2026-01-24T18:20:58.404983,4.058227,-11.437692,0.468993,2.944369,1.367116,-0.397062
2026-01-24T18:20:58.414983,3.273381,-12.629317,0.660419,3.933971,0.627969,-0.015882
2026-01-24T18:20:58.423983,4.034298,-13.165309,0.468993,5.165475,-0.153938,0.287106
2026-01-24T18:20:58.433983,6.264409,-13.165309,-0.382851,6.455622,-0.885754,0.459370
2026-01-24T18:20:58.443983,8.886943,-12.634103,-1.454836,7.847173,-1.426980,0.455705
2026-01-24T18:20:58.452983,11.705688,-9.992427,-2.761317,9.198406,-1.638340,0.384845
2026-01-24T18:20:58.462983,14.213366,-5.977270,-3.215953,10.010858,-1.435533,0.316428
2026-01-24T18:20:58.472983,15.888342,-1.923829,-2.627319,10.071943,-0.888197,0.267558
2026-01-24T18:20:58.481983,16.912470,2.522035,-0.741775,9.379222,-0.182037,0.419053
2026-01-24T18:20:58.491983,17.036896,6.096911,1.536192,7.854503,0.486248,0.668286
2026-01-24T18:20:58.500983,16.362120,7.982456,2.852244,5.754349,1.180191,1.001818
2026-01-24T18:20:58.510983,14.802000,8.178667,3.790230,3.473379,1.740965,1.400102
2026-01-24T18:20:58.520983,12.677174,6.608976,4.354937,1.268155,2.045176,1.781282
2026-01-24T18:20:58.529983,10.939984,3.742374,3.871586,-0.627969,2.092823,2.072054
2026-01-24T18:20:58.539983,9.681360,0.382851,3.029313,-1.925446,1.959655,2.263866
2026-01-24T18:20:58.548983,9.064012,-2.335394,2.636890,-2.427577,1.744630,2.370156
2026-01-24T18:20:58.558983,8.685946,-3.785445,2.541177,-2.392147,1.524719,2.398256
2026-01-24T18:20:58.568983,8.575876,-4.153940,2.416750,-2.210109,1.342681,2.356717
2026-01-24T18:20:58.577983,8.566304,-3.952942,2.225325,-2.039067,1.198517,2.296852
2026-01-24T18:20:58.587983,8.690731,-3.431307,2.019542,-1.892460,1.093448,2.256535
2026-01-24T18:20:58.597983,8.776873,-2.866601,1.866401,-1.861916,1.043357,2.225992
2026-01-24T18:20:58.606983,8.810372,-2.813959,1.631905,-1.952324,1.043357,2.197892
2026-01-24T18:20:58.616983,8.791230,-3.177668,1.239482,-2.006081,1.075122,2.168571
2026-01-24T18:20:58.625983,8.623732,-3.809373,0.813559,-1.965763,1.115439,2.131919
2026-01-24T18:20:58.635983,8.465806,-4.321437,0.564706,-1.803273,1.159421,2.056171
2026-01-24T18:20:58.645983,8.073383,-4.828716,0.502492,-1.576031,1.180191,1.998750
2026-01-24T18:20:58.654983,7.776673,-5.029713,0.354137,-1.222951,1.177747,1.937664
2026-01-24T18:20:58.664983,7.513462,-4.661218,0.244067,-0.807563,1.158200,1.837482
2026-01-24T18:20:58.673983,7.216752,-4.029513,0.430708,-0.489913,1.122770,1.722639
2026-01-24T18:20:58.683983,6.963113,-3.311666,0.502492,-0.310319,1.077566,1.633453
2026-01-24T18:20:58.693983,6.805187,-2.646461,0.483350,-0.240680,1.033583,1.576031
2026-01-24T18:20:58.702983,6.666403,-2.096112,0.650847,-0.266337,0.999375,1.528384
2026-01-24T18:20:58.712983,6.498906,-1.703689,0.665204,-0.388510,0.985936,1.489289
2026-01-24T18:20:58.722983,6.379265,-1.445264,0.827916,-0.566882,0.976162,1.455080
2026-01-24T18:20:58.731983,6.092126,-1.383051,0.923629,-0.753807,0.965166,1.420872
2026-01-24T18:20:58.741983,5.895914,-1.454836,1.052841,-0.939510,0.949284,1.372003
2026-01-24T18:20:58.750983,5.670989,-1.646261,1.057627,-1.100778,0.906523,1.309694
2026-01-24T18:20:58.760983,5.565705,-1.942971,1.028913,-1.220508,0.845437,1.241277
2026-01-24T18:20:58.770983,5.541777,-2.244467,0.981057,-1.297477,0.762359,1.155756
2026-01-24T18:20:58.779983,5.637490,-2.550748,0.803988,-1.334129,0.664621,1.037248
2026-01-24T18:20:58.789983,5.757131,-2.785245,0.669990,-1.306029,0.558330,0.900415
2026-01-24T18:20:58.798983,5.934200,-2.723032,0.512064,-1.240056,0.453261,0.753807
2026-01-24T18:20:58.808983,6.264409,-2.632104,0.550349,-1.202182,0.364075,0.588873
2026-01-24T18:20:58.818983,6.513263,-2.440679,0.516849,-1.214399,0.283441,0.411723
2026-01-24T18:20:58.827983,6.900900,-2.364108,0.512064,-1.264490,0.226020,0.235793
2026-01-24T18:20:58.837983,7.144968,-2.282752,0.507278,-1.351233,0.189368,0.058643
2026-01-24T18:20:58.847983,7.465606,-2.273181,0.579063,-1.468519,0.178372,-0.131946
2026-01-24T18:20:58.856983,7.666603,-2.392822,0.641276,-1.585805,0.184481,-0.332310
2026-01-24T18:20:58.866983,7.829315,-2.617747,0.559920,-1.692096,0.204028,-0.538783
2026-01-24T18:20:58.875983,7.992027,-2.813959,0.502492,-1.766621,0.200363,-0.791681
2026-01-24T18:20:58.885983,8.293523,-3.024527,0.363709,-1.800830,0.149051,-1.108109
2026-01-24T18:20:58.895983,8.968299,-3.125026,0.239282,-1.814269,0.020769,-1.486845
2026-01-24T18:20:58.904983,10.025926,-3.316452,0.282353,-1.816712,-0.168598,-1.904677
2026-01-24T18:20:58.914983,11.499905,-3.431307,0.488135,-1.806938,-0.353080,-2.335948
2026-01-24T18:20:58.923983,12.988241,-3.603590,0.325423,-1.775174,-0.463035,-2.714684
2026-01-24T18:20:58.933983,14.213366,-3.641875,-0.172283,-1.734856,-0.400727,-3.032334
2026-01-24T18:20:58.943983,14.802000,-3.306880,-0.708275,-1.764178,-0.032986,-3.313332
2026-01-24T18:20:58.952983,14.165509,-3.101098,-0.847059,-1.962098,0.670729,-3.490483
2026-01-24T18:20:58.962983,12.035897,-3.158525,-0.224925,-2.204001,1.458745,-3.518583
2026-01-24T18:20:58.972983,8.925228,-3.273381,0.205782,-2.525316,1.946216,-3.420844
2026-01-24T18:20:58.981983,5.522634,-4.364508,0.406779,-2.816088,2.078163,-3.284010
2026-01-24T18:20:58.991983,2.670390,-5.091926,0.698704,-2.744006,1.838703,-3.137403
2026-01-24T18:20:59.000983,0.646062,-5.838487,1.435693,-2.577850,1.307251,-3.093420
2026-01-24T18:20:59.010983,0.038285,-7.130611,2.445464,-2.258979,0.505796,-3.160616
2026-01-24T18:20:59.020983,0.794417,-8.331808,3.617947,-1.457524,-0.482583,-3.227811
2026-01-24T18:20:59.029983,3.469592,-8.609375,4.431507,-0.328645,-1.491732,-3.297449
2026-01-24T18:20:59.039983,7.082754,-8.489734,4.555934,0.781907,-2.232101,-3.442835
2026-01-24T18:20:59.048983,10.509276,-8.121239,3.747160,1.852143,-2.689028,-3.499035
2026-01-24T18:20:59.058983,13.897513,-7.211967,2.598605,2.718349,-2.918713,-3.481931
2026-01-24T18:20:59.068983,16.912470,-6.072983,1.359123,3.142290,-2.883283,-3.532022
2026-01-24T18:20:59.077983,19.463219,-4.838287,0.287138,3.194824,-2.466673,-3.590665
2026-01-24T18:20:59.087983,20.980268,-3.608376,0.200997,2.978578,-1.616349,-3.505144
2026-01-24T18:20:59.097983,20.458633,-2.287538,0.306281,2.470338,-0.563217,-3.253467
2026-01-24T18:20:59.106983,18.209379,-1.162911,0.172283,1.670105,0.398284,-2.955365
2026-01-24T18:20:59.116983,15.199209,-0.708275,0.258424,0.687834,1.000597,-2.645045
2026-01-24T18:20:59.125983,12.480962,-0.842273,0.311066,-0.337197,1.142317,-2.287078
2026-01-24T18:20:59.135983,10.427920,-1.402194,0.703489,-1.153313,0.968832,-1.885129
2026-01-24T18:20:59.145983,9.269794,-1.962114,1.430907,-1.750739,0.678060,-1.463632
2026-01-24T18:20:59.154983,8.647660,-2.636890,1.708475,-2.263866,0.370184,-1.020144
2026-01-24T18:20:59.164983,8.523234,-3.766302,2.167897,-2.603507,0.124616,-0.638964
2026-01-24T18:20:59.173983,8.714659,-4.843072,1.990828,-2.667037,-0.024434,-0.329867
2026-01-24T18:20:59.183983,8.939585,-5.647061,1.612762,-2.459342,-0.062308,-0.076969
2026-01-24T18:20:59.193983,8.843872,-5.905486,1.564905,-2.128254,0.001221,0.109955
2026-01-24T18:20:59.202983,8.484948,-5.915057,1.832902,-1.769065,0.087964,0.241902
2026-01-24T18:20:59.212983,7.838886,-5.599204,2.033899,-1.450193,0.145385,0.348193
2026-01-24T18:20:59.222983,7.188039,-5.067998,1.952543,-1.233947,0.140498,0.433714
2026-01-24T18:20:59.231983,6.738188,-4.637290,1.885544,-1.126435,0.084299,0.500909
2026-01-24T18:20:59.241983,6.422335,-4.201796,1.780260,-1.055574,-0.010995,0.543669
2026-01-24T18:20:59.250983,6.455835,-3.957728,1.981257,-1.083674,-0.129503,0.542448
2026-01-24T18:20:59.260983,6.690331,-4.034298,2.148754,-1.142317,-0.226020,0.557108
2026-01-24T18:20:59.270983,6.905686,-4.508077,2.110469,-1.165530,-0.256563,0.568104
2026-01-24T18:20:59.279983,7.049255,-4.804787,1.861615,-0.993266,-0.217467,0.551000
2026-01-24T18:20:59.289983,6.867400,-4.656432,1.703689,-0.734259,-0.149051,0.504574
2026-01-24T18:20:59.298983,6.527620,-4.144368,1.569691,-0.522900,-0.097738,0.437379
2026-01-24T18:20:59.308983,6.034698,-3.646661,1.363908,-0.415388,-0.092851,0.371405
2026-01-24T18:20:59.318983,5.656632,-3.412165,1.263410,-0.403170,-0.136833,0.306654
2026-01-24T18:20:59.327983,5.345565,-3.507877,1.651047,-0.419053,-0.217467,0.223576
2026-01-24T18:20:59.337983,5.154139,-3.890729,2.316252,-0.415388,-0.305432,0.127059
2026-01-24T18:20:59.347983,5.101497,-4.498506,2.589034,-0.331088,-0.390953,0.031764
2026-01-24T18:20:59.356983,5.091926,-5.115854,2.603390,-0.122173,-0.488692,-0.072082
2026-01-24T18:20:59.366983,5.273781,-5.527420,2.507678,0.174707,-0.623082,-0.195476
2026-01-24T18:20:59.375983,5.752345,-5.800201,2.354537,0.510683,-0.788015,-0.337197
2026-01-24T18:20:59.385983,6.513263,-5.886343,2.225325,0.849102,-0.960279,-0.481361
2026-01-24T18:20:59.395983,7.489534,-5.881557,2.191825,1.177747,-1.112996,-0.615752
2026-01-24T18:20:59.404983,8.461020,-5.781059,2.182254,1.472184,-1.225395,-0.730594
2026-01-24T18:20:59.414983,9.451649,-5.694917,2.048256,1.728748,-1.271821,-0.825889
2026-01-24T18:20:59.423983,10.365707,-5.503491,1.899901,1.929112,-1.268155,-0.911410
2026-01-24T18:20:59.433983,11.227123,-5.455635,1.651047,2.070832,-1.240056,-0.983492
2026-01-24T18:20:59.443983,12.083754,-5.331208,1.564905,2.185675,-1.236390,-1.043357
2026-01-24T18:20:59.452983,13.227523,-5.302494,1.502692,2.258979,-1.295034,-1.087339
2026-01-24T18:20:59.462983,14.668002,-5.273781,1.402194,2.266309,-1.389107,-1.099557
2026-01-24T18:20:59.472983,16.438690,-5.144568,1.234696,2.221105,-1.456302,-1.071457
2026-01-24T18:20:59.481983,18.118452,-5.029713,0.636490,2.098932,-1.422093,-1.016479
2026-01-24T18:20:59.491983,19.602001,-5.034498,0.110069,1.901012,-1.205847,-0.932180
2026-01-24T18:20:59.500983,20.295921,-5.044070,0.205782,1.657887,-0.725707,-0.769690
2026-01-24T18:20:59.510983,19.463219,-5.053641,0.392422,1.387885,0.069638,-0.497244
2026-01-24T18:20:59.520983,16.721045,-4.728217,0.004785,1.132543,1.037248,-0.109955
2026-01-24T18:20:59.529983,12.667602,-4.273581,-0.449850,0.878424,1.836260,0.326201
2026-01-24T18:20:59.539983,8.604590,-4.024727,-0.492921,0.641408,2.179566,0.758694
2026-01-24T18:20:59.548983,5.273781,-4.000799,-0.296710,0.453261,1.980424,1.150869
2026-01-24T18:20:59.558983,3.019742,-4.307080,-0.315852,0.513126,1.373224,1.516167
2026-01-24T18:20:59.568983,2.364108,-4.096512,-0.607776,0.657290,0.582765,1.821599
2026-01-24T18:20:59.577983,3.354737,-4.000799,-1.373480,0.718377,-0.274889,2.001194
2026-01-24T18:20:59.587983,5.690132,-4.292723,-2.048256,0.768468,-0.983492,2.072054
2026-01-24T18:20:59.597983,8.231309,-4.546362,-1.856830,0.921184,-1.348790,2.106262
2026-01-24T18:20:59.606983,10.375278,-4.766502,-1.191625,1.071457,-1.350011,2.078163
2026-01-24T18:20:59.616983,11.844471,-5.134997,-0.985842,1.178969,-1.105665,1.968207
2026-01-24T18:20:59.625983,12.643674,-5.737988,-1.134197,1.385442,-0.742811,1.822821
2026-01-24T18:20:59.635983,12.777672,-6.058626,-1.004985,1.732413,-0.408057,1.674992
2026-01-24T18:20:59.645983,12.677174,-5.934200,-0.636490,2.087936,-0.193033,1.510058
2026-01-24T18:20:59.654983,12.380464,-5.603990,-0.488135,2.371378,-0.100181,1.346346
2026-01-24T18:20:59.664983,12.308679,-5.077569,-0.736989,2.574185,-0.097738,1.203404
2026-01-24T18:20:59.673983,12.413963,-4.527220,-1.091127,2.706132,-0.158824,1.075122
2026-01-24T18:20:59.683983,12.811172,-3.967299,-1.196411,2.739119,-0.256563,0.974940
2026-01-24T18:20:59.693983,13.557732,-3.617947,-1.220339,2.658484,-0.344527,0.921184
2026-01-24T18:20:59.702983,14.447862,-3.220739,-1.311266,2.525316,-0.356745,0.910189
2026-01-24T18:20:59.712983,15.232708,-2.880958,-1.282552,2.366491,-0.229685,0.938288
2026-01-24T18:20:59.722983,15.625131,-2.407179,-0.933200,2.142914,0.064751,0.999375
2026-01-24T18:20:59.731983,15.385849,-1.670190,-0.545563,1.815491,0.478918,1.115439
2026-01-24T18:20:59.741983,14.356935,-1.076770,-0.272781,1.386663,0.883310,1.264490
2026-01-24T18:20:59.750983,13.002598,-0.564706,-0.138783,0.844215,1.182634,1.448972
2026-01-24T18:20:59.760983,11.576475,-0.282353,-0.038285,0.222354,1.335351,1.645670
2026-01-24T18:20:59.770983,10.308279,-0.358923,0.210568,-0.427605,1.350011,1.847256
2026-01-24T18:20:59.779983,9.308079,-0.693918,0.401994,-1.045801,1.276708,2.047619
2026-01-24T18:20:59.789983,8.671589,-1.421336,0.358923,-1.609018,1.147204,2.254092
2026-01-24T18:20:59.798983,8.346165,-2.426322,0.186640,-2.003637,1.011592,2.439795
2026-01-24T18:20:59.808983,8.015955,-3.244667,0.100498,-2.162462,0.900415,2.570520
2026-01-24T18:20:59.818983,7.738388,-3.814159,0.047856,-2.166127,0.823446,2.646267
2026-01-24T18:20:59.827983,7.235895,-4.421936,0.210568,-2.039067,0.756251,2.679254
2026-01-24T18:20:59.837983,6.714260,-4.871786,0.229710,-1.798386,0.686612,2.692693
2026-01-24T18:20:59.847983,6.250052,-5.201996,0.028713,-1.521054,0.623082,2.673145
2026-01-24T18:20:59.856983,5.814558,-5.446064,-0.033499,-1.204625,0.571769,2.624276
2026-01-24T18:20:59.866983,5.302494,-5.465206,-0.110069,-0.852767,0.518013,2.543642
2026-01-24T18:20:59.875983,4.828716,-5.417350,-0.114855,-0.540004,0.459370,2.423912
2026-01-24T18:20:59.885983,4.579862,-5.359922,-0.191425,-0.279776,0.397062,2.278526
2026-01-24T18:20:59.895983,4.345365,-5.556134,-0.167497,-0.026878,0.323758,2.122145
2026-01-24T18:20:59.904983,4.383651,-5.637490,0.095712,0.252898,0.263893,1.935220
2026-01-24T18:20:59.914983,4.479363,-5.565705,0.430708,0.532674,0.208915,1.726304
2026-01-24T18:20:59.923983,4.680361,-5.254638,0.937986,0.780685,0.182037,1.525941
2026-01-24T18:20:59.933983,4.905286,-4.766502,1.373480,0.933401,0.189368,1.357342
2026-01-24T18:20:59.943983,5.125426,-4.417150,1.694118,0.956614,0.227241,1.197295
2026-01-24T18:20:59.952983,5.173282,-4.144368,1.957328,0.839328,0.279776,1.038470
2026-01-24T18:20:59.962983,5.240281,-4.240081,2.053041,0.642630,0.329867,0.895528
2026-01-24T18:20:59.972983,5.359922,-4.575076,2.043470,0.448374,0.353080,0.768468
2026-01-24T18:20:59.981983,5.589633,-5.063212,1.631905,0.285884,0.355523,0.656069
2026-01-24T18:20:59.991983,5.867201,-5.666203,1.201196,0.223576,0.342084,0.560774
2026-01-24T18:21:00.000983,6.149554,-5.843272,1.272981,0.272445,0.342084,0.472809
2026-01-24T18:21:00.010983,6.393621,-5.608776,1.368694,0.318871,0.370184,0.398284
2026-01-24T18:21:00.020983,6.532405,-5.355136,1.225125,0.279776,0.430049,0.339641
2026-01-24T18:21:00.029983,6.446264,-5.264209,1.134197,0.180816,0.478918,0.300545
2026-01-24T18:21:00.039983,6.345765,-5.283352,0.952343,0.053756,0.478918,0.271224
2026-01-24T18:21:00.048983,6.388836,-5.331208,0.650847,-0.087964,0.417831,0.240680
2026-01-24T18:21:00.058983,6.762116,-5.374279,0.459421,-0.213802,0.311541,0.202807
2026-01-24T18:21:00.068983,7.350751,-5.407779,0.172283,-0.338419,0.183259,0.138055
2026-01-24T18:21:00.077983,8.035098,-5.484349,-0.401994,-0.478918,0.057421,0.075747
2026-01-24T18:21:00.087983,8.781658,-5.493920,-0.727418,-0.582765,-0.030543,0.014660
2026-01-24T18:21:00.097983,9.183653,-5.374279,-0.382851,-0.675616,-0.037873,-0.035430
2026-01-24T18:21:00.106983,9.188438,-5.206781,0.148355,-0.816115,0.048869,-0.050090
2026-01-24T18:21:00.116983,8.456235,-5.096712,0.167497,-0.990823,0.237015,-0.028099
2026-01-24T18:21:00.125983,6.987041,-5.000999,0.009571,-1.150869,0.480139,0.006108
2026-01-24T18:21:00.135983,5.240281,-5.130211,0.301495,-1.295034,0.674395,0.014660
2026-01-24T18:21:00.145983,3.517449,-5.603990,0.861416,-1.359785,0.715933,0.003665
2026-01-24T18:21:00.154983,2.062613,-6.278766,1.268195,-1.210734,0.563217,-0.013439
2026-01-24T18:21:00.164983,1.215553,-6.728617,1.636690,-0.866206,0.241902,-0.052534
2026-01-24T18:21:00.173983,1.306481,-6.924828,2.009970,-0.428827,-0.161268,-0.096516
2026-01-24T18:21:00.183983,2.234896,-6.618547,1.895115,0.043982,-0.500909,-0.135612
2026-01-24T18:21:00.193983,3.637090,-5.900700,1.765903,0.430049,-0.658512,-0.186924
2026-01-24T18:21:00.202983,4.713860,-5.106283,2.172682,0.630412,-0.649960,-0.235793
2026-01-24T18:21:00.212983,5.503491,-4.441078,2.531606,0.638964,-0.538783,-0.259006
2026-01-24T18:21:00.222983,5.919843,-4.072584,2.478964,0.500909,-0.390953,-0.256563
2026-01-24T18:21:00.231983,6.283552,-4.115654,2.139183,0.293215,-0.276111,-0.252898
2026-01-24T18:21:00.241983,6.728617,-4.450650,1.488335,0.087964,-0.240680,-0.238237
2026-01-24T18:21:00.250983,7.322037,-4.843072,0.890130,-0.037873,-0.261450,-0.218689
2026-01-24T18:21:00.260983,8.102097,-5.326423,0.445065,-0.112399,-0.295658,-0.180816
2026-01-24T18:21:00.270983,8.992227,-5.694917,0.253639,-0.144164,-0.313984,-0.135612
2026-01-24T18:21:00.279983,9.671788,-5.747559,0.162711,-0.118507,-0.300545,-0.098960
2026-01-24T18:21:00.289983,10.169496,-5.422136,-0.153140,-0.105068,-0.235793,-0.052534
2026-01-24T18:21:00.298983,10.447063,-4.967499,-0.387637,-0.232128,-0.138055,0.014660
2026-01-24T18:21:00.308983,10.274780,-4.642075,-0.751346,-0.529009,-0.046425,0.094073
2026-01-24T18:21:00.318983,10.030712,-4.627718,-1.191625,-0.877202,0.004886,0.158824
2026-01-24T18:21:00.327983,9.686145,-4.953142,-1.368694,-1.210734,-0.028099,0.180816
2026-01-24T18:21:00.337983,9.561719,-5.599204,-1.459621,-1.463632,-0.140498,0.156381
2026-01-24T18:21:00.347983,9.930213,-6.321837,-0.928415,-1.558927,-0.262671,0.109955
2026-01-24T18:21:00.356983,10.207781,-6.714260,-0.478564,-1.524719,-0.316428,0.079412
2026-01-24T18:21:00.366983,10.451849,-6.824330,-0.301495,-1.453858,-0.260228,0.063529
2026-01-24T18:21:00.375983,10.293922,-6.809973,-0.114855,-1.429424,-0.100181,0.034208
2026-01-24T18:21:00.385983,9.542576,-7.073183,0.009571,-1.479515,0.069638,0.007330
2026-01-24T18:21:00.395983,8.595018,-7.436892,-0.124426,-1.500284,0.134390,-0.012217
2026-01-24T18:21:00.404983,8.111668,-7.781459,0.339780,-1.445306,0.084299,-0.015882
2026-01-24T18:21:00.414983,8.178667,-7.905885,0.961914,-1.353677,0.008552,0.012217
2026-01-24T18:21:00.423983,8.690731,-8.121239,1.086341,-1.303586,-0.008552,0.079412
2026-01-24T18:21:00.433983,9.226723,-8.470592,1.100698,-1.295034,0.083077,0.175929
2026-01-24T18:21:00.443983,9.226723,-8.791230,1.110269,-1.224173,0.249232,0.255341
2026-01-24T18:21:00.452983,8.671589,-8.992227,1.172483,-1.087339,0.395840,0.302989
2026-01-24T18:21:00.462983,7.838886,-9.107082,1.186840,-0.950506,0.450818,0.313984
2026-01-24T18:21:00.472983,7.130611,-9.040083,1.067198,-0.745255,0.397062,0.282219
2026-01-24T18:21:00.481983,6.695117,-8.451449,1.129412,-0.510683,0.283441,0.244346
2026-01-24T18:21:00.491983,6.862615,-7.690531,1.057627,-0.420275,0.175929,0.228463
2026-01-24T18:21:00.500983,7.369893,-7.566105,0.713061,-0.520457,0.134390,0.246789
2026-01-24T18:21:00.510983,7.862815,-8.087740,0.526420,-0.642630,0.161268,0.256563
2026-01-24T18:21:00.520983,8.011170,-8.504091,0.770488,-0.656069,0.238237,0.241902
2026-01-24T18:21:00.529983,7.972884,-7.508677,0.579063,-0.691499,0.316428,0.860098
2026-01-24T18:21:00.539983,7.302894,-7.977670,1.143769,-0.856432,0.357966,0.896749
2026-01-24T18:21:00.548983,7.015755,-9.494720,0.382851,-0.819780,0.300545,0.520457
2026-01-24T18:21:00.558983,6.800401,-9.341579,-0.181854,-0.516791,0.245567,0.355523
2026-01-24T18:21:00.568983,6.742974,-9.097511,0.167497,-0.339641,0.184481,0.267558
2026-01-24T18:21:00.577983,6.905686,-8.891728,0.272781,-0.237015,0.102625,0.144164
2026-01-24T18:21:00.587983,7.087540,-8.853443,0.138783,-0.136833,0.076969,0.122173
2026-01-24T18:21:00.597983,6.814758,-8.858229,-0.382851,-0.089186,0.079412,0.142942
2026-01-24T18:21:00.606983,6.723831,-9.011369,-0.311066,0.015882,0.061086,0.223576
2026-01-24T18:21:00.616983,6.403193,-8.676374,0.090927,0.064751,0.015882,0.481361
2026-01-24T18:21:00.625983,6.317051,-9.073583,0.105284,0.097738,-0.062308,0.387288
2026-01-24T18:21:00.635983,6.317051,-9.116654,0.057427,0.288328,-0.135612,0.221133
2026-01-24T18:21:00.645983,6.518048,-8.303094,0.320638,0.422718,-0.173485,0.144164
2026-01-24T18:21:00.654983,6.608976,-7.523034,0.358923,0.409279,-0.146607,0.133168
2026-01-24T18:21:00.664983,6.608976,-6.647261,0.813559,0.304210,-0.058643,0.086742
2026-01-24T18:21:00.673983,6.455835,-6.853043,0.976271,0.052534,0.028099,0.128281
2026-01-24T18:21:00.683983,6.130411,-7.853243,0.000000,-0.103847,0.078190,0.141720
2026-01-24T18:21:00.693983,5.881557,-8.145168,-0.167497,-0.061086,0.105068,0.112399
2026-01-24T18:21:00.702983,5.938985,-8.078169,0.052642,-0.035430,0.090408,0.084299
2026-01-24T18:21:00.712983,6.206981,-7.700103,-0.167497,-0.053756,0.064751,0.069638
2026-01-24T18:21:00.722983,6.546762,-7.494320,-0.047856,-0.164933,0.059864,0.076969
2026-01-24T18:21:00.731983,6.695117,-7.814958,-0.210568,-0.342084,0.094073,0.107512
2026-01-24T18:21:00.741983,6.585047,-8.140382,-0.052642,-0.405614,0.140498,0.117286
2026-01-24T18:21:00.750983,6.585047,-7.881957,0.186640,-0.399505,0.196698,0.222354
2026-01-24T18:21:00.760983,6.087340,-7.417750,-0.057427,-0.522900,0.232128,0.394618
2026-01-24T18:21:00.770983,5.776273,-8.504091,-0.239282,-0.626747,0.240680,0.318871
2026-01-24T18:21:00.779983,5.556134,-8.729016,-0.473778,-0.489913,0.227241,0.262671
2026-01-24T18:21:00.789983,5.350351,-8.465806,-0.483350,-0.342084,0.175929,0.166155
2026-01-24T18:21:00.798983,5.426921,-8.274380,-0.387637,-0.232128,0.131946,0.068416
2026-01-24T18:21:00.808983,5.551348,-7.814958,0.009571,-0.142942,0.091629,0.040317
2026-01-24T18:21:00.818983,5.838487,-7.666603,-0.148355,-0.160046,0.080634,0.065973
2026-01-24T18:21:00.827983,5.790630,-8.068597,-0.277567,-0.190589,0.089186,0.086742
2026-01-24T18:21:00.837983,5.694917,-8.159525,-0.172283,-0.122173,0.089186,0.090408
2026-01-24T18:21:00.847983,5.675775,-7.231109,-0.311066,-0.092851,0.067195,0.348193
2026-01-24T18:21:00.856983,5.699703,-7.829315,-0.311066,-0.248011,0.040317,0.328645
2026-01-24T18:21:00.866983,5.800201,-8.939585,-0.780060,-0.183259,-0.034208,0.301767
2026-01-24T18:21:00.875983,5.848058,-8.441878,-1.220339,0.008552,-0.114842,0.235793
2026-01-24T18:21:00.885983,6.206981,-8.609375,-0.291924,0.072082,-0.180816,0.085521
2026-01-24T18:21:00.895983,6.575476,-8.523234,-0.358923,0.133168,-0.262671,0.067195
2026-01-24T18:21:00.904983,6.876972,-8.480163,-0.167497,0.163711,-0.294436,0.075747
2026-01-24T18:21:00.914983,6.757331,-8.618947,0.727418,0.193033,-0.282219,0.109955
2026-01-24T18:21:00.923983,6.589833,-8.800801,0.574277,0.226020,-0.257785,0.155159
2026-01-24T18:21:00.933983,6.565905,-9.001798,0.306281,0.256563,-0.259006,0.188146
2026-01-24T18:21:00.943983,6.628118,-9.092725,0.382851,0.312762,-0.270002,0.216246
2026-01-24T18:21:00.952983,6.656832,-9.178867,0.526420,0.401949,-0.268780,0.241902
2026-01-24T18:21:00.962983,6.800401,-8.963513,0.076570,0.500909,-0.316428,0.245567
2026-01-24T18:21:00.972983,6.795616,-8.681160,-0.153140,0.547335,-0.337197,0.296880
2026-01-24T18:21:00.981983,6.666403,-8.992227,-0.526420,0.505796,-0.378736,0.368962
2026-01-24T18:21:00.991983,6.867400,-9.556933,-0.746560,0.488692,-0.461814,0.428827
2026-01-24T18:21:01.000983,7.111468,-9.968498,-0.961914,0.560774,-0.533896,0.477696
2026-01-24T18:21:01.010983,7.384250,-10.126425,-0.875773,0.658512,-0.596204,0.526565
2026-01-24T18:21:01.020983,7.566105,-10.073783,-0.397208,0.735481,-0.634077,0.593760
2026-01-24T18:21:01.029983,7.590033,-10.514062,-0.057427,0.812450,-0.662177,0.678060
2026-01-24T18:21:01.039983,7.436892,-10.997412,0.004785,0.982271,-0.669508,0.757472
2026-01-24T18:21:01.048983,6.953542,-11.155338,-0.133998,1.225395,-0.675616,0.819780
2026-01-24T18:21:01.058983,6.546762,-11.045269,-0.430708,1.380555,-0.728151,0.880867
2026-01-24T18:21:01.068983,6.484549,-10.805986,-0.502492,1.439198,-0.827111,0.927293
2026-01-24T18:21:01.077983,6.642475,-10.652846,-0.157926,1.451415,-0.910189,0.998153
2026-01-24T18:21:01.087983,6.958328,-10.676774,0.028713,1.419650,-0.950506,1.072679
2026-01-24T18:21:01.097983,6.939185,-10.686345,0.009571,1.376889,-0.955393,1.148426
2026-01-24T18:21:01.106983,6.709474,-10.772487,-0.047856,1.339016,-0.956614,1.233947
2026-01-24T18:21:01.116983,6.580262,-10.906485,-0.071784,1.291368,-0.988379,1.313359
2026-01-24T18:21:01.125983,6.522834,-11.136196,-0.157926,1.266934,-1.042135,1.378111
2026-01-24T18:21:01.135983,6.513263,-11.188838,-0.100498,1.309694,-1.095892,1.425759
2026-01-24T18:21:01.145983,6.498906,-11.006983,0.119641,1.389107,-1.119104,1.463632
2026-01-24T18:21:01.154983,6.135197,-10.786844,0.382851,1.439198,-1.106887,1.500284
2026-01-24T18:21:01.164983,5.680560,-10.652846,0.823130,1.458745,-1.076344,1.534493
2026-01-24T18:21:01.173983,5.359922,-10.183852,1.182054,1.434311,-1.043357,1.549153
2026-01-24T18:21:01.183983,5.048855,-10.179067,0.832702,1.308473,-0.989601,1.596801
2026-01-24T18:21:01.193983,4.876572,-10.604989,0.488135,1.238834,-0.999375,1.704313
2026-01-24T18:21:01.202983,4.651647,-10.729416,0.569491,1.202182,-1.031140,1.749517
2026-01-24T18:21:01.212983,4.508077,-10.810772,0.775274,1.205847,-1.058018,1.771508
2026-01-24T18:21:01.222983,4.402793,-10.700702,1.004985,1.299920,-1.072679,1.773952
2026-01-24T18:21:01.231983,4.230510,-10.217352,1.612762,1.447750,-1.076344,1.760513
2026-01-24T18:21:01.241983,4.024727,-9.662217,2.335394,1.578475,-1.060461,1.733635
2026-01-24T18:21:01.250983,3.814159,-9.020941,2.579462,1.665218,-0.998153,1.718974
2026-01-24T18:21:01.260983,3.330809,-8.408378,2.325823,1.670105,-0.874758,1.718974
2026-01-24T18:21:01.270983,2.651247,-8.059026,2.306680,1.569923,-0.753807,1.710422
2026-01-24T18:21:01.279983,2.014756,-7.968099,2.368894,1.347568,-0.707381,1.699426
2026-01-24T18:21:01.289983,1.555334,-7.992027,2.440679,1.122770,-0.753807,1.671326
2026-01-24T18:21:01.298983,1.488335,-7.925028,2.445464,0.951727,-0.842993,1.639561
2026-01-24T18:21:01.308983,1.560120,-7.838886,2.373680,0.811228,-0.904080,1.600466
2026-01-24T18:21:01.318983,1.727617,-7.939385,2.622533,0.697607,-0.928514,1.569923
2026-01-24T18:21:01.327983,1.842473,-8.025527,2.756531,0.601091,-0.904080,1.554040
2026-01-24T18:21:01.337983,1.737189,-8.360522,2.651247,0.470366,-0.852767,1.574810
2026-01-24T18:21:01.347983,1.459621,-9.020941,2.531606,0.349414,-0.801455,1.595579
2026-01-24T18:21:01.356983,0.933200,-9.566504,2.349751,0.334754,-0.780685,1.605353
2026-01-24T18:21:01.366983,0.607776,-9.872786,2.321037,0.398284,-0.805120,1.617570
2026-01-24T18:21:01.375983,0.181854,-10.164710,2.354537,0.465479,-0.891863,1.633453
2026-01-24T18:21:01.385983,0.196211,-10.480562,2.325823,0.520457,-1.037248,1.642005
2026-01-24T18:21:01.395983,0.507278,-10.820343,2.124826,0.609643,-1.188743,1.639561
2026-01-24T18:21:01.404983,0.961914,-11.097911,2.273181,0.745255,-1.308473,1.638340
2026-01-24T18:21:01.414983,1.368694,-11.093125,2.531606,0.932180,-1.367116,1.620014
2026-01-24T18:21:01.423983,1.718046,-10.772487,2.904886,1.121548,-1.358564,1.610240
2026-01-24T18:21:01.433983,1.765903,-10.614561,3.345165,1.145982,-1.299920,1.653000
2026-01-24T18:21:01.443983,1.756331,-10.882557,3.517449,0.993266,-1.244943,1.715309
2026-01-24T18:21:01.452983,1.718046,-11.021340,3.354737,0.886976,-1.210734,1.753182
2026-01-24T18:21:01.462983,1.631905,-10.777272,3.172882,0.905302,-1.163087,1.765400
2026-01-24T18:21:01.472983,1.287338,-10.408778,3.072384,0.932180,-1.082452,1.765400
2026-01-24T18:21:01.481983,0.760917,-10.207781,3.077169,0.873537,-1.023809,1.782504
2026-01-24T18:21:01.491983,0.401994,-10.418349,3.053241,0.806341,-1.039692,1.804495
2026-01-24T18:21:01.500983,0.330209,-10.719845,3.120240,0.800233,-1.104444,1.810604
2026-01-24T18:21:01.510983,0.488135,-11.030912,3.278166,0.824667,-1.182634,1.831373
2026-01-24T18:21:01.520983,0.717846,-11.011769,3.474378,0.916297,-1.237612,1.852143
2026-01-24T18:21:01.529983,1.081555,-10.571490,3.680161,1.037248,-1.233947,1.877799
2026-01-24T18:21:01.539983,1.215553,-9.796215,3.833301,1.155756,-1.145982,1.902233
2026-01-24T18:21:01.548983,0.870987,-8.982656,3.737588,1.236390,-1.004262,1.929112
2026-01-24T18:21:01.558983,0.258424,-7.987241,3.795016,1.258382,-0.872315,1.949881
2026-01-24T18:21:01.568983,-0.411565,-6.996613,3.421736,1.220508,-0.805120,1.968207
2026-01-24T18:21:01.577983,-1.024128,-6.379265,3.507877,0.971275,-0.813672,2.018298
2026-01-24T18:21:01.587983,-1.277767,-6.465406,3.818944,0.613308,-0.872315,2.034180
2026-01-24T18:21:01.597983,-1.316052,-7.015755,3.900300,0.386066,-0.939510,2.019520
2026-01-24T18:21:01.606983,-1.201196,-7.432106,3.885943,0.364075,-0.977384,1.984089
2026-01-24T18:21:01.616983,-1.177268,-7.532605,4.125226,0.474031,-0.961501,1.954768
2026-01-24T18:21:01.625983,-1.244267,-7.403393,4.316651,0.603534,-0.901636,1.940107
2026-01-24T18:21:01.635983,-1.473978,-7.034898,4.383651,0.748920,-0.822224,1.910786
2026-01-24T18:21:01.645983,-1.933400,-6.441478,4.508077,0.838106,-0.740368,1.888794
2026-01-24T18:21:01.654983,-2.431107,-6.264409,4.862215,0.783129,-0.684168,1.868025
2026-01-24T18:21:01.664983,-2.823530,-6.192624,5.474778,0.724486,-0.685390,1.827708
2026-01-24T18:21:01.673983,-2.943171,-6.034698,5.967699,0.744033,-0.707381,1.794721
2026-01-24T18:21:01.683983,-2.914457,-5.642275,6.063412,0.766024,-0.707381,1.777617
2026-01-24T18:21:01.693983,-2.813959,-5.111069,5.709274,0.764803,-0.686612,1.771508
2026-01-24T18:21:01.702983,-2.900100,-4.704289,5.407779,0.747698,-0.627969,1.750739
2026-01-24T18:21:01.712983,-3.101098,-4.264009,5.264209,0.664621,-0.533896,1.718974
2026-01-24T18:21:01.722983,-3.436093,-4.259224,5.302494,0.509461,-0.474031,1.684765
2026-01-24T18:21:01.731983,-3.766302,-4.656432,5.388636,0.355523,-0.431270,1.639561
2026-01-24T18:21:01.741983,-3.976871,-5.072783,5.484349,0.284663,-0.452040,1.605353
2026-01-24T18:21:01.750983,-3.866801,-5.388636,5.508277,0.333532,-0.510683,1.540601
2026-01-24T18:21:01.760983,-3.641875,-5.355136,5.670989,0.448374,-0.542448,1.475850
2026-01-24T18:21:01.770983,-3.426521,-5.072783,5.972485,0.559552,-0.529009,1.429424
2026-01-24T18:21:01.779983,-3.259024,-4.857429,6.254838,0.520457,-0.488692,1.428202
2026-01-24T18:21:01.789983,-3.153740,-4.890929,6.111268,0.425162,-0.426383,1.408654
2026-01-24T18:21:01.798983,-3.306880,-4.924428,5.948556,0.365297,-0.353080,1.380555
2026-01-24T18:21:01.808983,-3.498306,-5.048855,5.996413,0.282219,-0.293215,1.364672
2026-01-24T18:21:01.818983,-3.742374,-5.072783,5.838487,0.222354,-0.282219,1.335351
2026-01-24T18:21:01.827983,-3.684946,-5.058426,5.546562,0.206472,-0.282219,1.312138
2026-01-24T18:21:01.837983,-3.732803,-5.010570,5.335994,0.202807,-0.261450,1.260825
2026-01-24T18:21:01.847983,-3.842873,-5.192425,5.187639,0.202807,-0.235793,1.218065
2026-01-24T18:21:01.856983,-3.972085,-5.637490,5.426921,0.222354,-0.218689,1.170417
2026-01-24T18:21:01.866983,-4.015156,-5.876772,5.489135,0.342084,-0.201585,1.104444
2026-01-24T18:21:01.875983,-4.091726,-5.848058,5.977270,0.520457,-0.174707,1.037248
2026-01-24T18:21:01.885983,-4.144368,-5.431707,6.302694,0.647517,-0.127059,0.979827
2026-01-24T18:21:01.895983,-4.249652,-5.034498,6.350551,0.667064,-0.065973,0.927293
2026-01-24T18:21:01.904983,-4.541577,-4.704289,6.608976,0.574213,-0.013439,0.872315
2026-01-24T18:21:01.914983,-4.689932,-4.599005,6.618547,0.414166,0.015882,0.814894
2026-01-24T18:21:01.923983,-4.957928,-4.833501,6.326622,0.284663,0.034208,0.753807
2026-01-24T18:21:01.933983,-5.000999,-4.977071,6.154339,0.252898,0.040317,0.691499
2026-01-24T18:21:01.943983,-5.168496,-5.010570,6.101697,0.257785,0.039095,0.625525
2026-01-24T18:21:01.952983,-5.225924,-5.096712,6.072983,0.257785,0.019547,0.560774
2026-01-24T18:21:01.962983,-5.283352,-5.187639,6.173482,0.268780,-0.004886,0.493579
2026-01-24T18:21:01.972983,-5.178068,-5.302494,6.288337,0.293215,-0.029321,0.432492
2026-01-24T18:21:01.981983,-5.082355,-5.359922,6.149554,0.312762,-0.034208,0.370184
2026-01-24T18:21:01.991983,-5.115854,-5.608776,6.455835,0.310319,-0.025656,0.327423
2026-01-24T18:21:02.000983,-5.005784,-5.747559,6.470192,0.343306,-0.010995,0.272445
2026-01-24T18:21:02.010983,-5.000999,-5.752345,6.259623,0.403170,0.013439,0.227241
2026-01-24T18:21:02.020983,-5.125426,-5.556134,6.379265,0.425162,0.041538,0.194255
2026-01-24T18:21:02.029983,-5.268995,-5.469992,6.565905,0.403170,0.056199,0.166155
2026-01-24T18:21:02.039983,-5.402993,-5.359922,6.474977,0.344527,0.052534,0.153938
2026-01-24T18:21:02.048983,-5.422136,-5.091926,6.168696,0.300545,0.041538,0.124616
2026-01-24T18:21:02.058983,-5.359922,-4.919643,6.159125,0.249232,0.041538,0.089186
2026-01-24T18:21:02.068983,-5.536991,-5.125426,6.264409,0.151494,0.034208,0.078190
2026-01-24T18:21:02.077983,-5.613561,-5.446064,6.288337,0.065973,0.012217,0.059864
2026-01-24T18:21:02.087983,-5.580062,-5.685346,6.015556,0.096516,-0.004886,0.028099
2026-01-24T18:21:02.097983,-5.570491,-5.685346,6.025127,0.174707,-0.015882,0.000000
2026-01-24T18:21:02.106983,-5.465206,-5.412564,6.106483,0.243124,-0.021991,-0.025656
2026-01-24T18:21:02.116983,-5.436492,-5.010570,5.905486,0.287106,-0.018325,-0.046425
2026-01-24T18:21:02.125983,-5.465206,-4.589433,5.603990,0.276111,0.000000,-0.065973
2026-01-24T18:21:02.135983,-5.647061,-4.345365,5.603990,0.184481,0.008552,-0.087964
2026-01-24T18:21:02.145983,-5.843272,-4.259224,5.690132,0.067195,-0.017104,-0.119729
2026-01-24T18:21:02.154983,-5.905486,-4.278366,5.819344,-0.048869,-0.057421,-0.149051
2026-01-24T18:21:02.164983,-5.828915,-4.546362,5.943771,-0.163711,-0.078190,-0.180816
2026-01-24T18:21:02.173983,-5.972485,-5.120640,5.838487,-0.257785,-0.080634,-0.200363
2026-01-24T18:21:02.183983,-6.183053,-5.814558,5.867201,-0.276111,-0.081855,-0.227241
2026-01-24T18:21:02.193983,-6.288337,-6.374479,6.053841,-0.183259,-0.102625,-0.245567
2026-01-24T18:21:02.202983,-6.163911,-6.695117,6.068198,-0.026878,-0.151494,-0.255341
2026-01-24T18:21:02.212983,-5.848058,-6.738188,6.159125,0.138055,-0.200363,-0.249232
2026-01-24T18:21:02.222983,-5.431707,-6.494120,6.202196,0.268780,-0.207694,-0.230907
2026-01-24T18:21:02.231983,-5.101497,-6.235695,6.407978,0.309097,-0.166155,-0.196698
2026-01-24T18:21:02.241983,-5.120640,-6.053841,6.455835,0.285884,-0.094073,-0.157603
2026-01-24T18:21:02.250983,-5.331208,-5.953342,6.360122,0.245567,-0.015882,-0.133168
2026-01-24T18:21:02.260983,-5.637490,-6.058626,6.393621,0.213802,0.032986,-0.112399
2026-01-24T18:21:02.270983,-5.948556,-6.154339,6.427121,0.193033,0.041538,-0.100181
2026-01-24T18:21:02.279983,-5.991627,-6.273980,6.522834,0.197920,0.026878,-0.090408
2026-01-24T18:21:02.289983,-5.905486,-6.202196,6.527620,0.228463,0.009773,-0.086742
2026-01-24T18:21:02.298983,-5.714060,-6.226124,6.541976,0.271224,0.012217,-0.085521
2026-01-24T18:21:02.308983,-5.608776,-6.407978,6.331408,0.331088,0.040317,-0.079412
2026-01-24T18:21:02.318983,-5.742774,-6.455835,6.374479,0.439822,0.058643,-0.075747
2026-01-24T18:21:02.327983,-5.881557,-6.465406,6.474977,0.560774,0.056199,-0.073303
2026-01-24T18:21:02.337983,-5.699703,-6.206981,6.431907,0.652403,0.039095,-0.067195
2026-01-24T18:21:02.347983,-5.642275,-5.886343,6.527620,0.696386,0.028099,-0.056199
2026-01-24T18:21:02.356983,-5.618347,-5.656632,6.671189,0.649960,0.034208,-0.047647
2026-01-24T18:21:02.366983,-5.522634,-5.493920,6.809973,0.575434,0.043982,-0.037873
2026-01-24T18:21:02.375983,-5.527420,-5.474778,6.771687,0.500909,0.057421,-0.036651
2026-01-24T18:21:02.385983,-5.422136,-5.546562,6.675975,0.425162,0.075747,-0.042760
2026-01-24T18:21:02.395983,-5.417350,-5.517848,6.522834,0.400727,0.085521,-0.054977
2026-01-24T18:21:02.404983,-5.412564,-5.412564,6.446264,0.397062,0.080634,-0.062308
2026-01-24T18:21:02.414983,-5.331208,-5.216353,6.494120,0.390953,0.070860,-0.065973
2026-01-24T18:21:02.423983,-5.154139,-5.039284,6.527620,0.376292,0.065973,-0.068416
2026-01-24T18:21:02.433983,-4.953142,-4.905286,6.656832,0.375071,0.062308,-0.068416
2026-01-24T18:21:02.443983,-4.814359,-4.666004,6.647261,0.390953,0.070860,-0.073303
2026-01-24T18:21:02.452983,-4.800002,-4.560719,6.293123,0.416610,0.103847,-0.083077
2026-01-24T18:21:02.462983,-5.130211,-4.766502,5.948556,0.443488,0.128281,-0.076969
2026-01-24T18:21:02.472983,-5.551348,-4.919643,6.106483,0.497244,0.120951,-0.067195
2026-01-24T18:21:02.481983,-5.833701,-4.666004,6.513263,0.535117,0.091629,-0.075747
2026-01-24T18:21:02.491983,-5.876772,-4.019941,6.699903,0.563217,0.045204,-0.102625
2026-01-24T18:21:02.500983,-5.781059,-3.661018,6.699903,0.454483,-0.014660,-0.108733
2026-01-24T18:21:02.510983,-5.685346,-3.842873,6.987041,0.260228,-0.061086,-0.109955
2026-01-24T18:21:02.520983,-5.623133,-4.354937,6.924828,0.096516,-0.091629,-0.095294
2026-01-24T18:21:02.529983,-5.522634,-5.096712,6.982256,-0.015882,-0.113620,-0.070860
2026-01-24T18:21:02.539983,-5.350351,-5.790630,6.910471,-0.048869,-0.135612,-0.034208
2026-01-24T18:21:02.548983,-5.240281,-6.183053,6.833901,0.008552,-0.136833,-0.001221
2026-01-24T18:21:02.558983,-5.178068,-6.388836,6.752545,0.125838,-0.112399,0.030543
2026-01-24T18:21:02.568983,-5.197210,-6.384050,6.795616,0.234572,-0.087964,0.063529
2026-01-24T18:21:02.577983,-5.240281,-6.436692,6.805187,0.339641,-0.078190,0.095294
2026-01-24T18:21:02.587983,-5.182853,-6.230910,6.824330,0.458148,-0.076969,0.114842
2026-01-24T18:21:02.597983,-5.144568,-5.953342,7.149753,0.500909,-0.062308,0.145385
2026-01-24T18:21:02.606983,-5.077569,-5.637490,7.188039,0.520457,-0.043982,0.146607
2026-01-24T18:21:02.616983,-4.957928,-5.168496,7.250252,0.487470,-0.023212,0.175929
2026-01-24T18:21:02.625983,-4.919643,-4.867001,7.255038,0.398284,0.000000,0.171042
2026-01-24T18:21:02.635983,-4.833501,-4.656432,6.972685,0.311541,0.010995,0.172263
2026-01-24T18:21:02.645983,-4.809573,-4.469792,6.886543,0.224798,0.015882,0.163711
2026-01-24T18:21:02.654983,-4.737788,-4.302295,6.905686,0.162490,0.014660,0.139277
2026-01-24T18:21:02.664983,-4.570291,-3.933800,6.843472,0.100181,0.007330,0.122173
2026-01-24T18:21:02.673983,-4.488935,-3.684946,6.790830,0.009773,0.012217,0.094073
2026-01-24T18:21:02.683983,-4.512863,-3.550948,6.838686,-0.111177,0.018325,0.059864
2026-01-24T18:21:02.693983,-4.618147,-3.613162,6.862615,-0.257785,0.024434,0.028099
2026-01-24T18:21:02.702983,-4.656432,-3.732803,6.742974,-0.384845,0.028099,-0.019547
2026-01-24T18:21:02.712983,-4.694717,-3.876372,6.795616,-0.519235,0.028099,-0.046425
2026-01-24T18:21:02.722983,-4.704289,-4.211367,6.742974,-0.653625,0.019547,-0.073303
2026-01-24T18:21:02.731983,-4.737788,-4.718646,6.532405,-0.752585,0.013439,-0.096516
2026-01-24T18:21:02.741983,-4.704289,-5.259424,6.489334,-0.807563,0.000000,-0.116064
2026-01-24T18:21:02.750983,-4.761716,-5.714060,6.513263,-0.807563,-0.020769,-0.120951
2026-01-24T18:21:02.760983,-4.651647,-6.063412,6.393621,-0.724486,-0.032986,-0.118507
2026-01-24T18:21:02.770983,-4.680361,-6.297909,6.259623,-0.636521,-0.043982,-0.095294
2026-01-24T18:21:02.779983,-4.709074,-6.503691,6.379265,-0.552222,-0.052534,-0.086742
2026-01-24T18:21:02.789983,-4.771288,-6.479763,6.585047,-0.436157,-0.067195,-0.068416
2026-01-24T18:21:02.798983,-4.675575,-6.139982,6.556333,-0.300545,-0.079412,-0.054977
2026-01-24T18:21:02.808983,-4.752145,-5.694917,6.704688,-0.221133,-0.087964,-0.047647
2026-01-24T18:21:02.818983,-4.795216,-5.383850,6.723831,-0.232128,-0.094073,-0.034208
2026-01-24T18:21:02.827983,-4.895715,-5.393422,6.886543,-0.305432,-0.101403,-0.019547
2026-01-24T18:21:02.837983,-4.934000,-5.570491,6.934399,-0.379958,-0.114842,-0.004886
2026-01-24T18:21:02.847983,-4.962714,-5.709274,6.939185,-0.392175,-0.122173,-0.002443
2026-01-24T18:21:02.856983,-4.924428,-5.929414,6.920042,-0.378736,-0.124616,0.004886
2026-01-24T18:21:02.866983,-4.919643,-6.053841,6.910471,-0.335975,-0.119729,0.002443
2026-01-24T18:21:02.875983,-4.943571,-5.958128,6.939185,-0.257785,-0.118507,0.004886
2026-01-24T18:21:02.885983,-5.015356,-5.761916,6.963113,-0.189368,-0.118507,0.001221
2026-01-24T18:21:02.895983,-5.072783,-5.680560,7.077969,-0.164933,-0.120951,0.004886
2026-01-24T18:21:02.904983,-5.024927,-5.551348,7.092326,-0.156381,-0.122173,0.004886
2026-01-24T18:21:02.914983,-4.967499,-5.618347,7.154539,-0.182037,-0.113620,0.015882
2026-01-24T18:21:02.923983,-4.986642,-5.967699,7.073183,-0.257785,-0.102625,0.032986
2026-01-24T18:21:02.933983,-4.991427,-6.364908,6.934399,-0.234572,-0.096516,0.026878
2026-01-24T18:21:02.943983,-5.034498,-6.460621,6.896114,-0.116064,-0.102625,0.029321
2026-01-24T18:21:02.952983,-5.044070,-6.317051,6.910471,0.012217,-0.113620,0.023212
2026-01-24T18:21:02.962983,-5.000999,-6.139982,6.719045,0.103847,-0.123394,0.041538
2026-01-24T18:21:02.972983,-5.015356,-6.068198,6.790830,0.141720,-0.136833,0.056199
2026-01-24T18:21:02.981983,-5.158925,-6.144768,6.876972,0.188146,-0.158824,0.062308
2026-01-24T18:21:02.991983,-4.996213,-5.996413,6.934399,0.265115,-0.175929,0.067195
2026-01-24T18:21:03.000983,-4.857429,-5.771488,7.073183,0.326201,-0.174707,0.074525
2026-01-24T18:21:03.010983,-4.780859,-5.608776,7.144968,0.345749,-0.168598,0.083077
2026-01-24T18:21:03.020983,-4.766502,-5.503491,7.144968,0.309097,-0.151494,0.100181
2026-01-24T18:21:03.029983,-4.881358,-5.546562,6.996613,0.251676,-0.139277,0.112399
2026-01-24T18:21:03.039983,-4.991427,-5.417350,6.881757,0.221133,-0.136833,0.120951
2026-01-24T18:21:03.048983,-5.101497,-5.335994,6.728617,0.185702,-0.152716,0.138055
2026-01-24T18:21:03.058983,-5.201996,-5.446064,6.680760,0.122173,-0.169820,0.149051
2026-01-24T18:21:03.068983,-5.335994,-5.852844,6.522834,0.023212,-0.193033,0.173485
2026-01-24T18:21:03.077983,-5.307280,-6.278766,6.508477,0.007330,-0.227241,0.174707
2026-01-24T18:21:03.087983,-5.259424,-6.613761,6.546762,0.144164,-0.276111,0.155159
2026-01-24T18:21:03.097983,-4.938785,-6.446264,6.824330,0.359188,-0.323758,0.141720
2026-01-24T18:21:03.106983,-4.694717,-6.020341,6.963113,0.530230,-0.339641,0.138055
2026-01-24T18:21:03.116983,-4.503292,-5.532205,7.058826,0.625525,-0.317649,0.140498
2026-01-24T18:21:03.125983,-4.441078,-5.077569,6.920042,0.641408,-0.277332,0.139277
2026-01-24T18:21:03.135983,-4.560719,-4.713860,7.015755,0.591317,-0.244346,0.134390
2026-01-24T18:21:03.145983,-4.599005,-4.479363,7.116254,0.499687,-0.235793,0.130725
2026-01-24T18:21:03.154983,-4.613361,-4.455435,7.111468,0.398284,-0.238237,0.123394
2026-01-24T18:21:03.164983,-4.642075,-4.402793,7.130611,0.313984,-0.240680,0.106290
2026-01-24T18:21:03.173983,-4.541577,-4.541577,7.159325,0.255341,-0.244346,0.084299
2026-01-24T18:21:03.183983,-4.517649,-4.752145,7.159325,0.221133,-0.239459,0.058643
2026-01-24T18:21:03.193983,-4.460221,-4.857429,7.068397,0.265115,-0.226020,0.017104
2026-01-24T18:21:03.202983,-4.532006,-4.737788,7.173682,0.348193,-0.211359,-0.025656
2026-01-24T18:21:03.212983,-4.594219,-4.488935,7.216752,0.392175,-0.199142,-0.068416
2026-01-24T18:21:03.222983,-4.579862,-4.192225,6.905686,0.384845,-0.189368,-0.109955
2026-01-24T18:21:03.231983,-4.670789,-4.043870,6.795616,0.312762,-0.180816,-0.142942
2026-01-24T18:21:03.241983,-4.795216,-4.010370,6.656832,0.223576,-0.189368,-0.177150
2026-01-24T18:21:03.250983,-4.852644,-4.244867,6.690331,0.120951,-0.202807,-0.201585
2026-01-24T18:21:03.260983,-4.972285,-4.776073,6.881757,-0.025656,-0.229685,-0.205250
2026-01-24T18:21:03.270983,-4.914857,-5.455635,6.881757,-0.061086,-0.274889,-0.227241
2026-01-24T18:21:03.279983,-4.670789,-5.781059,7.082754,0.001221,-0.317649,-0.217467
2026-01-24T18:21:03.289983,-4.378865,-5.982056,7.207181,0.070860,-0.326201,-0.195476
2026-01-24T18:21:03.298983,-4.225724,-6.063412,7.025327,0.162490,-0.302989,-0.174707
2026-01-24T18:21:03.308983,-4.235296,-5.996413,6.982256,0.285884,-0.262671,-0.153938
2026-01-24T18:21:03.318983,-4.512863,-5.781059,6.987041,0.400727,-0.229685,-0.138055
2026-01-24T18:21:03.327983,-4.694717,-5.474778,6.848258,0.492357,-0.235793,-0.128281
2026-01-24T18:21:03.337983,-4.857429,-5.144568,6.752545,0.555887,-0.267558,-0.127059
2026-01-24T18:21:03.347983,-4.828716,-4.919643,6.857829,0.604756,-0.312762,-0.133168
2026-01-24T18:21:03.356983,-4.694717,-4.618147,6.800401,0.641408,-0.348193,-0.142942
2026-01-24T18:21:03.366983,-4.522434,-4.503292,6.757331,0.653625,-0.356745,-0.146607
2026-01-24T18:21:03.375983,-4.522434,-4.426721,6.953542,0.651182,-0.349414,-0.146607
2026-01-24T18:21:03.385983,-4.536791,-4.364508,6.920042,0.630412,-0.322536,-0.149051
2026-01-24T18:21:03.395983,-4.666004,-4.287938,6.876972,0.591317,-0.296880,-0.157603
2026-01-24T18:21:03.404983,-4.828716,-4.249652,7.020541,0.552222,-0.305432,-0.162490
2026-01-24T18:21:03.414983,-4.809573,-4.311866,7.144968,0.509461,-0.331088,-0.168598
2026-01-24T18:21:03.423983,-4.756931,-4.393222,7.116254,0.494800,-0.351858,-0.182037
2026-01-24T18:21:03.433983,-4.651647,-4.479363,7.355536,0.472809,-0.367740,-0.194255
2026-01-24T18:21:03.443983,-4.536791,-4.498506,7.508677,0.474031,-0.383623,-0.204028
2026-01-24T18:21:03.452983,-4.378865,-4.345365,7.312465,0.478918,-0.383623,-0.204028
2026-01-24T18:21:03.462983,-4.283152,-4.326223,7.211967,0.441044,-0.359188,-0.199142
2026-01-24T18:21:03.472983,-4.412364,-4.455435,7.049255,0.392175,-0.338419,-0.195476
2026-01-24T18:21:03.481983,-4.417150,-4.527220,7.010970,0.393397,-0.354301,-0.205250
2026-01-24T18:21:03.491983,-4.264009,-4.565505,7.054041,0.433714,-0.400727,-0.213802
2026-01-24T18:21:03.500983,-3.957728,-4.776073,7.269395,0.437379,-0.441044,-0.199142
2026-01-24T18:21:03.510983,-3.790230,-5.115854,7.685746,0.439822,-0.450818,-0.189368
2026-01-24T18:21:03.520983,-3.546163,-5.417350,7.939385,0.516791,-0.427605,-0.186924
2026-01-24T18:21:03.529983,-3.464807,-5.450849,8.293523,0.634077,-0.376292,-0.182037
2026-01-24T18:21:03.539983,-3.450450,-5.340780,8.264809,0.747698,-0.306654,-0.175929
