Timestamp,Acceleration_X,Acceleration_Y,Acceleration_Z,Gyro_X,Gyro_Y,Gyro_Z
2026-01-23T17:50:24.622524,10.413563,1.497906,-1.698904,-0.704938,-1.258382,0.680503
2026-01-23T17:50:24.632524,10.461420,1.239482,-1.555334,-0.667064,-1.231504,0.730594
2026-01-23T17:50:24.641524,10.451849,1.100698,-1.526620,-0.591317,-1.225395,0.795346
2026-01-23T17:50:24.651524,10.667203,1.062413,-1.536192,-0.477696,-1.236390,0.864984
2026-01-23T17:50:24.660524,11.155338,1.344766,-1.665404,-0.400727,-1.295034,0.939510
2026-01-23T17:50:24.670524,11.849257,1.603191,-1.780260,-0.428827,-1.375668,1.029918
2026-01-23T17:50:24.680524,12.591032,1.641476,-1.895115,-0.511904,-1.386663,1.128878
2026-01-23T17:50:24.689524,12.878171,1.464407,-2.167897,-0.604756,-1.295034,1.210734
2026-01-23T17:50:24.699524,12.854243,1.067198,-2.038684,-0.634077,-1.123991,1.295034
2026-01-23T17:50:24.709524,12.337393,0.775274,-1.942971,-0.579100,-0.926071,1.365894
2026-01-23T17:50:24.718524,11.595618,0.684347,-1.952543,-0.486248,-0.769690,1.386663
2026-01-23T17:50:24.728524,10.863414,0.579063,-1.804188,-0.428827,-0.685390,1.407433
2026-01-23T17:50:24.737524,10.336993,0.564706,-1.679761,-0.366519,-0.684168,1.420872
2026-01-23T17:50:24.747524,10.068997,0.617348,-1.450050,-0.248011,-0.714712,1.400102
2026-01-23T17:50:24.757524,9.934999,0.928415,-0.995414,-0.084299,-0.723264,1.343903
2026-01-23T17:50:24.766524,9.791430,1.253839,-0.358923,0.080634,-0.682947,1.252273
2026-01-23T17:50:24.776524,9.662217,1.526620,0.143569,0.207694,-0.627969,1.136209
2026-01-23T17:50:24.785524,9.571290,1.761117,0.449850,0.305432,-0.610865,1.040914
2026-01-23T17:50:24.795524,9.528219,2.024327,0.689132,0.388510,-0.601091,0.959058
2026-01-23T17:50:24.805524,9.566504,2.273181,0.784845,0.469144,-0.576656,0.879645
2026-01-23T17:50:24.814524,9.480363,2.608176,0.985842,0.548556,-0.529009,0.790459
2026-01-23T17:50:24.824524,9.418149,2.919243,1.201196,0.564439,-0.448374,0.703716
2026-01-23T17:50:24.834524,9.260223,2.986242,1.445264,0.513126,-0.375071,0.641408
2026-01-23T17:50:24.843524,9.332008,2.785245,1.799402,0.443488,-0.327423,0.588873
2026-01-23T17:50:24.853524,9.590432,2.627319,1.962114,0.403170,-0.305432,0.558330
2026-01-23T17:50:24.862524,9.968498,2.646461,1.861615,0.388510,-0.290771,0.533896
2026-01-23T17:50:24.872524,10.356136,2.976671,1.698904,0.395840,-0.238237,0.476474
2026-01-23T17:50:24.882524,10.643274,3.378665,1.737189,0.388510,-0.125838,0.397062
2026-01-23T17:50:24.891524,10.504491,3.665804,1.737189,0.304210,0.032986,0.318871
2026-01-23T17:50:24.901524,10.121639,3.780659,1.684547,0.196698,0.217467,0.227241
2026-01-23T17:50:24.910524,9.647860,3.656232,1.808973,0.102625,0.348193,0.125838
2026-01-23T17:50:24.920524,9.485148,3.546163,1.847259,0.017104,0.405614,0.024434
2026-01-23T17:50:24.930524,9.671788,3.479164,1.899901,-0.034208,0.432492,-0.072082
2026-01-23T17:50:24.939524,9.954142,3.378665,1.938186,-0.065973,0.498465,-0.172263
2026-01-23T17:50:24.949524,10.174281,3.574876,1.880758,-0.095294,0.614530,-0.277332
2026-01-23T17:50:24.959524,10.126425,3.684946,1.694118,-0.166155,0.734259,-0.379958
2026-01-23T17:50:24.968524,10.083354,3.512663,1.469193,-0.266337,0.840550,-0.478918
2026-01-23T17:50:24.978524,9.992427,3.239881,1.148554,-0.348193,0.923628,-0.570548
2026-01-23T17:50:24.987524,9.738787,2.967100,1.100698,-0.378736,0.988379,-0.659734
2026-01-23T17:50:24.997524,9.499505,2.723032,1.004985,-0.384845,1.051909,-0.741590
2026-01-23T17:50:25.007524,9.245866,2.545963,1.014556,-0.389731,1.105665,-0.813672
2026-01-23T17:50:25.016524,8.796015,2.421536,0.976271,-0.408057,1.132543,-0.885754
2026-01-23T17:50:25.026524,8.556733,2.196611,0.976271,-0.428827,1.128878,-0.950506
2026-01-23T17:50:25.035524,8.523234,1.923829,1.043270,-0.441044,1.104444,-1.006705
2026-01-23T17:50:25.045524,8.738588,1.789831,1.048056,-0.425162,1.051909,-1.062905
2026-01-23T17:50:25.055524,9.169296,1.732403,1.091127,-0.382401,0.987158,-1.120326
2026-01-23T17:50:25.064524,9.662217,1.823330,1.100698,-0.346971,0.955393,-1.171639
2026-01-23T17:50:25.074524,10.059426,1.962114,1.349551,-0.305432,0.977384,-1.233947
2026-01-23T17:50:25.084524,10.212566,2.096112,1.349551,-0.288328,1.042135,-1.297477
2026-01-23T17:50:25.093524,10.088140,2.009970,1.316052,-0.324980,1.106887,-1.337794
2026-01-23T17:50:25.103524,9.772287,1.722832,1.383051,-0.370184,1.158200,-1.348790
2026-01-23T17:50:25.112524,9.332008,1.497906,1.488335,-0.384845,1.171639,-1.352455
2026-01-23T17:50:25.122524,9.140582,1.397408,1.603191,-0.420275,1.133765,-1.331685
2026-01-23T17:50:25.132524,9.164510,1.191625,1.775474,-0.491135,1.061683,-1.288925
2026-01-23T17:50:25.141524,9.355936,0.827916,1.947757,-0.564439,1.003040,-1.224173
2026-01-23T17:50:25.151524,9.724431,0.512064,2.163111,-0.627969,0.945619,-1.143539
2026-01-23T17:50:25.160524,10.112068,0.177068,2.148754,-0.708603,0.860098,-1.040914
2026-01-23T17:50:25.170524,10.676774,-0.306281,2.096112,-0.780685,0.791681,-0.937067
2026-01-23T17:50:25.180524,11.222337,-1.076770,2.053041,-0.801455,0.773355,-0.833220
2026-01-23T17:50:25.189524,11.681759,-1.828116,1.938186,-0.725707,0.794124,-0.728151
2026-01-23T17:50:25.199524,12.112468,-2.292324,1.612762,-0.535117,0.834441,-0.647517
2026-01-23T17:50:25.209524,12.638888,-2.727817,1.454836,-0.296880,0.899193,-0.571769
2026-01-23T17:50:25.218524,13.481162,-2.794816,1.497906,-0.058643,0.940732,-0.464257
2026-01-23T17:50:25.228524,14.639288,-2.857030,1.363908,0.152716,0.951727,-0.326201
2026-01-23T17:50:25.237524,16.079767,-2.775674,1.387837,0.395840,0.982271,-0.179594
2026-01-23T17:50:25.247524,17.520247,-2.321037,0.981057,0.708603,1.108109,-0.036651
2026-01-23T17:50:25.257524,18.262022,-1.512263,0.258424,0.996931,1.380555,0.117286
2026-01-23T17:50:25.266524,17.907885,-0.981057,-0.358923,1.221730,1.810604,0.293215
2026-01-23T17:50:25.276524,16.443476,-0.713061,-0.885344,1.403768,2.277305,0.472809
2026-01-23T17:50:25.285524,14.572289,-0.665204,-0.904486,1.540601,2.599841,0.646295
2026-01-23T17:50:25.295524,12.897313,-0.526420,-0.636490,1.588249,2.682919,0.855211
2026-01-23T17:50:25.305524,11.964113,-0.392422,-0.215354,1.530827,2.569298,1.086118
2026-01-23T17:50:25.314524,11.614760,-0.435493,-0.090927,1.440419,2.390926,1.295034
2026-01-23T17:50:25.324524,11.753544,-0.583848,-0.062213,1.403768,2.269974,1.461189
2026-01-23T17:50:25.334524,11.940184,-0.732203,0.066999,1.435533,2.246761,1.580918
2026-01-23T17:50:25.343524,11.839686,-1.043270,0.181854,1.551597,2.301739,1.655444
2026-01-23T17:50:25.353524,11.557333,-1.167697,0.354137,1.751961,2.375043,1.683544
2026-01-23T17:50:25.362524,11.073982,-1.086341,0.535992,2.002415,2.422691,1.689652
2026-01-23T17:50:25.372524,10.628917,-0.827916,0.650847,2.228435,2.431243,1.674992
2026-01-23T17:50:25.382524,10.188638,-0.406779,0.679561,2.392147,2.409251,1.634675
2026-01-23T17:50:25.391524,9.724431,-0.009571,0.746560,2.491107,2.368934,1.588249
2026-01-23T17:50:25.401524,9.461220,0.181854,0.942772,2.526538,2.298074,1.543045
2026-01-23T17:50:25.410524,9.183653,0.133998,1.009771,2.533868,2.201557,1.499062
2026-01-23T17:50:25.420524,9.040083,0.148355,1.057627,2.554637,2.101375,1.457524
2026-01-23T17:50:25.430524,9.260223,0.066999,1.258624,2.598620,2.003637,1.409876
2026-01-23T17:50:25.439524,9.643075,-0.057427,1.560120,2.635272,1.919338,1.363450
2026-01-23T17:50:25.449524,9.954142,-0.143569,1.521835,2.675589,1.857029,1.317025
2026-01-23T17:50:25.459524,10.088140,-0.210568,1.282552,2.767218,1.835038,1.243721
2026-01-23T17:50:25.468524,10.045069,-0.492921,1.177268,2.912604,1.848477,1.141096
2026-01-23T17:50:25.478524,9.911071,-0.478564,1.296909,3.106859,1.861916,1.022588
2026-01-23T17:50:25.487524,9.738787,-0.349352,1.215553,3.269350,1.848477,0.915075
2026-01-23T17:50:25.497524,9.614361,-0.196211,0.985842,3.403740,1.842369,0.808785
2026-01-23T17:50:25.507524,9.456434,-0.009571,0.765703,3.514917,1.839925,0.724486
2026-01-23T17:50:25.516524,9.336793,0.311066,0.789631,3.613877,1.836260,0.664621
2026-01-23T17:50:25.526524,9.269794,0.272781,0.808774,3.701842,1.827708,0.535117
2026-01-23T17:50:25.535524,9.241080,0.445065,0.679561,3.776368,1.827708,0.412944
2026-01-23T17:50:25.545524,9.274580,0.473778,0.669990,3.875328,1.835038,0.270002
2026-01-23T17:50:25.555524,9.537790,0.679561,0.741775,4.009718,1.838703,0.091629
2026-01-23T17:50:25.564524,9.604789,1.320838,1.100698,4.058587,1.853364,-0.020769
2026-01-23T17:50:25.574524,9.710074,1.531406,1.048056,4.012162,1.853364,-0.114842
2026-01-23T17:50:25.584524,9.743573,2.167897,1.134197,4.021935,1.866803,-0.174707
2026-01-23T17:50:25.593524,9.652646,3.244667,1.115055,3.991392,1.888794,-0.139277
2026-01-23T17:50:25.603524,9.403792,4.264009,1.071984,3.773924,1.869247,-0.070860
2026-01-23T17:50:25.612524,9.193224,4.991427,1.095912,3.473379,1.813047,-0.020769
2026-01-23T17:50:25.622524,8.925228,5.848058,1.239482,3.100751,1.732413,0.112399
2026-01-23T17:50:25.632524,8.666803,6.235695,1.339980,2.535090,1.594357,0.260228
2026-01-23T17:50:25.641524,8.700302,5.828915,1.201196,1.991420,1.439198,0.376292
2026-01-23T17:50:25.651524,8.796015,5.283352,1.095912,1.609018,1.325577,0.472809
2026-01-23T17:50:25.660524,8.743373,4.646861,1.105484,1.369559,1.238834,0.515570
2026-01-23T17:50:25.670524,8.772087,4.197010,1.038485,1.254716,1.178969,0.508239
2026-01-23T17:50:25.680524,8.604590,4.053441,0.961914,1.192408,1.131322,0.513126
2026-01-23T17:50:25.689524,8.537591,3.852444,1.057627,1.161865,1.071457,0.475253
2026-01-23T17:50:25.699524,8.528019,3.574876,1.158126,1.187521,1.001818,0.403170
2026-01-23T17:50:25.709524,8.446663,3.665804,1.162911,1.231504,0.959058,0.362853
2026-01-23T17:50:25.718524,8.197810,3.790230,1.167697,1.248608,0.910189,0.340862
2026-01-23T17:50:25.728524,8.059026,3.957728,1.263410,1.244943,0.847880,0.313984
2026-01-23T17:50:25.737524,7.934599,4.354937,1.349551,1.215621,0.761137,0.315206
2026-01-23T17:50:25.747524,7.843672,4.929214,1.368694,1.166752,0.648738,0.326201
2026-01-23T17:50:25.757524,7.671389,5.417350,1.301695,1.044579,0.542448,0.320093
2026-01-23T17:50:25.766524,7.623532,5.632704,1.335195,0.862541,0.438601,0.307876
2026-01-23T17:50:25.776524,7.355536,5.747559,1.330409,0.673173,0.338419,0.321315
2026-01-23T17:50:25.785524,7.149753,5.848058,1.368694,0.511904,0.223576,0.321315
2026-01-23T17:50:25.795524,6.958328,6.058626,1.359123,0.366519,0.097738,0.317649
2026-01-23T17:50:25.805524,6.829115,6.302694,1.406979,0.208915,-0.034208,0.316428
2026-01-23T17:50:25.814524,6.814758,6.580262,1.430907,0.021991,-0.173485,0.315206
2026-01-23T17:50:25.824524,6.752545,6.719045,1.483550,-0.210137,-0.309097,0.309097
2026-01-23T17:50:25.834524,6.881757,6.723831,1.540977,-0.450818,-0.439822,0.300545
2026-01-23T17:50:25.843524,6.843472,6.637689,1.430907,-0.681725,-0.568104,0.291993
2026-01-23T17:50:25.853524,6.838686,6.427121,1.416550,-0.902858,-0.690277,0.279776
2026-01-23T17:50:25.862524,6.776473,6.364908,1.406979,-1.114217,-0.813672,0.254119
2026-01-23T17:50:25.872524,6.848258,6.202196,1.349551,-1.297477,-0.948062,0.210137
2026-01-23T17:50:25.882524,6.939185,5.991627,1.483550,-1.462411,-1.075122,0.153938
2026-01-23T17:50:25.891524,7.058826,5.747559,1.493121,-1.610240,-1.191186,0.085521
2026-01-23T17:50:25.901524,7.360322,5.379065,1.603191,-1.736078,-1.292590,0.001221
2026-01-23T17:50:25.910524,7.704888,5.005784,1.914258,-1.819156,-1.376889,-0.090408
2026-01-23T17:50:25.920524,8.059026,4.675575,1.928615,-1.855808,-1.442863,-0.191811
2026-01-23T17:50:25.930524,8.274380,4.321437,1.995614,-1.875355,-1.480737,-0.295658
2026-01-23T17:50:25.939524,8.542376,4.063012,2.330609,-1.871690,-1.506393,-0.390953
2026-01-23T17:50:25.949524,8.700302,3.957728,2.469392,-1.839925,-1.533271,-0.493579
2026-01-23T17:50:25.959524,8.872586,3.895515,2.397608,-1.819156,-1.540601,-0.594982
2026-01-23T17:50:25.968524,8.824729,3.962514,2.435893,-1.816712,-1.530827,-0.684168
2026-01-23T17:50:25.978524,8.595018,3.914657,2.488535,-1.832595,-1.530827,-0.766024
2026-01-23T17:50:25.987524,8.461020,3.876372,2.421536,-1.866803,-1.562592,-0.835663
2026-01-23T17:50:25.997524,8.441878,3.809373,2.373680,-1.916894,-1.620014,-0.895528
2026-01-23T17:50:26.007524,8.681160,3.718446,2.593819,-1.977981,-1.683544,-0.941954
2026-01-23T17:50:26.016524,8.853443,3.536591,2.641676,-2.039067,-1.738522,-0.972497
2026-01-23T17:50:26.026524,9.092725,3.373879,2.526820,-2.095267,-1.758069,-1.001818
2026-01-23T17:50:26.035524,9.255437,3.282952,2.766102,-2.156353,-1.770287,-1.033583
2026-01-23T17:50:26.045524,9.475577,2.971885,3.062812,-2.221105,-1.795943,-1.053131
2026-01-23T17:50:26.055524,9.791430,2.818745,3.043670,-2.247983,-1.828930,-1.072679
2026-01-23T17:50:26.064524,9.958927,2.766102,3.072384,-2.250427,-1.826486,-1.095892
2026-01-23T17:50:26.074524,9.973284,2.723032,2.909672,-2.261422,-1.786169,-1.116661
2026-01-23T17:50:26.084524,9.805787,2.589034,2.837887,-2.277305,-1.748295,-1.130100
2026-01-23T17:50:26.093524,9.595218,2.469392,2.708675,-2.287078,-1.734856,-1.133765
2026-01-23T17:50:26.103524,9.418149,2.330609,2.531606,-2.288300,-1.750739,-1.123991
2026-01-23T17:50:26.112524,9.308079,2.019542,2.325823,-2.284635,-1.781282,-1.115439
2026-01-23T17:50:26.122524,9.288937,1.770688,2.249253,-2.241874,-1.808160,-1.119104
2026-01-23T17:50:26.132524,9.236295,1.512263,2.249253,-2.174679,-1.830151,-1.117883
2026-01-23T17:50:26.141524,9.375078,1.349551,2.225325,-2.095267,-1.854586,-1.100778
2026-01-23T17:50:26.151524,9.456434,1.158126,2.421536,-1.998750,-1.877799,-1.073900
2026-01-23T17:50:26.160524,9.757930,1.124626,2.675175,-1.898568,-1.899790,-1.042135
2026-01-23T17:50:26.170524,9.934999,1.148554,2.641676,-1.792278,-1.898568,-1.000597
2026-01-23T17:50:26.180524,9.911071,1.220339,2.574677,-1.695761,-1.872912,-0.949284
2026-01-23T17:50:26.189524,9.676574,1.445264,2.593819,-1.613905,-1.848477,-0.889419
2026-01-23T17:50:26.199524,9.408578,1.459621,2.574677,-1.558927,-1.847256,-0.827111
2026-01-23T17:50:26.209524,9.202795,1.488335,2.593819,-1.502728,-1.860695,-0.762359
2026-01-23T17:50:26.218524,9.083154,1.665404,2.593819,-1.424537,-1.875355,-0.693942
2026-01-23T17:50:26.228524,9.183653,1.780260,2.967100,-1.358564,-1.886351,-0.626747
2026-01-23T17:50:26.237524,9.408578,1.756331,2.991028,-1.295034,-1.898568,-0.561995
2026-01-23T17:50:26.247524,9.590432,1.775474,2.991028,-1.205847,-1.901012,-0.503352
2026-01-23T17:50:26.257524,9.858429,1.770688,3.053241,-1.110552,-1.880242,-0.453261
2026-01-23T17:50:26.266524,9.982855,1.890329,3.067598,-1.031140,-1.848477,-0.411723
2026-01-23T17:50:26.276524,10.088140,1.880758,3.062812,-0.977384,-1.815491,-0.365297
2026-01-23T17:50:26.285524,10.040283,1.952543,3.000599,-0.929736,-1.778839,-0.316428
2026-01-23T17:50:26.295524,10.011569,2.053041,3.081955,-0.871093,-1.745852,-0.270002
2026-01-23T17:50:26.305524,10.102497,2.301895,3.311666,-0.807563,-1.716530,-0.228463
2026-01-23T17:50:26.314524,10.384850,2.459821,3.589233,-0.785572,-1.679879,-0.189368
2026-01-23T17:50:26.324524,10.724630,2.541177,3.809373,-0.794124,-1.627344,-0.152716
2026-01-23T17:50:26.334524,10.944770,2.478964,3.699303,-0.785572,-1.539380,-0.114842
2026-01-23T17:50:26.343524,11.050054,2.450250,3.775874,-0.772133,-1.431867,-0.059864
2026-01-23T17:50:26.353524,10.911271,2.426322,3.527020,-0.755029,-1.321912,-0.012217
2026-01-23T17:50:26.362524,10.758130,2.531606,3.378665,-0.748920,-1.218065,0.040317
2026-01-23T17:50:26.372524,10.619346,2.555534,3.483949,-0.763581,-1.144761,0.106290
2026-01-23T17:50:26.382524,10.624132,2.560320,3.493520,-0.790459,-1.080009,0.164933
2026-01-23T17:50:26.391524,10.590632,2.478964,3.460021,-0.812450,-1.007927,0.211359
2026-01-23T17:50:26.401524,10.609775,2.321037,3.680161,-0.810007,-0.926071,0.246789
2026-01-23T17:50:26.410524,10.528419,2.254038,3.785445,-0.777020,-0.841772,0.290771
2026-01-23T17:50:26.420524,10.547562,2.498106,3.842873,-0.728151,-0.757472,0.335975
2026-01-23T17:50:26.430524,10.384850,2.880958,3.823730,-0.700051,-0.685390,0.379958
2026-01-23T17:50:26.439524,10.284351,3.101098,3.603590,-0.717155,-0.607199,0.403170
2026-01-23T17:50:26.449524,10.159924,3.053241,3.641875,-0.772133,-0.529009,0.437379
2026-01-23T17:50:26.459524,10.035497,2.938386,3.608376,-0.801455,-0.476474,0.472809
2026-01-23T17:50:26.468524,10.006784,2.780459,3.507877,-0.796568,-0.432492,0.485026
2026-01-23T17:50:26.478524,10.001998,2.589034,3.445664,-0.781907,-0.404392,0.482583
2026-01-23T17:50:26.487524,10.078568,2.421536,3.426521,-0.755029,-0.386066,0.485026
2026-01-23T17:50:26.497524,10.212566,2.373680,3.460021,-0.709825,-0.364075,0.475253
2026-01-23T17:50:26.507524,10.298708,2.325823,3.426521,-0.658512,-0.338419,0.460592
2026-01-23T17:50:26.516524,10.327422,2.316252,3.483949,-0.616973,-0.301767,0.438601
2026-01-23T17:50:26.526524,10.217352,2.258824,3.464807,-0.561995,-0.252898,0.420275
2026-01-23T17:50:26.535524,10.011569,2.206182,3.436093,-0.492357,-0.190589,0.406836
2026-01-23T17:50:26.545524,9.695717,2.335394,3.345165,-0.409279,-0.138055,0.397062
2026-01-23T17:50:26.555524,9.576076,2.407179,3.397808,-0.359188,-0.113620,0.393397
2026-01-23T17:50:26.564524,9.671788,2.383251,3.397808,-0.331088,-0.113620,0.394618
2026-01-23T17:50:26.574524,9.834500,2.402393,3.019742,-0.282219,-0.096516,0.392175
2026-01-23T17:50:26.584524,9.920642,2.579462,2.847458,-0.228463,-0.040317,0.386066
2026-01-23T17:50:26.593524,9.777073,2.713460,2.828316,-0.210137,0.013439,0.382401
2026-01-23T17:50:26.603524,9.690931,2.660818,2.675175,-0.232128,0.039095,0.378736
2026-01-23T17:50:26.612524,9.609575,2.526820,2.579462,-0.266337,0.046425,0.377514
2026-01-23T17:50:26.622524,9.724431,2.215753,2.483749,-0.283441,0.048869,0.381179
2026-01-23T17:50:26.632524,9.824929,2.143969,2.474178,-0.276111,0.062308,0.381179
2026-01-23T17:50:26.641524,9.848857,2.053041,2.431107,-0.277332,0.089186,0.375071
2026-01-23T17:50:26.651524,9.853643,1.933400,2.364108,-0.271224,0.107512,0.368962
2026-01-23T17:50:26.660524,9.853643,1.722832,2.258824,-0.248011,0.112399,0.366519
2026-01-23T17:50:26.670524,9.877571,1.737189,2.134397,-0.219911,0.134390,0.357966
2026-01-23T17:50:26.680524,9.801001,1.612762,2.100898,-0.188146,0.155159,0.346971
2026-01-23T17:50:26.689524,9.753144,1.564905,2.043470,-0.168598,0.174707,0.339641
2026-01-23T17:50:26.699524,9.767501,1.450050,1.914258,-0.141720,0.189368,0.331088
2026-01-23T17:50:26.709524,9.829715,1.387837,1.890329,-0.098960,0.201585,0.321315
2026-01-23T17:50:26.718524,9.877571,1.287338,1.842473,-0.051312,0.219911,0.313984
2026-01-23T17:50:26.728524,9.887142,1.229910,1.847259,0.002443,0.248011,0.307876
2026-01-23T17:50:26.737524,9.915856,1.186840,1.751546,0.062308,0.273667,0.309097
2026-01-23T17:50:26.747524,9.824929,1.258624,1.689332,0.112399,0.301767,0.310319
2026-01-23T17:50:26.757524,9.767501,1.272981,1.607976,0.149051,0.327423,0.306654
2026-01-23T17:50:26.766524,9.566504,1.263410,1.603191,0.177150,0.345749,0.307876
2026-01-23T17:50:26.776524,9.590432,1.282552,1.574477,0.207694,0.348193,0.307876
2026-01-23T17:50:26.785524,9.542576,1.287338,1.454836,0.233350,0.342084,0.310319
2026-01-23T17:50:26.795524,9.571290,1.253839,1.440479,0.261450,0.331088,0.307876
2026-01-23T17:50:26.805524,9.595218,1.287338,1.330409,0.278554,0.316428,0.302989
2026-01-23T17:50:26.814524,9.590432,1.282552,1.253839,0.285884,0.302989,0.293215
2026-01-23T17:50:26.824524,9.523433,1.234696,1.182054,0.294436,0.277332,0.280997
2026-01-23T17:50:26.834524,9.518648,1.196411,1.119840,0.307876,0.248011,0.267558
2026-01-23T17:50:26.843524,9.690931,1.167697,1.086341,0.329867,0.212581,0.256563
2026-01-23T17:50:26.853524,9.738787,1.134197,1.110269,0.346971,0.183259,0.246789
2026-01-23T17:50:26.862524,9.786644,1.115055,1.000199,0.372627,0.164933,0.239459
2026-01-23T17:50:26.872524,9.848857,1.134197,1.091127,0.398284,0.157603,0.230907
2026-01-23T17:50:26.882524,9.829715,1.119840,1.057627,0.420275,0.155159,0.221133
2026-01-23T17:50:26.891524,9.729216,1.071984,1.052841,0.436157,0.142942,0.213802
2026-01-23T17:50:26.901524,9.729216,1.057627,1.115055,0.449596,0.130725,0.211359
2026-01-23T17:50:26.910524,9.772287,1.000199,1.158126,0.465479,0.118507,0.211359
2026-01-23T17:50:26.920524,9.662217,1.009771,1.119840,0.480139,0.112399,0.206472
2026-01-23T17:50:26.930524,9.595218,0.976271,1.148554,0.491135,0.117286,0.201585
2026-01-23T17:50:26.939524,9.427721,0.971485,1.177268,0.502131,0.125838,0.195476
2026-01-23T17:50:26.949524,9.255437,0.947557,1.134197,0.509461,0.124616,0.188146
2026-01-23T17:50:26.959524,9.044869,0.928415,1.143769,0.503352,0.108733,0.183259
2026-01-23T17:50:26.968524,8.977870,0.937986,1.134197,0.486248,0.075747,0.178372
2026-01-23T17:50:26.978524,9.011369,0.856630,1.201196,0.464257,0.035430,0.173485
2026-01-23T17:50:26.987524,9.131011,0.847059,1.239482,0.449596,0.003665,0.160046
2026-01-23T17:50:26.997524,9.332008,0.756131,1.244267,0.444709,-0.008552,0.145385
2026-01-23T17:50:27.007524,9.480363,0.641276,1.445264,0.439822,-0.013439,0.130725
2026-01-23T17:50:27.016524,9.523433,0.535992,1.454836,0.450818,-0.015882,0.120951
2026-01-23T17:50:27.026524,9.628718,0.483350,1.473978,0.471587,-0.013439,0.112399
2026-01-23T17:50:27.035524,9.647860,0.483350,1.406979,0.499687,-0.002443,0.105068
2026-01-23T17:50:27.045524,9.600004,0.449850,1.363908,0.522900,0.015882,0.105068
2026-01-23T17:50:27.055524,9.499505,0.531206,1.359123,0.531452,0.037873,0.105068
2026-01-23T17:50:27.064524,9.370293,0.564706,1.320838,0.520457,0.048869,0.108733
2026-01-23T17:50:27.074524,9.265009,0.593420,1.253839,0.502131,0.046425,0.114842
2026-01-23T17:50:27.084524,9.255437,0.583848,1.320838,0.476474,0.030543,0.119729
2026-01-23T17:50:27.093524,9.394221,0.535992,1.488335,0.441044,0.009773,0.125838
2026-01-23T17:50:27.103524,9.734002,0.507278,1.641476,0.390953,-0.015882,0.144164
2026-01-23T17:50:27.112524,10.059426,0.468993,1.962114,0.335975,-0.031764,0.169820
2026-01-23T17:50:27.122524,10.384850,0.449850,1.971685,0.295658,-0.032986,0.194255
2026-01-23T17:50:27.132524,10.681560,0.421136,2.038684,0.260228,-0.009773,0.223576
2026-01-23T17:50:27.141524,11.002198,0.378065,2.344966,0.218689,0.028099,0.265115
2026-01-23T17:50:27.151524,11.184052,0.425922,2.531606,0.161268,0.068416,0.324980
2026-01-23T17:50:27.160524,11.399406,0.540777,2.507678,0.078190,0.114842,0.393397
2026-01-23T17:50:27.170524,11.528619,0.564706,2.598605,-0.012217,0.190589,0.483805
2026-01-23T17:50:27.180524,11.581261,0.693918,2.723032,-0.122173,0.294436,0.626747
2026-01-23T17:50:27.189524,11.418549,0.732203,2.799602,-0.288328,0.412944,0.803898
2026-01-23T17:50:27.199524,11.002198,0.334995,2.924029,-0.488692,0.526565,0.929736
2026-01-23T17:50:27.209524,10.590632,-0.330209,2.938386,-0.646295,0.610865,1.033583
2026-01-23T17:50:27.218524,10.250852,-0.880558,3.115455,-0.757472,0.659734,1.167974
2026-01-23T17:50:27.228524,9.896714,-1.536192,3.077169,-0.863763,0.678060,1.312138
2026-01-23T17:50:27.237524,9.561719,-2.196611,2.952743,-0.917519,0.660956,1.424537
2026-01-23T17:50:27.247524,9.403792,-2.876172,2.981456,-0.878424,0.614530,1.484402
2026-01-23T17:50:27.257524,9.413364,-3.335594,3.120240,-0.724486,0.559552,1.528384
2026-01-23T17:50:27.266524,9.604789,-3.574876,3.196810,-0.514348,0.537561,1.547932
2026-01-23T17:50:27.276524,9.781858,-3.694518,3.163311,-0.282219,0.540004,1.528384
2026-01-23T17:50:27.285524,9.987641,-3.728017,3.306880,-0.032986,0.555887,1.490510
2026-01-23T17:50:27.295524,10.322636,-3.814159,3.541377,0.233350,0.572991,1.434311
2026-01-23T17:50:27.305524,10.676774,-3.747160,3.373879,0.540004,0.582765,1.356120
2026-01-23T17:50:27.314524,11.112268,-3.512663,3.393022,0.812450,0.619417,1.262047
2026-01-23T17:50:27.324524,11.341979,-3.278166,3.263810,1.031140,0.713490,1.174082
2026-01-23T17:50:27.334524,11.265408,-3.182454,3.101098,1.224173,0.836885,1.097113
2026-01-23T17:50:27.343524,10.963913,-2.952743,2.952743,1.396437,0.959058,1.032362
2026-01-23T17:50:27.353524,10.604989,-2.689532,2.947957,1.513723,1.047022,0.989601
2026-01-23T17:50:27.362524,10.375278,-2.306680,3.125026,1.538158,1.088561,0.981049
2026-01-23T17:50:27.372524,10.207781,-2.100898,3.125026,1.484402,1.078787,0.989601
2026-01-23T17:50:27.382524,10.202995,-2.038684,3.048455,1.387885,1.048244,1.007927
2026-01-23T17:50:27.391524,10.313065,-2.201396,2.962314,1.317025,1.031140,1.026253
2026-01-23T17:50:27.401524,10.418349,-2.220539,2.962314,1.304807,1.045801,1.028696
2026-01-23T17:50:27.410524,10.590632,-2.029113,2.995813,1.320690,1.087339,1.025031
2026-01-23T17:50:27.420524,10.671988,-1.923829,3.273381,1.313359,1.142317,1.021366
2026-01-23T17:50:27.430524,10.638489,-1.875972,3.622733,1.301142,1.189965,1.014036
2026-01-23T17:50:27.439524,10.490134,-1.765903,3.689732,1.310916,1.221730,0.988379
2026-01-23T17:50:27.449524,10.365707,-1.550549,3.761517,1.336572,1.258382,0.946840
2026-01-23T17:50:27.459524,10.174281,-1.435693,3.818944,1.336572,1.298699,0.908967
2026-01-23T17:50:27.468524,9.939785,-1.426122,3.900300,1.299920,1.312138,0.866206
2026-01-23T17:50:27.478524,9.643075,-1.569691,3.881158,1.265712,1.301142,0.818559
2026-01-23T17:50:27.487524,9.552147,-1.655833,3.981656,1.236390,1.268155,0.767246
2026-01-23T17:50:27.497524,9.537790,-1.813759,4.048655,1.218065,1.232725,0.724486
2026-01-23T17:50:27.507524,9.523433,-1.966900,4.048655,1.214399,1.211956,0.676838
2026-01-23T17:50:27.516524,9.547362,-2.053041,3.991228,1.242499,1.219286,0.629191
2026-01-23T17:50:27.526524,9.360722,-1.947757,3.895515,1.288925,1.242499,0.582765
2026-01-23T17:50:27.535524,9.265009,-1.785045,4.019941,1.312138,1.266934,0.549778
2026-01-23T17:50:27.545524,9.044869,-1.560120,4.168296,1.280373,1.271821,0.535117
2026-01-23T17:50:27.555524,8.791230,-1.339980,4.230510,1.211956,1.243721,0.525343
2026-01-23T17:50:27.564524,8.752945,-1.119840,4.560719,1.095892,1.189965,0.535117
2026-01-23T17:50:27.574524,8.791230,-1.076770,4.709074,0.943175,1.132543,0.549778
2026-01-23T17:50:27.584524,8.733802,-1.148554,4.575076,0.813672,1.084896,0.552222
2026-01-23T17:50:27.593524,8.666803,-1.268195,4.618147,0.739146,1.055574,0.551000
2026-01-23T17:50:27.603524,8.556733,-1.344766,4.632504,0.708603,1.045801,0.543669
2026-01-23T17:50:27.612524,8.427521,-1.320838,4.603790,0.684168,1.043357,0.525343
2026-01-23T17:50:27.622524,8.078169,-1.454836,4.622933,0.668286,1.033583,0.487470
2026-01-23T17:50:27.632524,7.987241,-1.397408,4.642075,0.689055,1.016479,0.445931
2026-01-23T17:50:27.641524,7.910671,-1.210768,4.890929,0.718377,0.998153,0.414166
2026-01-23T17:50:27.651524,7.834101,-1.100698,4.924428,0.700051,0.982271,0.387288
2026-01-23T17:50:27.660524,7.690531,-1.086341,5.077569,0.674395,0.970053,0.345749
2026-01-23T17:50:27.670524,7.613961,-1.100698,5.225924,0.636521,0.960279,0.302989
2026-01-23T17:50:27.680524,7.470392,-1.325623,5.292923,0.605978,0.930958,0.272445
2026-01-23T17:50:27.689524,7.369893,-1.354337,5.326423,0.608421,0.896749,0.239459
2026-01-23T17:50:27.699524,7.274180,-1.244267,5.321637,0.620638,0.863763,0.200363
2026-01-23T17:50:27.709524,7.178467,-1.191625,5.431707,0.634077,0.841772,0.164933
2026-01-23T17:50:27.718524,7.039684,-1.158126,5.489135,0.647517,0.825889,0.133168
2026-01-23T17:50:27.728524,6.843472,-1.024128,5.757131,0.641408,0.801455,0.109955
2026-01-23T17:50:27.737524,6.723831,-0.904486,5.905486,0.620638,0.766024,0.094073
2026-01-23T17:50:27.747524,6.719045,-0.847059,6.159125,0.569326,0.715933,0.083077
2026-01-23T17:50:27.757524,6.752545,-0.803988,6.379265,0.498465,0.660956,0.085521
2026-01-23T17:50:27.766524,6.814758,-0.660419,6.436692,0.399505,0.623082,0.100181
2026-01-23T17:50:27.776524,6.857829,-0.765703,6.546762,0.283441,0.601091,0.125838
2026-01-23T17:50:27.785524,6.795616,-0.904486,6.771687,0.158824,0.597426,0.166155
2026-01-23T17:50:27.795524,6.513263,-1.105484,6.824330,0.053756,0.592539,0.216246
2026-01-23T17:50:27.805524,6.317051,-1.426122,6.867400,-0.012217,0.581543,0.263893
2026-01-23T17:50:27.814524,6.125625,-1.607976,6.953542,-0.051312,0.551000,0.310319
2026-01-23T17:50:27.824524,5.996413,-1.842473,7.159325,-0.080634,0.513126,0.362853
2026-01-23T17:50:27.834524,6.015556,-1.990828,7.441678,-0.120951,0.467922,0.428827
2026-01-23T17:50:27.843524,6.111268,-2.120040,7.743173,-0.167377,0.423940,0.511904
2026-01-23T17:50:27.853524,6.230910,-2.402393,7.853243,-0.177150,0.398284,0.592539
2026-01-23T17:50:27.862524,6.278766,-2.526820,7.838886,-0.094073,0.405614,0.662177
2026-01-23T17:50:27.872524,6.154339,-2.416750,7.795816,-0.045204,0.432492,0.735481
2026-01-23T17:50:27.882524,5.929414,-2.392822,7.767102,-0.009773,0.470366,0.799011
2026-01-23T17:50:27.891524,5.670989,-2.488535,7.747959,0.050090,0.488692,0.840550
2026-01-23T17:50:27.901524,5.398207,-2.632104,7.805387,0.105068,0.471587,0.882089
2026-01-23T17:50:27.910524,5.393422,-2.694318,7.757530,0.171042,0.442266,0.922406
2026-01-23T17:50:27.920524,5.388636,-2.689532,7.738388,0.224798,0.427605,0.970053
2026-01-23T17:50:27.930524,5.383850,-2.507678,7.838886,0.270002,0.430049,1.029918
2026-01-23T17:50:27.939524,5.455635,-2.249253,7.786244,0.282219,0.444709,1.078787
2026-01-23T17:50:27.949524,5.431707,-2.191825,7.958527,0.249232,0.456927,1.121548
2026-01-23T17:50:27.959524,5.379065,-2.139183,8.126025,0.169820,0.467922,1.170417
2026-01-23T17:50:27.968524,5.345565,-2.196611,8.212167,0.064751,0.467922,1.220508
2026-01-23T17:50:27.978524,5.182853,-2.569891,8.049455,-0.019547,0.443488,1.264490
2026-01-23T17:50:27.987524,5.163711,-2.914457,8.011170,-0.028099,0.406836,1.296255
2026-01-23T17:50:27.997524,5.168496,-3.081955,7.925028,0.026878,0.370184,1.335351
2026-01-23T17:50:28.007524,5.130211,-2.933600,7.551748,0.153938,0.329867,1.385442
2026-01-23T17:50:28.016524,5.211567,-2.718246,7.791030,0.261450,0.324980,1.374446
2026-01-23T17:50:28.026524,5.278566,-2.684746,7.905885,0.283441,0.295658,1.381776
2026-01-23T17:50:28.035524,5.369493,-2.809173,7.738388,0.267558,0.250454,1.426980
2026-01-23T17:50:28.045524,5.302494,-3.038884,7.594818,0.293215,0.237015,1.461189
2026-01-23T17:50:28.055524,5.211567,-2.976671,7.527819,0.367740,0.232128,1.477071
2026-01-23T17:50:28.064524,5.077569,-2.770888,7.537391,0.432492,0.212581,1.489289
2026-01-23T17:50:28.074524,4.919643,-2.723032,7.355536,0.475253,0.166155,1.488067
2026-01-23T17:50:28.084524,4.843072,-2.794816,7.183253,0.518013,0.094073,1.480737
2026-01-23T17:50:28.093524,5.201996,-3.316452,7.652246,0.482583,-0.061086,1.539380
2026-01-23T17:50:28.103524,5.383850,-3.053241,6.656832,0.643851,-0.139277,1.541823
2026-01-23T17:50:28.112524,5.570491,-1.828116,6.896114,0.951727,-0.136833,1.426980
2026-01-23T17:50:28.122524,5.398207,-0.110069,6.628118,1.051909,-0.145385,1.362229
2026-01-23T17:50:28.132524,4.991427,0.492921,6.580262,0.955393,-0.208915,1.321912
2026-01-23T17:50:28.141524,5.044070,0.669990,6.498906,0.790459,-0.333532,1.280373
2026-01-23T17:50:28.151524,5.240281,-0.009571,6.532405,0.568104,-0.475253,1.274264
2026-01-23T17:50:28.160524,5.661418,-0.870987,6.623332,0.419053,-0.590095,1.281595
2026-01-23T17:50:28.170524,6.111268,-1.454836,6.872186,0.384845,-0.641408,1.252273
2026-01-23T17:50:28.180524,6.379265,-1.976471,7.302894,0.390953,-0.638964,1.203404
2026-01-23T17:50:28.189524,6.474977,-2.507678,7.590033,0.411723,-0.624304,1.154535
2026-01-23T17:50:28.199524,6.537191,-2.828316,7.743173,0.492357,-0.608421,1.109331
2026-01-23T17:50:28.209524,6.642475,-2.746960,8.035098,0.582765,-0.596204,1.067792
2026-01-23T17:50:28.218524,6.742974,-2.574677,8.231309,0.629191,-0.588873,1.033583
2026-01-23T17:50:28.228524,6.704688,-2.751745,7.977670,0.645073,-0.596204,0.985936
2026-01-23T17:50:28.237524,6.522834,-2.785245,7.379464,0.708603,-0.579100,0.967610
2026-01-23T17:50:28.247524,6.384050,-2.344966,7.738388,0.846659,-0.542448,0.932180
2026-01-23T17:50:28.257524,6.398407,-1.741974,7.829315,0.877202,-0.543669,0.889419
2026-01-23T17:50:28.266524,6.551548,-1.880758,7.929814,0.801455,-0.576656,0.863763
2026-01-23T17:50:28.276524,6.886543,-2.105683,7.843672,0.777020,-0.579100,0.844215
2026-01-23T17:50:28.285524,6.963113,-1.947757,7.805387,0.811228,-0.533896,0.829554
2026-01-23T17:50:28.295524,6.719045,-1.689332,7.800601,0.846659,-0.474031,0.803898
2026-01-23T17:50:28.305524,6.412764,-1.469193,7.805387,0.856432,-0.438601,0.761137
2026-01-23T17:50:28.314524,6.283552,-1.292124,7.757530,0.851545,-0.430049,0.704938
2026-01-23T17:50:28.324524,6.259623,-1.220339,7.728816,0.818559,-0.439822,0.660956
2026-01-23T17:50:28.334524,6.350551,-1.234696,7.676174,0.792902,-0.443488,0.618195
2026-01-23T17:50:28.343524,6.393621,-1.354337,7.570890,0.767246,-0.433714,0.581543
2026-01-23T17:50:28.353524,6.355336,-1.507478,7.369893,0.747698,-0.442266,0.563217
2026-01-23T17:50:28.362524,6.393621,-1.540977,7.192824,0.770911,-0.439822,0.544891
2026-01-23T17:50:28.372524,6.474977,-1.244267,7.149753,0.814894,-0.423940,0.524122
2026-01-23T17:50:28.382524,6.374479,-1.048056,6.881757,0.839328,-0.403170,0.499687
2026-01-23T17:50:28.391524,6.312266,-0.842273,7.159325,0.829554,-0.405614,0.467922
2026-01-23T17:50:28.401524,6.503691,-0.803988,7.389036,0.745255,-0.437379,0.466700
2026-01-23T17:50:28.410524,6.690331,-0.976271,7.436892,0.640186,-0.465479,0.466700
2026-01-23T17:50:28.420524,6.848258,-1.229910,7.312465,0.607199,-0.447153,0.447153
2026-01-23T17:50:28.430524,6.795616,-1.167697,7.317251,0.610865,-0.409279,0.427605
2026-01-23T17:50:28.439524,6.618547,-0.976271,7.398607,0.618195,-0.371405,0.395840
2026-01-23T17:50:28.449524,6.479763,-1.071984,7.537391,0.571769,-0.370184,0.388510
2026-01-23T17:50:28.459524,6.527620,-1.402194,7.432106,0.491135,-0.398284,0.389731
2026-01-23T17:50:28.468524,6.704688,-1.622333,7.336394,0.498465,-0.409279,0.376292
2026-01-23T17:50:28.478524,6.814758,-1.531406,7.374679,0.560774,-0.367740,0.335975
2026-01-23T17:50:28.487524,6.738188,-1.263410,7.537391,0.609643,-0.324980,0.309097
2026-01-23T17:50:28.497524,6.704688,-0.985842,7.613961,0.592539,-0.318871,0.288328
2026-01-23T17:50:28.507524,6.862615,-0.799202,7.690531,0.533896,-0.324980,0.260228
2026-01-23T17:50:28.516524,6.953542,-0.861416,7.719245,0.461814,-0.315206,0.240680
2026-01-23T17:50:28.526524,7.030112,-0.995414,7.786244,0.398284,-0.293215,0.213802
2026-01-23T17:50:28.535524,7.092326,-1.105484,7.776673,0.373849,-0.256563,0.177150
2026-01-23T17:50:28.545524,7.077969,-1.115055,7.814958,0.372627,-0.216246,0.141720
2026-01-23T17:50:28.555524,7.140182,-1.105484,7.843672,0.357966,-0.180816,0.109955
2026-01-23T17:50:28.564524,7.077969,-1.110269,7.776673,0.332310,-0.153938,0.083077
2026-01-23T17:50:28.574524,7.077969,-1.148554,7.685746,0.317649,-0.123394,0.054977
2026-01-23T17:50:28.584524,7.044469,-1.038485,7.551748,0.311541,-0.084299,0.029321
2026-01-23T17:50:28.593524,6.977470,-0.775274,7.518248,0.318871,-0.050090,0.004886
2026-01-23T17:50:28.603524,6.824330,-0.440279,7.551748,0.313984,-0.009773,-0.031764
2026-01-23T17:50:28.612524,6.733402,-0.181854,7.728816,0.244346,0.012217,-0.059864
2026-01-23T17:50:28.622524,6.752545,-0.086141,7.805387,0.118507,0.004886,-0.081855
2026-01-23T17:50:28.632524,6.800401,-0.282353,7.719245,0.003665,0.004886,-0.111177
2026-01-23T17:50:28.641524,6.829115,-0.473778,7.676174,-0.051312,0.029321,-0.150272
2026-01-23T17:50:28.651524,6.771687,-0.569491,7.570890,-0.078190,0.067195,-0.184481
2026-01-23T17:50:28.660524,6.637689,-0.693918,7.551748,-0.109955,0.090408,-0.218689
2026-01-23T17:50:28.670524,6.479763,-0.736989,7.494320,-0.141720,0.100181,-0.250454
2026-01-23T17:50:28.680524,6.436692,-0.827916,7.422535,-0.169820,0.106290,-0.279776
2026-01-23T17:50:28.689524,6.422335,-0.961914,7.393821,-0.173485,0.107512,-0.312762
2026-01-23T17:50:28.699524,6.436692,-0.904486,7.422535,-0.161268,0.122173,-0.351858
2026-01-23T17:50:28.709524,6.422335,-0.894915,7.432106,-0.163711,0.134390,-0.389731
2026-01-23T17:50:28.718524,6.379265,-1.024128,7.302894,-0.161268,0.139277,-0.427605
2026-01-23T17:50:28.728524,6.288337,-1.215553,7.499106,-0.160046,0.139277,-0.453261
2026-01-23T17:50:28.737524,6.254838,-1.210768,7.345965,-0.129503,0.136833,-0.492357
2026-01-23T17:50:28.747524,6.427121,-0.521635,7.714460,0.023212,0.167377,-0.610865
2026-01-23T17:50:28.757524,7.121040,0.411565,8.494520,-0.047647,0.112399,-0.599869
2026-01-23T17:50:28.766524,7.436892,0.272781,8.398807,-0.365297,0.081855,-0.514348
2026-01-23T17:50:28.776524,7.240681,-0.646062,7.695317,-0.450818,0.191811,-0.577878
2026-01-23T17:50:28.785524,6.647261,-1.196411,8.044669,-0.397062,0.288328,-0.605978
2026-01-23T17:50:28.795524,6.235695,-1.292124,8.054240,-0.355523,0.300545,-0.609643
2026-01-23T17:50:28.805524,6.092126,-1.339980,7.824529,-0.326201,0.293215,-0.654847
2026-01-23T17:50:28.814524,6.106483,-1.421336,7.819744,-0.317649,0.278554,-0.680503
2026-01-23T17:50:28.824524,6.163911,-1.392622,7.791030,-0.324980,0.267558,-0.681725
2026-01-23T17:50:28.834524,6.135197,-1.316052,7.891528,-0.328645,0.272445,-0.682947
2026-01-23T17:50:28.843524,5.962913,-1.292124,7.905885,-0.343306,0.283441,-0.680503
2026-01-23T17:50:28.853524,5.910271,-1.344766,7.939385,-0.387288,0.277332,-0.665842
2026-01-23T17:50:28.862524,5.814558,-1.555334,7.996813,-0.433714,0.259006,-0.653625
2026-01-23T17:50:28.872524,5.790630,-1.665404,8.082954,-0.448374,0.246789,-0.649960
2026-01-23T17:50:28.882524,5.747559,-1.856830,8.145168,-0.436157,0.254119,-0.656069
2026-01-23T17:50:28.891524,5.714060,-1.832902,8.279166,-0.410501,0.259006,-0.663399
2026-01-23T17:50:28.901524,5.747559,-1.794616,8.260023,-0.393397,0.262671,-0.664621
2026-01-23T17:50:28.910524,5.637490,-1.799402,8.269594,-0.389731,0.266337,-0.663399
2026-01-23T17:50:28.920524,5.541777,-1.823330,8.197810,-0.389731,0.270002,-0.654847
2026-01-23T17:50:28.930524,5.556134,-1.832902,8.255237,-0.384845,0.274889,-0.648738
2026-01-23T17:50:28.939524,5.455635,-1.828116,8.207381,-0.368962,0.283441,-0.643851
2026-01-23T17:50:28.949524,5.374279,-1.655833,8.216952,-0.350636,0.288328,-0.647517
2026-01-23T17:50:28.959524,5.192425,-1.550549,8.164310,-0.338419,0.285884,-0.652403
2026-01-23T17:50:28.968524,5.015356,-1.378265,8.154739,-0.348193,0.270002,-0.653625
2026-01-23T17:50:28.978524,4.967499,-1.296909,8.145168,-0.381179,0.245567,-0.657290
2026-01-23T17:50:28.987524,5.101497,-1.330409,8.202595,-0.434935,0.217467,-0.653625
2026-01-23T17:50:28.997524,5.206781,-1.469193,8.274380,-0.492357,0.185702,-0.648738
2026-01-23T17:50:29.007524,5.283352,-1.603191,8.250452,-0.536339,0.168598,-0.647517
2026-01-23T17:50:29.016524,5.307280,-1.847259,8.269594,-0.546113,0.168598,-0.646295
2026-01-23T17:50:29.026524,5.288137,-1.895115,8.288737,-0.540004,0.172263,-0.641408
2026-01-23T17:50:29.035524,5.230710,-1.875972,8.312665,-0.541226,0.177150,-0.637743
2026-01-23T17:50:29.045524,5.182853,-1.952543,8.355736,-0.543669,0.175929,-0.632856
2026-01-23T17:50:29.055524,5.283352,-2.072184,8.327022,-0.542448,0.173485,-0.625525
2026-01-23T17:50:29.064524,5.235495,-2.105683,8.398807,-0.524122,0.177150,-0.618195
2026-01-23T17:50:29.074524,5.178068,-2.115255,8.307880,-0.505796,0.186924,-0.609643
2026-01-23T17:50:29.084524,5.005784,-2.115255,8.279166,-0.482583,0.195476,-0.603534
2026-01-23T17:50:29.093524,4.890929,-2.172682,8.355736,-0.459370,0.200363,-0.597426
2026-01-23T17:50:29.103524,4.804787,-2.177468,8.303094,-0.458148,0.185702,-0.576656
2026-01-23T17:50:29.112524,4.723431,-2.230110,8.231309,-0.455705,0.166155,-0.566882
2026-01-23T17:50:29.122524,4.742574,-2.311466,8.293523,-0.443488,0.151494,-0.561995
2026-01-23T17:50:29.132524,4.733003,-2.297109,8.384450,-0.420275,0.146607,-0.554665
2026-01-23T17:50:29.141524,4.656432,-2.301895,8.446663,-0.410501,0.139277,-0.542448
2026-01-23T17:50:29.151524,4.742574,-2.249253,8.461020,-0.406836,0.127059,-0.529009
2026-01-23T17:50:29.160524,4.656432,-2.244467,8.504091,-0.414166,0.111177,-0.514348
2026-01-23T17:50:29.170524,4.733003,-2.268395,8.595018,-0.421496,0.100181,-0.497244
2026-01-23T17:50:29.180524,4.718646,-2.321037,8.623732,-0.420275,0.090408,-0.477696
2026-01-23T17:50:29.189524,4.709074,-2.344966,8.700302,-0.415388,0.089186,-0.463035
2026-01-23T17:50:29.199524,4.766502,-2.392822,8.757730,-0.400727,0.086742,-0.455705
2026-01-23T17:50:29.209524,4.814359,-2.373680,8.805587,-0.386066,0.083077,-0.449596
2026-01-23T17:50:29.218524,4.795216,-2.373680,8.729016,-0.366519,0.084299,-0.449596
2026-01-23T17:50:29.228524,4.876572,-2.321037,8.786444,-0.353080,0.081855,-0.444709
2026-01-23T17:50:29.237524,4.833501,-2.392822,8.733802,-0.345749,0.073303,-0.437379
2026-01-23T17:50:29.247524,4.953142,-2.397608,8.738588,-0.334754,0.070860,-0.431270
2026-01-23T17:50:29.257524,4.886143,-2.450250,8.738588,-0.317649,0.075747,-0.419053
2026-01-23T17:50:29.266524,4.910071,-2.426322,8.714659,-0.305432,0.075747,-0.403170
2026-01-23T17:50:29.276524,4.819144,-2.435893,8.714659,-0.304210,0.064751,-0.386066
2026-01-23T17:50:29.285524,4.823930,-2.440679,8.681160,-0.301767,0.053756,-0.364075
2026-01-23T17:50:29.295524,4.847858,-2.469392,8.705088,-0.290771,0.051312,-0.349414
2026-01-23T17:50:29.305524,4.785645,-2.435893,8.604590,-0.267558,0.058643,-0.338419
2026-01-23T17:50:29.314524,4.661218,-2.325823,8.508877,-0.239459,0.054977,-0.326201
2026-01-23T17:50:29.324524,4.570291,-2.234896,8.518448,-0.219911,0.037873,-0.317649
2026-01-23T17:50:29.334524,4.565505,-2.258824,8.384450,-0.207694,0.014660,-0.312762
2026-01-23T17:50:29.343524,4.532006,-2.292324,8.312665,-0.175929,-0.001221,-0.304210
2026-01-23T17:50:29.353524,4.441078,-2.234896,8.269594,-0.135612,-0.012217,-0.300545
2026-01-23T17:50:29.362524,4.546362,-2.258824,8.398807,-0.090408,-0.021991,-0.305432
2026-01-23T17:50:29.372524,4.584648,-2.134397,8.508877,-0.065973,-0.046425,-0.298102
2026-01-23T17:50:29.382524,4.771288,-2.024327,8.695517,-0.075747,-0.057421,-0.293215
2026-01-23T17:50:29.391524,4.886143,-2.019542,8.767302,-0.142942,-0.057421,-0.279776
2026-01-23T17:50:29.401524,5.082355,-2.325823,8.906085,-0.232128,-0.051312,-0.255341
2026-01-23T17:50:29.410524,5.034498,-2.746960,8.800801,-0.296880,-0.037873,-0.213802
2026-01-23T17:50:29.420524,4.905286,-2.761317,8.901300,-0.262671,-0.008552,-0.179594
2026-01-23T17:50:29.430524,4.656432,-2.522035,9.044869,-0.221133,0.028099,-0.168598
2026-01-23T17:50:29.439524,4.570291,-2.536391,8.949156,-0.246789,0.020769,-0.156381
2026-01-23T17:50:29.449524,4.575076,-2.813959,8.781658,-0.267558,-0.018325,-0.145385
2026-01-23T17:50:29.459524,4.680361,-3.062812,8.590233,-0.202807,-0.021991,-0.141720
2026-01-23T17:50:29.468524,4.728217,-2.823530,8.528019,-0.108733,0.017104,-0.145385
2026-01-23T17:50:29.478524,4.536791,-2.641676,8.595018,-0.063529,0.034208,-0.140498
2026-01-23T17:50:29.487524,4.436293,-2.493321,8.518448,-0.057421,0.014660,-0.136833
2026-01-23T17:50:29.497524,4.517649,-2.579462,8.532805,-0.054977,-0.009773,-0.129503
2026-01-23T17:50:29.507524,4.627718,-2.632104,8.609375,-0.043982,-0.024434,-0.119729
2026-01-23T17:50:29.516524,4.656432,-2.593819,8.580661,-0.035430,-0.028099,-0.106290
2026-01-23T17:50:29.526524,4.718646,-2.632104,8.671589,-0.018325,-0.029321,-0.097738
2026-01-23T17:50:29.535524,4.661218,-2.617747,8.657232,-0.008552,-0.030543,-0.084299
2026-01-23T17:50:29.545524,4.656432,-2.536391,8.666803,0.003665,-0.032986,-0.072082
2026-01-23T17:50:29.555524,4.656432,-2.550748,8.638089,0.015882,-0.039095,-0.058643
2026-01-23T17:50:29.564524,4.651647,-2.574677,8.499305,0.039095,-0.040317,-0.050090
2026-01-23T17:50:29.574524,4.579862,-2.502892,8.585447,0.069638,-0.042760,-0.040317
2026-01-23T17:50:29.584524,4.618147,-2.431107,8.575876,0.089186,-0.054977,-0.032986
2026-01-23T17:50:29.593524,4.651647,-2.349751,8.575876,0.087964,-0.068416,-0.013439
2026-01-23T17:50:29.603524,4.723431,-2.330609,8.705088,0.080634,-0.079412,0.000000
2026-01-23T17:50:29.612524,4.713860,-2.359323,8.609375,0.075747,-0.086742,0.008552
2026-01-23T17:50:29.622524,4.795216,-2.359323,8.729016,0.074525,-0.089186,0.014660
2026-01-23T17:50:29.632524,4.862215,-2.364108,8.724231,0.085521,-0.086742,0.020769
2026-01-23T17:50:29.641524,4.929214,-2.364108,8.700302,0.100181,-0.080634,0.023212
2026-01-23T17:50:29.651524,4.895715,-2.330609,8.676374,0.114842,-0.076969,0.028099
2026-01-23T17:50:29.660524,4.857429,-2.287538,8.618947,0.135612,-0.074525,0.032986
2026-01-23T17:50:29.670524,4.847858,-2.249253,8.609375,0.142942,-0.074525,0.041538
2026-01-23T17:50:29.680524,4.814359,-2.196611,8.499305,0.142942,-0.080634,0.054977
2026-01-23T17:50:29.689524,4.838287,-2.172682,8.585447,0.156381,-0.081855,0.058643
2026-01-23T17:50:29.699524,4.833501,-1.981257,8.638089,0.153938,-0.087964,0.067195
2026-01-23T17:50:29.709524,4.876572,-2.033899,8.676374,0.138055,-0.097738,0.075747
2026-01-23T17:50:29.718524,4.962714,-2.057827,8.556733,0.136833,-0.101403,0.076969
2026-01-23T17:50:29.728524,4.871786,-2.067398,8.499305,0.146607,-0.101403,0.081855
2026-01-23T17:50:29.737524,4.905286,-2.053041,8.494520,0.161268,-0.103847,0.080634
2026-01-23T17:50:29.747524,4.972285,-2.053041,8.475377,0.168598,-0.112399,0.084299
2026-01-23T17:50:29.757524,4.981856,-1.990828,8.456235,0.182037,-0.117286,0.087964
2026-01-23T17:50:29.766524,5.067998,-1.875972,8.484948,0.196698,-0.116064,0.090408
2026-01-23T17:50:29.776524,5.096712,-1.765903,8.470592,0.185702,-0.108733,0.094073
2026-01-23T17:50:29.785524,4.953142,-1.770688,8.551947,0.150272,-0.108733,0.098960
2026-01-23T17:50:29.795524,4.910071,-1.952543,8.441878,0.138055,-0.117286,0.102625
2026-01-23T17:50:29.805524,4.895715,-1.938186,8.580661,0.162490,-0.113620,0.107512
2026-01-23T17:50:29.814524,4.905286,-1.942971,8.681160,0.163711,-0.122173,0.106290
2026-01-23T17:50:29.824524,4.943571,-2.024327,8.633303,0.162490,-0.131946,0.109955
2026-01-23T17:50:29.834524,5.039284,-2.110469,8.628518,0.166155,-0.135612,0.112399
2026-01-23T17:50:29.843524,5.072783,-2.177468,8.595018,0.179594,-0.129503,0.106290
2026-01-23T17:50:29.853524,5.024927,-2.191825,8.542376,0.189368,-0.118507,0.112399
2026-01-23T17:50:29.862524,4.857429,-2.206182,8.599804,0.195476,-0.118507,0.123394
2026-01-23T17:50:29.872524,4.934000,-2.201396,8.609375,0.202807,-0.127059,0.130725
2026-01-23T17:50:29.882524,4.881358,-2.196611,8.465806,0.207694,-0.133168,0.136833
2026-01-23T17:50:29.891524,4.914857,-2.215753,8.461020,0.212581,-0.138055,0.144164
2026-01-23T17:50:29.901524,4.867001,-2.172682,8.417949,0.217467,-0.145385,0.151494
2026-01-23T17:50:29.910524,4.871786,-2.220539,8.461020,0.224798,-0.153938,0.158824
2026-01-23T17:50:29.920524,4.890929,-2.177468,8.484948,0.234572,-0.157603,0.168598
2026-01-23T17:50:29.930524,4.905286,-2.105683,8.561519,0.238237,-0.162490,0.175929
2026-01-23T17:50:29.939524,4.986642,-2.062613,8.609375,0.244346,-0.164933,0.185702
2026-01-23T17:50:29.949524,4.996213,-2.067398,8.537591,0.243124,-0.163711,0.193033
2026-01-23T17:50:29.959524,5.058426,-2.091326,8.513662,0.245567,-0.157603,0.197920
2026-01-23T17:50:29.968524,5.015356,-2.048256,8.528019,0.256563,-0.151494,0.204028
2026-01-23T17:50:29.978524,5.024927,-1.957328,8.504091,0.271224,-0.146607,0.207694
2026-01-23T17:50:29.987524,4.996213,-1.861615,8.422735,0.279776,-0.149051,0.208915
2026-01-23T17:50:29.997524,5.134997,-1.804188,8.365307,0.283441,-0.149051,0.205250
2026-01-23T17:50:30.007524,5.058426,-1.746760,8.403592,0.295658,-0.139277,0.205250
2026-01-23T17:50:30.016524,5.106283,-1.722832,8.451449,0.299323,-0.134390,0.205250
2026-01-23T17:50:30.026524,5.082355,-1.636690,8.456235,0.295658,-0.138055,0.200363
2026-01-23T17:50:30.035524,5.125426,-1.588834,8.508877,0.287106,-0.134390,0.196698
2026-01-23T17:50:30.045524,5.091926,-1.560120,8.513662,0.270002,-0.125838,0.196698
2026-01-23T17:50:30.055524,5.029713,-1.560120,8.537591,0.261450,-0.117286,0.189368
2026-01-23T17:50:30.064524,5.082355,-1.512263,8.518448,0.249232,-0.119729,0.185702
2026-01-23T17:50:30.074524,5.211567,-1.526620,8.599804,0.228463,-0.130725,0.183259
2026-01-23T17:50:30.084524,5.393422,-1.598405,8.638089,0.201585,-0.130725,0.184481
2026-01-23T17:50:30.093524,5.474778,-1.785045,8.638089,0.195476,-0.113620,0.186924
2026-01-23T17:50:30.103524,5.474778,-1.842473,8.623732,0.212581,-0.092851,0.196698
2026-01-23T17:50:30.112524,5.407779,-1.952543,8.652446,0.232128,-0.069638,0.206472
2026-01-23T17:50:30.122524,5.307280,-1.957328,8.575876,0.259006,-0.050090,0.208915
2026-01-23T17:50:30.132524,5.249852,-1.885544,8.714659,0.290771,-0.039095,0.210137
2026-01-23T17:50:30.141524,5.182853,-1.761117,8.705088,0.326201,-0.030543,0.213802
2026-01-23T17:50:30.151524,5.168496,-1.579262,8.638089,0.349414,-0.018325,0.205250
2026-01-23T17:50:30.160524,5.039284,-1.584048,8.767302,0.349414,-0.004886,0.199142
2026-01-23T17:50:30.170524,4.934000,-1.459621,8.657232,0.354301,0.007330,0.194255
2026-01-23T17:50:30.180524,4.890929,-1.359123,8.666803,0.367740,0.007330,0.185702
2026-01-23T17:50:30.189524,4.780859,-1.229910,8.599804,0.365297,0.001221,0.178372
2026-01-23T17:50:30.199524,4.752145,-1.182054,8.537591,0.351858,-0.014660,0.167377
2026-01-23T17:50:30.209524,4.761716,-1.129412,8.456235,0.337197,-0.024434,0.156381
2026-01-23T17:50:30.218524,4.699503,-1.134197,8.370093,0.316428,-0.039095,0.153938
2026-01-23T17:50:30.228524,4.895715,-1.062413,8.331808,0.287106,-0.062308,0.152716
2026-01-23T17:50:30.237524,5.010570,-1.119840,8.365307,0.248011,-0.090408,0.153938
2026-01-23T17:50:30.247524,5.192425,-1.205982,8.451449,0.228463,-0.100181,0.155159
2026-01-23T17:50:30.257524,5.264209,-1.277767,8.499305,0.223576,-0.103847,0.156381
2026-01-23T17:50:30.266524,5.302494,-1.258624,8.480163,0.235793,-0.098960,0.156381
2026-01-23T17:50:30.276524,5.393422,-1.306481,8.556733,0.263893,-0.083077,0.150272
2026-01-23T17:50:30.285524,5.283352,-1.124626,8.595018,0.283441,-0.068416,0.141720
2026-01-23T17:50:30.295524,5.249852,-1.024128,8.494520,0.285884,-0.065973,0.138055
2026-01-23T17:50:30.305524,5.283352,-1.033699,8.551947,0.261450,-0.078190,0.134390
2026-01-23T17:50:30.314524,5.268995,-1.004985,8.551947,0.223576,-0.085521,0.129503
2026-01-23T17:50:30.324524,5.312066,-1.043270,8.489734,0.200363,-0.086742,0.127059
2026-01-23T17:50:30.334524,5.307280,-1.057627,8.542376,0.184481,-0.084299,0.125838
2026-01-23T17:50:30.343524,5.369493,-1.052841,8.585447,0.164933,-0.079412,0.119729
2026-01-23T17:50:30.353524,5.340780,-1.105484,8.518448,0.149051,-0.076969,0.114842
2026-01-23T17:50:30.362524,5.297709,-1.091127,8.523234,0.156381,-0.068416,0.109955
2026-01-23T17:50:30.372524,5.240281,-1.091127,8.551947,0.171042,-0.059864,0.105068
2026-01-23T17:50:30.382524,5.197210,-0.966700,8.556733,0.171042,-0.054977,0.100181
2026-01-23T17:50:30.391524,5.182853,-0.933200,8.590233,0.153938,-0.058643,0.095294
2026-01-23T17:50:30.401524,5.149354,-1.024128,8.575876,0.133168,-0.065973,0.091629
2026-01-23T17:50:30.410524,5.178068,-1.091127,8.461020,0.127059,-0.070860,0.086742
2026-01-23T17:50:30.420524,5.168496,-1.172483,8.556733,0.134390,-0.067195,0.078190
2026-01-23T17:50:30.430524,5.087140,-1.124626,8.518448,0.144164,-0.059864,0.073303
2026-01-23T17:50:30.439524,5.039284,-1.052841,8.480163,0.149051,-0.061086,0.070860
2026-01-23T17:50:30.449524,5.067998,-1.062413,8.537591,0.145385,-0.067195,0.067195
2026-01-23T17:50:30.459524,5.010570,-1.076770,8.528019,0.133168,-0.070860,0.065973
2026-01-23T17:50:30.468524,5.072783,-1.153340,8.561519,0.129503,-0.074525,0.061086
2026-01-23T17:50:30.478524,5.139782,-1.182054,8.456235,0.152716,-0.078190,0.058643
2026-01-23T17:50:30.487524,5.096712,-1.076770,8.523234,0.178372,-0.074525,0.054977
2026-01-23T17:50:30.497524,5.192425,-1.033699,8.575876,0.183259,-0.069638,0.052534
2026-01-23T17:50:30.507524,5.187639,-1.048056,8.542376,0.182037,-0.074525,0.053756
2026-01-23T17:50:30.516524,5.221138,-1.081555,8.623732,0.191811,-0.072082,0.047647
2026-01-23T17:50:30.526524,5.182853,-0.894915,8.666803,0.184481,-0.063529,0.048869
2026-01-23T17:50:30.535524,5.211567,-0.981057,8.638089,0.160046,-0.062308,0.047647
2026-01-23T17:50:30.545524,5.221138,-0.961914,8.642875,0.145385,-0.062308,0.042760
2026-01-23T17:50:30.555524,5.206781,-0.923629,8.714659,0.141720,-0.053756,0.041538
2026-01-23T17:50:30.564524,5.178068,-0.923629,8.757730,0.128281,-0.050090,0.040317
2026-01-23T17:50:30.574524,5.134997,-0.870987,8.638089,0.109955,-0.052534,0.039095
2026-01-23T17:50:30.584524,5.225924,-0.957129,8.705088,0.095294,-0.052534,0.036651
2026-01-23T17:50:30.593524,5.216353,-1.067198,8.609375,0.096516,-0.053756,0.030543
2026-01-23T17:50:30.603524,5.144568,-1.043270,8.551947,0.116064,-0.050090,0.025656
2026-01-23T17:50:30.612524,5.115854,-1.095912,8.676374,0.144164,-0.037873,0.021991
2026-01-23T17:50:30.622524,5.163711,-0.952343,8.575876,0.163711,-0.040317,0.023212
2026-01-23T17:50:30.632524,5.101497,-0.875773,8.590233,0.172263,-0.045204,0.021991
2026-01-23T17:50:30.641524,5.091926,-0.880558,8.647660,0.168598,-0.047647,0.023212
2026-01-23T17:50:30.651524,5.034498,-0.722632,8.633303,0.144164,-0.050090,0.024434
2026-01-23T17:50:30.660524,5.044070,-0.808774,8.690731,0.111177,-0.058643,0.026878
2026-01-23T17:50:30.670524,5.072783,-0.885344,8.719445,0.081855,-0.067195,0.028099
2026-01-23T17:50:30.680524,5.154139,-0.990628,8.700302,0.078190,-0.072082,0.028099
2026-01-23T17:50:30.689524,5.125426,-1.009771,8.733802,0.096516,-0.068416,0.019547
2026-01-23T17:50:30.699524,5.120640,-1.057627,8.652446,0.140498,-0.061086,0.010995
2026-01-23T17:50:30.709524,5.120640,-0.981057,8.705088,0.179594,-0.057421,0.004886
2026-01-23T17:50:30.718524,5.139782,-0.914058,8.681160,0.202807,-0.053756,-0.001221
2026-01-23T17:50:30.728524,5.130211,-0.813559,8.685946,0.221133,-0.046425,-0.006108
2026-01-23T17:50:30.737524,5.120640,-0.746560,8.652446,0.219911,-0.039095,-0.010995
2026-01-23T17:50:30.747524,5.048855,-0.698704,8.662017,0.191811,-0.036651,-0.008552
2026-01-23T17:50:30.757524,5.082355,-0.765703,8.685946,0.158824,-0.045204,-0.004886
2026-01-23T17:50:30.766524,5.053641,-0.842273,8.719445,0.133168,-0.057421,-0.004886
2026-01-23T17:50:30.776524,5.106283,-0.904486,8.676374,0.120951,-0.065973,-0.007330
2026-01-23T17:50:30.785524,5.163711,-1.004985,8.609375,0.123394,-0.065973,-0.008552
2026-01-23T17:50:30.795524,5.134997,-1.158126,8.623732,0.149051,-0.056199,-0.012217
2026-01-23T17:50:30.805524,5.197210,-1.186840,8.571090,0.193033,-0.043982,-0.017104
2026-01-23T17:50:30.814524,5.201996,-1.086341,8.623732,0.234572,-0.034208,-0.024434
2026-01-23T17:50:30.824524,5.187639,-1.043270,8.566304,0.268780,-0.024434,-0.031764
2026-01-23T17:50:30.834524,5.134997,-1.014556,8.604590,0.302989,-0.014660,-0.041538
2026-01-23T17:50:30.843524,5.168496,-0.827916,8.571090,0.328645,-0.007330,-0.050090
2026-01-23T17:50:30.853524,5.106283,-0.799202,8.537591,0.337197,-0.006108,-0.052534
2026-01-23T17:50:30.862524,5.029713,-0.669990,8.556733,0.328645,-0.008552,-0.056199
2026-01-23T17:50:30.872524,5.034498,-0.545563,8.547162,0.318871,-0.014660,-0.062308
2026-01-23T17:50:30.882524,5.000999,-0.459421,8.542376,0.291993,-0.025656,-0.067195
2026-01-23T17:50:30.891524,5.005784,-0.406779,8.623732,0.251676,-0.037873,-0.061086
2026-01-23T17:50:30.901524,5.091926,-0.378065,8.628518,0.218689,-0.047647,-0.058643
2026-01-23T17:50:30.910524,5.063212,-0.344566,8.475377,0.194255,-0.058643,-0.053756
2026-01-23T17:50:30.920524,5.106283,-0.411565,8.494520,0.172263,-0.069638,-0.053756
2026-01-23T17:50:30.930524,5.120640,-0.435493,8.585447,0.162490,-0.072082,-0.069638
2026-01-23T17:50:30.939524,5.182853,-0.492921,8.542376,0.161268,-0.072082,-0.074525
2026-01-23T17:50:30.949524,5.268995,-0.440279,8.518448,0.168598,-0.074525,-0.076969
2026-01-23T17:50:30.959524,5.264209,-0.421136,8.604590,0.184481,-0.070860,-0.085521
2026-01-23T17:50:30.968524,5.273781,-0.334995,8.595018,0.189368,-0.067195,-0.096516
2026-01-23T17:50:30.978524,5.192425,-0.320638,8.561519,0.190589,-0.068416,-0.102625
2026-01-23T17:50:30.987524,5.192425,-0.287138,8.470592,0.191811,-0.076969,-0.114842
2026-01-23T17:50:30.997524,5.216353,-0.287138,8.489734,0.182037,-0.083077,-0.130725
2026-01-23T17:50:31.007524,5.216353,-0.239282,8.475377,0.180816,-0.084299,-0.145385
2026-01-23T17:50:31.016524,5.125426,-0.248853,8.341379,0.197920,-0.081855,-0.157603
2026-01-23T17:50:31.026524,5.144568,-0.196211,8.260023,0.234572,-0.092851,-0.167377
2026-01-23T17:50:31.035524,5.173282,0.014356,8.298308,0.259006,-0.097738,-0.194255
2026-01-23T17:50:31.045524,5.297709,0.177068,8.293523,0.240680,-0.096516,-0.216246
2026-01-23T17:50:31.055524,5.192425,0.306281,8.245666,0.166155,-0.106290,-0.232128
2026-01-23T17:50:31.064524,5.264209,0.267996,8.346165,0.058643,-0.131946,-0.246789
2026-01-23T17:50:31.074524,5.312066,0.090927,8.221738,-0.017104,-0.158824,-0.262671
2026-01-23T17:50:31.084524,5.335994,-0.081355,8.078169,-0.010995,-0.179594,-0.291993
2026-01-23T17:50:31.093524,5.412564,-0.105284,7.977670,0.021991,-0.195476,-0.337197
2026-01-23T17:50:31.103524,5.335994,-0.215354,7.738388,0.089186,-0.213802,-0.389731
2026-01-23T17:50:31.112524,5.369493,-0.124426,7.752745,0.186924,-0.233350,-0.458148
2026-01-23T17:50:31.122524,5.532205,-0.052642,7.733602,0.261450,-0.248011,-0.520457
2026-01-23T17:50:31.132524,5.532205,0.052642,7.542176,0.351858,-0.251676,-0.588873
2026-01-23T17:50:31.141524,5.498706,0.349352,7.479963,0.466700,-0.257785,-0.670729
2026-01-23T17:50:31.151524,5.651846,0.708275,7.379464,0.538783,-0.263893,-0.750142
2026-01-23T17:50:31.160524,5.618347,0.947557,7.389036,0.577878,-0.266337,-0.830776
2026-01-23T17:50:31.170524,5.522634,1.167697,7.307680,0.627969,-0.270002,-0.901636
2026-01-23T17:50:31.180524,5.455635,1.411765,7.307680,0.657290,-0.293215,-0.963945
2026-01-23T17:50:31.189524,5.225924,1.421336,7.144968,0.675616,-0.348193,-1.020144
2026-01-23T17:50:31.199524,5.096712,1.732403,6.829115,0.717155,-0.405614,-1.076344
2026-01-23T17:50:31.209524,5.340780,2.962314,7.068397,0.755029,-0.421496,-1.021366
2026-01-23T17:50:31.218524,5.010570,3.024527,7.034898,0.460592,-0.492357,-1.021366
2026-01-23T17:50:31.228524,4.938785,2.574677,6.910471,0.277332,-0.594982,-1.044579
2026-01-23T17:50:31.237524,5.111069,2.431107,6.872186,0.252898,-0.685390,-1.058018
2026-01-23T17:50:31.247524,5.359922,2.464607,6.987041,0.224798,-0.777020,-1.064127
2026-01-23T17:50:31.257524,5.761916,2.407179,7.211967,0.156381,-0.849102,-1.066570
2026-01-23T17:50:31.266524,5.977270,2.210968,7.106683,0.103847,-0.893084,-1.076344
2026-01-23T17:50:31.276524,6.068198,2.115255,7.106683,0.092851,-0.912632,-1.089783
2026-01-23T17:50:31.285524,6.053841,2.076970,7.020541,0.081855,-0.933401,-1.105665
2026-01-23T17:50:31.295524,6.154339,2.043470,6.996613,0.068416,-0.963945,-1.122770
2026-01-23T17:50:31.305524,6.163911,2.167897,6.939185,0.067195,-0.998153,-1.133765
2026-01-23T17:50:31.314524,6.106483,2.306680,6.699903,0.067195,-1.023809,-1.148426
2026-01-23T17:50:31.324524,6.082555,2.311466,6.819544,0.041538,-1.045801,-1.171639
2026-01-23T17:50:31.334524,6.307480,2.129612,6.963113,0.008552,-1.084896,-1.182634
2026-01-23T17:50:31.343524,6.479763,1.852044,7.044469,0.018325,-1.130100,-1.193630
2026-01-23T17:50:31.353524,6.709474,1.665404,7.135396,0.087964,-1.163087,-1.214399
2026-01-23T17:50:31.362524,6.920042,1.761117,7.082754,0.200363,-1.181413,-1.247386
2026-01-23T17:50:31.372524,7.034898,1.938186,6.958328,0.294436,-1.187521,-1.277929
2026-01-23T17:50:31.382524,7.087540,2.139183,6.814758,0.357966,-1.178969,-1.302364
2026-01-23T17:50:31.391524,7.010970,2.230110,6.781259,0.395840,-1.174082,-1.319468
2026-01-23T17:50:31.401524,6.943971,2.392822,6.671189,0.432492,-1.183856,-1.329242
2026-01-23T17:50:31.410524,6.939185,2.555534,6.695117,0.448374,-1.207069,-1.321912
2026-01-23T17:50:31.420524,7.240681,2.555534,7.226324,0.420275,-1.253495,-1.299920
2026-01-23T17:50:31.430524,7.590033,2.402393,7.355536,0.434935,-1.301142,-1.286481
2026-01-23T17:50:31.439524,8.015955,2.459821,7.125825,0.511904,-1.315803,-1.286481
2026-01-23T17:50:31.449524,8.207381,2.679961,6.972685,0.613308,-1.291368,-1.280373
2026-01-23T17:50:31.459524,8.140382,3.019742,7.010970,0.698829,-1.246164,-1.273042
2026-01-23T17:50:31.468524,7.996813,3.397808,6.958328,0.731816,-1.207069,-1.273042
2026-01-23T17:50:31.478524,7.613961,3.617947,6.809973,0.697607,-1.186300,-1.265712
2026-01-23T17:50:31.487524,7.369893,3.579662,6.790830,0.627969,-1.193630,-1.243721
2026-01-23T17:50:31.497524,7.178467,3.527020,6.527620,0.569326,-1.232725,-1.207069
2026-01-23T17:50:31.507524,7.068397,3.579662,6.451049,0.549778,-1.275486,-1.183856
2026-01-23T17:50:31.516524,7.025327,3.766302,6.173482,0.535117,-1.297477,-1.176526
2026-01-23T17:50:31.526524,6.843472,3.914657,6.010770,0.507018,-1.308473,-1.169195
2026-01-23T17:50:31.535524,6.776473,3.962514,5.991627,0.461814,-1.331685,-1.161865
2026-01-23T17:50:31.545524,6.857829,3.833301,6.072983,0.420275,-1.370781,-1.170417
2026-01-23T17:50:31.555524,7.044469,3.675375,6.005984,0.421496,-1.401324,-1.174082
2026-01-23T17:50:31.564524,7.140182,3.775874,5.809773,0.469144,-1.406211,-1.182634
2026-01-23T17:50:31.574524,6.910471,3.952942,5.350351,0.525343,-1.376889,-1.210734
2026-01-23T17:50:31.584524,6.608976,4.101297,5.254638,0.530230,-1.374446,-1.226617
2026-01-23T17:50:31.593524,6.393621,4.173082,5.206781,0.503352,-1.409876,-1.224173
2026-01-23T17:50:31.603524,6.340979,4.144368,5.158925,0.467922,-1.462411,-1.207069
2026-01-23T17:50:31.612524,6.484549,4.168296,5.168496,0.422718,-1.516167,-1.186300
2026-01-23T17:50:31.622524,7.034898,4.005585,5.862415,0.349414,-1.566258,-1.165530
2026-01-23T17:50:31.632524,7.838886,3.656232,6.159125,0.322536,-1.589471,-1.150869
2026-01-23T17:50:31.641524,8.255237,3.316452,6.082555,0.400727,-1.556484,-1.167974
2026-01-23T17:50:31.651524,8.394021,3.378665,6.173482,0.535117,-1.491732,-1.192408
2026-01-23T17:50:31.660524,8.360522,3.641875,6.139982,0.678060,-1.429424,-1.211956
2026-01-23T17:50:31.670524,8.169096,4.120440,5.991627,0.774576,-1.369559,-1.216843
2026-01-23T17:50:31.680524,8.039883,4.560719,5.814558,0.778242,-1.321912,-1.196073
2026-01-23T17:50:31.689524,7.858029,4.876572,5.484349,0.679282,-1.286481,-1.145982
2026-01-23T17:50:31.699524,7.800601,4.823930,5.374279,0.504574,-1.265712,-1.065348
2026-01-23T17:50:31.709524,7.944171,4.417150,5.608776,0.357966,-1.265712,-0.979827
2026-01-23T17:50:31.718524,8.255237,4.058227,5.776273,0.259006,-1.237612,-0.902858
2026-01-23T17:50:31.728524,8.633303,3.833301,6.403193,0.237015,-1.174082,-0.828333
2026-01-23T17:50:31.737524,8.886943,3.862015,6.680760,0.260228,-1.087339,-0.767246
2026-01-23T17:50:31.747524,8.934799,3.708875,6.561119,0.302989,-0.988379,-0.747698
2026-01-23T17:50:31.757524,8.997012,3.512663,6.762116,0.370184,-0.884532,-0.740368
2026-01-23T17:50:31.766524,9.068797,3.517449,6.905686,0.449596,-0.783129,-0.709825
2026-01-23T17:50:31.776524,9.040083,3.742374,6.900900,0.530230,-0.680503,-0.674395
2026-01-23T17:50:31.785524,9.044869,4.139583,6.805187,0.575434,-0.574213,-0.616973
2026-01-23T17:50:31.795524,9.049655,4.589433,6.939185,0.524122,-0.481361,-0.519235
2026-01-23T17:50:31.805524,9.188438,4.594219,7.015755,0.386066,-0.397062,-0.425162
2026-01-23T17:50:31.814524,9.355936,4.407579,6.972685,0.237015,-0.300545,-0.322536
2026-01-23T17:50:31.824524,9.504291,4.139583,6.996613,0.136833,-0.180816,-0.222354
2026-01-23T17:50:31.834524,9.590432,3.929014,7.097111,0.095294,-0.040317,-0.131946
2026-01-23T17:50:31.843524,9.518648,3.914657,7.097111,0.083077,0.116064,-0.041538
2026-01-23T17:50:31.853524,9.265009,3.972085,6.891329,0.070860,0.274889,0.040317
2026-01-23T17:50:31.862524,8.920442,4.091726,6.833901,0.020769,0.410501,0.136833
2026-01-23T17:50:31.872524,8.700302,4.048655,6.853043,-0.063529,0.504574,0.240680
2026-01-23T17:50:31.882524,8.642875,3.957728,6.561119,-0.139277,0.587652,0.344527
2026-01-23T17:50:31.891524,8.599804,3.823730,6.317051,-0.171042,0.679282,0.414166
2026-01-23T17:50:31.901524,8.556733,3.871586,6.360122,-0.171042,0.788015,0.477696
2026-01-23T17:50:31.910524,8.642875,3.943371,6.565905,-0.150272,0.911410,0.527787
2026-01-23T17:50:31.920524,8.609375,4.039084,6.853043,-0.111177,1.032362,0.572991
2026-01-23T17:50:31.930524,8.762516,4.206582,7.188039,-0.051312,1.150869,0.618195
2026-01-23T17:50:31.939524,8.858229,4.622933,7.379464,0.003665,1.274264,0.662177
2026-01-23T17:50:31.949524,8.690731,5.053641,7.293323,0.003665,1.397659,0.712268
2026-01-23T17:50:31.959524,8.513662,5.321637,7.044469,-0.079412,1.485623,0.775798
2026-01-23T17:50:31.968524,8.389236,5.240281,6.738188,-0.228463,1.540601,0.855211
2026-01-23T17:50:31.978524,8.327022,4.843072,6.838686,-0.375071,1.577253,0.935845
2026-01-23T17:50:31.987524,8.384450,4.445864,6.886543,-0.441044,1.628566,1.004262
2026-01-23T17:50:31.997524,8.317451,4.230510,6.723831,-0.420275,1.705535,1.058018
2026-01-23T17:50:32.007524,8.346165,4.350151,6.757331,-0.366519,1.789834,1.108109
2026-01-23T17:50:32.016524,8.140382,4.512863,6.719045,-0.340862,1.870468,1.149648
2026-01-23T17:50:32.026524,8.092526,4.441078,6.786044,-0.339641,1.924225,1.171639
2026-01-23T17:50:32.035524,8.149953,4.134797,6.891329,-0.306654,1.981646,1.163087
2026-01-23T17:50:32.045524,8.030312,4.043870,6.929614,-0.180816,2.050063,1.163087
2026-01-23T17:50:32.055524,7.786244,4.216153,6.800401,-0.024434,2.127032,1.145982
2026-01-23T17:50:32.064524,7.666603,4.632504,6.896114,0.068416,2.182010,1.130100
2026-01-23T17:50:32.074524,7.365107,4.838287,6.561119,0.102625,2.217440,1.128878
2026-01-23T17:50:32.084524,7.226324,4.938785,6.685546,0.070860,2.233322,1.144761
2026-01-23T17:50:32.093524,6.967899,4.910071,6.632904,0.040317,2.236988,1.166752
2026-01-23T17:50:32.103524,6.853043,4.857429,6.494120,0.034208,2.244318,1.161865
2026-01-23T17:50:32.112524,6.723831,4.867001,6.537191,0.021991,2.246761,1.167974
2026-01-23T17:50:32.122524,6.541976,4.843072,6.498906,0.015882,2.246761,1.169195
2026-01-23T17:50:32.132524,6.226124,4.718646,6.360122,0.061086,2.241874,1.147204
2026-01-23T17:50:32.141524,5.938985,4.699503,6.288337,0.125838,2.225992,1.105665
2026-01-23T17:50:32.151524,5.752345,4.565505,6.278766,0.180816,2.200336,1.064127
2026-01-23T17:50:32.160524,5.527420,4.393222,6.068198,0.274889,2.172236,1.004262
2026-01-23T17:50:32.170524,5.321637,4.278366,6.087340,0.394618,2.160019,0.922406
2026-01-23T17:50:32.180524,5.278566,4.311866,6.216553,0.510683,2.140471,0.841772
2026-01-23T17:50:32.189524,5.178068,4.211367,6.168696,0.609643,2.112371,0.755029
2026-01-23T17:50:32.199524,5.211567,4.096512,6.202196,0.746477,2.081828,0.656069
2026-01-23T17:50:32.209524,5.312066,4.388436,6.331408,0.913854,2.068389,0.580321
2026-01-23T17:50:32.218524,5.125426,4.934000,6.321837,1.053131,2.052506,0.519235
2026-01-23T17:50:32.228524,4.862215,5.407779,6.250052,1.089783,2.017076,0.475253
2026-01-23T17:50:32.237524,4.417150,5.876772,5.996413,1.017701,1.948659,0.458148
2026-01-23T17:50:32.247524,4.268795,6.010770,5.867201,0.866206,1.841147,0.463035
2026-01-23T17:50:32.257524,4.220939,5.986842,5.905486,0.692721,1.737300,0.485026
2026-01-23T17:50:32.266524,4.402793,5.776273,6.053841,0.508239,1.644448,0.500909
2026-01-23T17:50:32.276524,4.350151,5.690132,5.948556,0.379958,1.560149,0.510683
2026-01-23T17:50:32.285524,4.402793,5.647061,6.221338,0.246789,1.440419,0.533896
2026-01-23T17:50:32.295524,4.704289,5.230710,6.398407,0.095294,1.299920,0.557108
2026-01-23T17:50:32.305524,4.814359,4.048655,6.010770,0.004886,1.164308,0.596204
2026-01-23T17:50:32.314524,4.589433,4.737788,5.953342,0.228463,1.109331,0.553443
2026-01-23T17:50:32.324524,4.445864,6.120840,5.680560,0.386066,1.095892,0.442266
2026-01-23T17:50:32.334524,4.197010,6.245266,6.326622,0.106290,0.977384,0.483805
2026-01-23T17:50:32.343524,4.297509,5.024927,6.398407,-0.166155,0.795346,0.516791
2026-01-23T17:50:32.353524,4.421936,4.244867,5.919843,-0.150272,0.708603,0.505796
2026-01-23T17:50:32.362524,4.465006,4.646861,6.063412,-0.073303,0.708603,0.482583
2026-01-23T17:50:32.372524,4.139583,4.838287,6.072983,-0.212581,0.667064,0.488692
2026-01-23T17:50:32.382524,3.976871,4.211367,6.130411,-0.477696,0.535117,0.511904
2026-01-23T17:50:32.391524,4.063012,3.340380,6.202196,-0.618195,0.395840,0.544891
2026-01-23T17:50:32.401524,4.187439,3.129811,6.336194,-0.540004,0.343306,0.548556
2026-01-23T17:50:32.410524,4.086941,3.598805,6.675975,-0.405614,0.329867,0.542448
2026-01-23T17:50:32.420524,3.847658,4.316651,6.862615,-0.366519,0.277332,0.554665
2026-01-23T17:50:32.430524,3.637090,4.929214,7.015755,-0.443488,0.168598,0.575434
2026-01-23T17:50:32.439524,3.656232,5.407779,7.111468,-0.591317,0.052534,0.605978
2026-01-23T17:50:32.449524,3.684946,5.666203,7.278966,-0.825889,-0.053756,0.638964
2026-01-23T17:50:32.459524,3.704089,5.402993,7.412964,-1.115439,-0.171042,0.692721
2026-01-23T17:50:32.468524,3.871586,4.914857,7.499106,-1.406211,-0.304210,0.781907
2026-01-23T17:50:32.478524,4.106083,4.216153,7.642675,-1.620014,-0.420275,0.864984
2026-01-23T17:50:32.487524,4.254438,3.728017,7.355536,-1.712865,-0.488692,0.930958
2026-01-23T17:50:32.497524,4.469792,3.536591,7.326822,-1.728748,-0.513126,0.977384
2026-01-23T17:50:32.507524,4.618147,3.407379,7.374679,-1.798386,-0.514348,1.076344
2026-01-23T17:50:32.516524,4.469792,3.187239,7.192824,-1.901012,-0.493579,1.145982
2026-01-23T17:50:32.526524,4.589433,3.058027,7.341179,-2.030515,-0.482583,1.152091
2026-01-23T17:50:32.535524,4.608576,2.636890,7.144968,-2.193005,-0.493579,1.149648
2026-01-23T17:50:32.545524,4.546362,1.995614,7.106683,-2.291965,-0.524122,1.153313
2026-01-23T17:50:32.555524,4.354937,1.473978,7.183253,-2.293187,-0.558330,1.138652
2026-01-23T17:50:32.564524,4.321437,1.052841,7.518248,-2.235766,-0.604756,1.105665
2026-01-23T17:50:32.574524,4.383651,0.732203,7.791030,-2.179566,-0.659734,1.114217
2026-01-23T17:50:32.584524,4.560719,0.244067,8.121239,-2.050063,-0.693942,1.115439
2026-01-23T17:50:32.593524,4.981856,0.497707,8.532805,-1.762956,-0.656069,1.081231
2026-01-23T17:50:32.603524,5.130211,0.703489,8.867800,-1.618792,-0.590095,1.029918
2026-01-23T17:50:32.612524,5.187639,0.339780,8.896514,-1.595579,-0.559552,0.941954
2026-01-23T17:50:32.622524,5.249852,-0.545563,8.772087,-1.505171,-0.538783,0.823446
2026-01-23T17:50:32.632524,5.283352,-1.392622,8.403592,-1.292590,-0.497244,0.701273
2026-01-23T17:50:32.641524,5.288137,-2.124826,8.312665,-1.031140,-0.448374,0.624304
2026-01-23T17:50:32.651524,5.402993,-3.249453,8.566304,-0.745255,-0.388510,0.572991
2026-01-23T17:50:32.660524,4.914857,-2.737389,6.819544,-0.425162,-0.280997,0.583987
2026-01-23T17:50:32.670524,5.024927,-2.861815,8.480163,-0.397062,-0.426383,0.627969
2026-01-23T17:50:32.680524,5.254638,-2.708675,8.092526,-0.315206,-0.509461,0.599869
2026-01-23T17:50:32.689524,5.742774,-2.215753,8.877371,-0.090408,-0.458148,0.509461
2026-01-23T17:50:32.699524,5.723631,-1.555334,9.064012,0.084299,-0.378736,0.470366
2026-01-23T17:50:32.709524,5.379065,-0.612562,9.097511,0.229685,-0.304210,0.437379
2026-01-23T17:50:32.718524,5.268995,0.478564,9.858429,0.323758,-0.259006,0.375071
2026-01-23T17:50:32.728524,5.335994,1.344766,10.231709,0.272445,-0.235793,0.322536
2026-01-23T17:50:32.737524,5.345565,1.579262,10.102497,0.101403,-0.238237,0.296880
2026-01-23T17:50:32.747524,5.331208,1.234696,10.035497,-0.063529,-0.238237,0.268780
2026-01-23T17:50:32.757524,5.369493,0.559920,9.872786,-0.150272,-0.218689,0.229685
2026-01-23T17:50:32.766524,5.335994,0.157926,9.595218,-0.130725,-0.166155,0.199142
2026-01-23T17:50:32.776524,5.254638,-0.047856,9.494720,-0.076969,-0.111177,0.178372
2026-01-23T17:50:32.785524,5.053641,-0.258424,9.298508,-0.028099,-0.074525,0.162490
2026-01-23T17:50:32.795524,5.000999,-0.416351,9.087940,0.032986,-0.052534,0.140498
2026-01-23T17:50:32.805524,5.000999,-0.516849,8.767302,0.101403,-0.030543,0.100181
2026-01-23T17:50:32.814524,4.900500,-0.497707,8.810372,0.169820,-0.012217,0.101403
2026-01-23T17:50:32.824524,4.747360,-0.468993,8.695517,0.172263,-0.024434,0.125838
2026-01-23T17:50:32.834524,4.790430,-0.397208,8.719445,0.158824,-0.054977,0.135612
2026-01-23T17:50:32.843524,4.780859,-0.445065,8.791230,0.136833,-0.078190,0.142942
2026-01-23T17:50:32.853524,4.900500,-0.488135,8.757730,0.106290,-0.092851,0.160046
2026-01-23T17:50:32.862524,4.890929,-0.612562,8.724231,0.094073,-0.101403,0.173485
2026-01-23T17:50:32.872524,4.972285,-0.579063,8.633303,0.107512,-0.102625,0.162490
2026-01-23T17:50:32.882524,4.914857,-0.626919,8.575876,0.119729,-0.090408,0.150272
2026-01-23T17:50:32.891524,4.957928,-0.914058,8.451449,0.152716,-0.069638,0.134390
2026-01-23T17:50:32.901524,4.924428,-1.138983,8.484948,0.250454,-0.061086,0.133168
2026-01-23T17:50:32.910524,4.867001,-1.220339,8.547162,0.395840,-0.056199,0.120951
2026-01-23T17:50:32.920524,4.938785,-0.909272,8.508877,0.520457,-0.042760,0.107512
2026-01-23T17:50:32.930524,4.938785,-0.746560,8.508877,0.581543,-0.045204,0.109955
2026-01-23T17:50:32.939524,4.957928,-0.497707,8.690731,0.604756,-0.059864,0.103847
2026-01-23T17:50:32.949524,5.044070,-0.334995,8.595018,0.588873,-0.074525,0.107512
2026-01-23T17:50:32.959524,5.106283,-0.138783,8.671589,0.557108,-0.086742,0.116064
2026-01-23T17:50:32.968524,5.235495,0.004785,8.690731,0.511904,-0.092851,0.119729
2026-01-23T17:50:32.978524,5.340780,0.253639,8.599804,0.522900,-0.062308,0.064751
2026-01-23T17:50:32.987524,5.694917,0.780060,9.164510,0.494800,-0.081855,0.073303
2026-01-23T17:50:32.997524,6.029912,1.363908,9.413364,0.318871,-0.114842,0.175929
2026-01-23T17:50:33.007524,6.044269,1.263410,9.116654,0.096516,-0.086742,0.182037
2026-01-23T17:50:33.016524,5.776273,0.617348,9.044869,-0.002443,-0.013439,0.125838
2026-01-23T17:50:33.026524,5.536991,0.258424,9.159724,-0.007330,0.009773,0.145385
2026-01-23T17:50:33.035524,5.508277,0.153140,9.044869,0.014660,-0.007330,0.162490
2026-01-23T17:50:33.045524,5.450849,0.162711,8.906085,0.050090,-0.008552,0.140498
2026-01-23T17:50:33.055524,5.383850,0.258424,8.738588,0.064751,0.002443,0.127059
2026-01-23T17:50:33.064524,5.264209,0.277567,8.714659,0.061086,0.003665,0.119729
2026-01-23T17:50:33.074524,5.268995,0.234496,8.547162,0.061086,-0.003665,0.102625
2026-01-23T17:50:33.084524,5.230710,0.220139,8.484948,0.062308,-0.012217,0.094073
2026-01-23T17:50:33.093524,5.240281,0.220139,8.494520,0.054977,-0.041538,0.111177
2026-01-23T17:50:33.103524,5.283352,0.081355,8.551947,0.024434,-0.058643,0.116064
2026-01-23T17:50:33.112524,5.431707,-0.062213,8.413164,0.036651,-0.067195,0.102625
2026-01-23T17:50:33.122524,5.498706,-0.066999,8.499305,0.062308,-0.064751,0.084299
2026-01-23T17:50:33.132524,5.479563,-0.076570,8.432306,0.108733,-0.047647,0.068416
2026-01-23T17:50:33.141524,5.474778,0.095712,8.523234,0.144164,-0.043982,0.056199
2026-01-23T17:50:33.151524,5.522634,0.344566,8.475377,0.139277,-0.050090,0.045204
2026-01-23T17:50:33.160524,5.541777,0.488135,8.374879,0.140498,-0.057421,0.036651
2026-01-23T17:50:33.170524,5.383850,0.626919,8.183453,0.129503,-0.063529,0.026878
2026-01-23T17:50:33.180524,5.388636,0.760917,8.078169,0.134390,-0.078190,0.006108
2026-01-23T17:50:33.189524,5.278566,1.024128,7.948956,0.127059,-0.113620,-0.015882
2026-01-23T17:50:33.199524,5.465206,1.143769,8.135596,0.058643,-0.153938,-0.051312
2026-01-23T17:50:33.209524,5.556134,1.071984,8.149953,-0.020769,-0.172263,-0.072082
2026-01-23T17:50:33.218524,5.790630,0.914058,8.322237,-0.063529,-0.158824,-0.109955
2026-01-23T17:50:33.228524,5.862415,0.861416,8.432306,-0.064751,-0.124616,-0.146607
2026-01-23T17:50:33.237524,5.919843,0.990628,8.690731,-0.100181,-0.109955,-0.173485
2026-01-23T17:50:33.247524,5.895914,0.866201,8.609375,-0.244346,-0.101403,-0.173485
2026-01-23T17:50:33.257524,5.929414,0.708275,9.073583,-0.343306,-0.095294,-0.166155
2026-01-23T17:50:33.266524,6.077769,0.837487,9.164510,-0.370184,-0.051312,-0.188146
2026-01-23T17:50:33.276524,6.096911,0.961914,9.054440,-0.419053,-0.017104,-0.194255
2026-01-23T17:50:33.285524,5.924628,0.928415,9.087940,-0.520457,-0.004886,-0.180816
2026-01-23T17:50:33.295524,5.848058,0.636490,8.886943,-0.577878,0.007330,-0.196698
2026-01-23T17:50:33.305524,5.752345,0.483350,8.824729,-0.594982,0.029321,-0.240680
2026-01-23T17:50:33.314524,5.647061,0.124426,8.676374,-0.609643,0.043982,-0.271224
2026-01-23T17:50:33.324524,5.560919,-0.363709,8.523234,-0.557108,0.054977,-0.296880
2026-01-23T17:50:33.334524,5.513063,-0.473778,8.398807,-0.427605,0.076969,-0.344527
2026-01-23T17:50:33.343524,5.460421,-0.387637,8.298308,-0.285884,0.108733,-0.401949
2026-01-23T17:50:33.353524,5.254638,-0.210568,8.255237,-0.202807,0.117286,-0.458148
2026-01-23T17:50:33.362524,5.087140,-0.095712,8.130811,-0.128281,0.109955,-0.509461
2026-01-23T17:50:33.372524,4.919643,0.172283,8.049455,-0.076969,0.089186,-0.543669
2026-01-23T17:50:33.382524,4.948357,0.325423,7.996813,-0.065973,0.052534,-0.572991
2026-01-23T17:50:33.391524,4.924428,0.512064,7.891528,-0.084299,0.014660,-0.599869
2026-01-23T17:50:33.401524,5.106283,0.497707,7.910671,-0.119729,-0.013439,-0.624304
2026-01-23T17:50:33.410524,5.154139,0.387637,7.814958,-0.118507,-0.024434,-0.651182
2026-01-23T17:50:33.420524,5.149354,0.430708,7.920242,-0.095294,-0.036651,-0.667064
2026-01-23T17:50:33.430524,5.225924,0.564706,7.805387,-0.070860,-0.053756,-0.698829
2026-01-23T17:50:33.439524,5.273781,0.693918,7.901100,-0.056199,-0.070860,-0.737925
2026-01-23T17:50:33.449524,5.402993,0.923629,7.953742,-0.096516,-0.097738,-0.759916
2026-01-23T17:50:33.459524,5.422136,0.976271,7.829315,-0.169820,-0.131946,-0.783129
2026-01-23T17:50:33.468524,5.498706,0.885344,7.810172,-0.229685,-0.155159,-0.808785
2026-01-23T17:50:33.478524,5.503491,0.641276,7.709674,-0.249232,-0.168598,-0.844215
2026-01-23T17:50:33.487524,5.527420,0.717846,7.508677,-0.215024,-0.183259,-0.891863
2026-01-23T17:50:33.497524,5.522634,0.832702,7.345965,-0.171042,-0.211359,-0.946840
2026-01-23T17:50:33.507524,5.522634,1.043270,7.207181,-0.138055,-0.240680,-1.010370
2026-01-23T17:50:33.516524,5.599204,1.119840,6.924828,-0.114842,-0.261450,-1.086118
2026-01-23T17:50:33.526524,5.565705,1.191625,6.733402,-0.081855,-0.295658,-1.170417
2026-01-23T17:50:33.535524,5.613561,1.268195,6.431907,-0.024434,-0.342084,-1.260825
2026-01-23T17:50:33.545524,5.637490,1.263410,6.202196,0.072082,-0.382401,-1.368337
2026-01-23T17:50:33.555524,5.670989,1.244267,5.948556,0.215024,-0.414166,-1.491732
2026-01-23T17:50:33.564524,5.656632,1.330409,5.766702,0.375071,-0.453261,-1.626122
2026-01-23T17:50:33.574524,5.651846,1.483550,5.450849,0.548556,-0.500909,-1.761734
2026-01-23T17:50:33.584524,5.484349,1.737189,5.321637,0.725707,-0.560774,-1.903455
2026-01-23T17:50:33.593524,5.197210,2.244467,5.034498,0.840550,-0.678060,-2.013411
2026-01-23T17:50:33.603524,4.991427,2.756531,4.579862,0.853989,-0.841772,-2.102597
2026-01-23T17:50:33.612524,5.091926,3.105883,4.096512,0.808785,-1.014036,-2.184453
2026-01-23T17:50:33.622524,5.120640,3.388236,3.823730,0.697607,-1.186300,-2.232101
2026-01-23T17:50:33.632524,5.240281,3.637090,3.589233,0.489913,-1.357342,-2.240653
2026-01-23T17:50:33.641524,5.379065,3.852444,3.273381,0.272445,-1.517388,-2.223549
2026-01-23T17:50:33.651524,5.556134,4.283152,3.144168,-0.023212,-1.643227,-2.161240
2026-01-23T17:50:33.660524,5.718846,4.254438,2.914457,-0.476474,-1.811825,-2.083050
2026-01-23T17:50:33.670524,5.929414,3.488735,2.794816,-0.935845,-2.004859,-2.034180
2026-01-23T17:50:33.680524,6.455835,2.421536,2.957528,-1.236390,-2.201557,-1.998750
2026-01-23T17:50:33.689524,7.063612,1.655833,2.895315,-1.373224,-2.403143,-1.941329
2026-01-23T17:50:33.699524,7.551748,1.253839,2.852244,-1.430646,-2.596176,-1.868025
2026-01-23T17:50:33.709524,8.135596,1.004985,2.727817,-1.459967,-2.785544,-1.795943
2026-01-23T17:50:33.718524,8.671589,0.933200,2.043470,-1.457524,-2.940704,-1.762956
2026-01-23T17:50:33.728524,8.877371,0.756131,1.378265,-1.374446,-3.003012,-1.776395
2026-01-23T17:50:33.737524,8.590233,0.267996,2.014756,-1.147204,-3.053103,-1.750739
2026-01-23T17:50:33.747524,7.666603,2.651247,-1.861615,-0.779463,-3.134959,-1.767843
2026-01-23T17:50:33.757524,8.623732,4.421936,0.320638,-1.114217,-3.419622,-1.511280
2026-01-23T17:50:33.766524,10.643274,4.800002,1.584048,-1.865582,-3.643199,-1.213178
2026-01-23T17:50:33.776524,13.251451,4.153940,1.770688,-2.646267,-3.635869,-0.957836
2026-01-23T17:50:33.785524,14.529218,3.043670,1.765903,-3.408627,-3.486818,-0.538783
2026-01-23T17:50:33.795524,13.959727,1.483550,1.253839,-4.054922,-3.404962,-0.083077
2026-01-23T17:50:33.805524,12.495319,0.296710,1.119840,-4.579044,-3.474600,0.139277
2026-01-23T17:50:33.814524,11.782258,-1.569691,0.531206,-5.116606,-3.689625,-0.013439
2026-01-23T17:50:33.824524,12.370892,-3.148954,-0.205782,-5.287648,-4.018270,-0.180816
2026-01-23T17:50:33.834524,13.777872,-4.536791,-0.468993,-5.045745,-4.175873,-0.290771
2026-01-23T17:50:33.843524,15.060425,-4.297509,-0.282353,-4.601036,-3.920532,-0.522900
2026-01-23T17:50:33.853524,15.572489,-3.948157,0.339780,-4.078135,-3.387857,-0.873537
2026-01-23T17:50:33.862524,14.916856,-3.627519,1.215553,-3.644421,-2.927265,-1.154535
2026-01-23T17:50:33.872524,13.835300,-3.072384,1.746760,-3.348762,-2.715906,-1.387885
2026-01-23T17:50:33.882524,13.127024,-2.641676,1.694118,-3.150842,-2.703688,-1.598023
2026-01-23T17:50:33.891524,13.079168,-2.292324,1.430907,-3.029890,-2.758666,-1.764178
2026-01-23T17:50:33.901524,13.222737,-2.105683,1.067198,-2.926043,-2.755001,-1.882686
2026-01-23T17:50:33.910524,13.165309,-1.976471,0.760917,-2.798983,-2.673145,-1.980424
2026-01-23T17:50:33.920524,12.897313,-1.579262,0.856630,-2.667037,-2.580294,-2.069610
2026-01-23T17:50:33.930524,12.662817,-1.100698,0.942772,-2.631606,-2.546085,-2.145358
2026-01-23T17:50:33.939524,12.557533,-1.009771,0.808774,-2.664593,-2.566855,-2.197892
2026-01-23T17:50:33.949524,12.567104,-1.028913,0.306281,-2.733010,-2.637715,-2.195449
2026-01-23T17:50:33.959524,12.643674,-0.914058,-0.181854,-2.773327,-2.680476,-2.179566
2026-01-23T17:50:33.968524,12.753744,-0.770488,-0.234496,-2.778214,-2.654819,-2.172236
2026-01-23T17:50:33.978524,12.801600,-0.555134,-0.095712,-2.822196,-2.629163,-2.142914
2026-01-23T17:50:33.987524,12.949955,-0.521635,0.023928,-2.910161,-2.638937,-2.111149
2026-01-23T17:50:33.997524,13.150953,-0.598205,-0.028713,-3.000569,-2.657263,-2.085493
2026-01-23T17:50:34.007524,13.481162,-0.803988,0.014356,-3.071429,-2.673145,-2.052506
2026-01-23T17:50:34.016524,13.749158,-1.162911,-0.057427,-3.141068,-2.678032,-2.008524
2026-01-23T17:50:34.026524,14.050654,-1.502692,-0.100498,-3.152063,-2.660928,-1.960877
2026-01-23T17:50:34.035524,14.294722,-1.607976,0.004785,-3.142290,-2.625498,-1.896125
2026-01-23T17:50:34.045524,14.352149,-1.928615,-0.081355,-3.131294,-2.580294,-1.815491
2026-01-23T17:50:34.055524,14.347364,-2.301895,-0.224925,-3.064099,-2.522872,-1.721417
2026-01-23T17:50:34.064524,14.242080,-2.550748,-0.387637,-2.952921,-2.445903,-1.600466
2026-01-23T17:50:34.074524,14.146367,-2.565105,-0.449850,-2.794097,-2.322509,-1.466076
2026-01-23T17:50:34.084524,13.974083,-2.498106,-0.354137,-2.571742,-2.163684,-1.332907
2026-01-23T17:50:34.093524,13.801800,-2.014756,-0.224925,-2.332282,-2.013411,-1.215621
2026-01-23T17:50:34.103524,13.462019,-1.440479,-0.258424,-2.144136,-1.869247,-1.098335
2026-01-23T17:50:34.112524,13.055240,-0.890130,-0.210568,-1.986533,-1.728748,-0.979827
2026-01-23T17:50:34.122524,12.562318,-0.550349,-0.119641,-1.858251,-1.596801,-0.857654
2026-01-23T17:50:34.132524,12.074182,-0.090927,0.248853,-1.749517,-1.466076,-0.733038
2026-01-23T17:50:34.141524,11.552547,0.215354,0.598205,-1.703091,-1.363450,-0.607199
2026-01-23T17:50:34.151524,11.021340,0.138783,0.765703,-1.703091,-1.308473,-0.496022
2026-01-23T17:50:34.160524,10.791629,0.038285,0.995414,-1.726304,-1.319468,-0.388510
2026-01-23T17:50:34.170524,10.767701,-0.267996,0.923629,-1.760513,-1.341459,-0.282219
2026-01-23T17:50:34.180524,10.839486,-0.669990,0.990628,-1.778839,-1.323133,-0.178372
2026-01-23T17:50:34.189524,10.849057,-1.062413,1.076770,-1.738522,-1.263269,-0.086742
2026-01-23T17:50:34.199524,10.753344,-1.349551,1.153340,-1.653000,-1.174082,0.003665
2026-01-23T17:50:34.209524,10.542776,-1.383051,1.253839,-1.543045,-1.080009,0.080634
2026-01-23T17:50:34.218524,10.365707,-1.459621,1.325623,-1.437976,-1.015257,0.139277
2026-01-23T17:50:34.228524,10.121639,-1.507478,1.440479,-1.332907,-0.945619,0.191811
2026-01-23T17:50:34.237524,9.949356,-1.550549,1.411765,-1.210734,-0.888197,0.245567
2026-01-23T17:50:34.247524,9.786644,-1.502692,1.569691,-1.070235,-0.851545,0.301767
2026-01-23T17:50:34.257524,9.844072,-0.957129,1.875972,-0.940732,-0.814894,0.379958
2026-01-23T17:50:34.266524,9.767501,-0.516849,2.062613,-0.899193,-0.781907,0.463035
2026-01-23T17:50:34.276524,9.796215,-0.459421,2.134397,-0.875980,-0.759916,0.538783
2026-01-23T17:50:34.285524,9.906285,-0.287138,2.478964,-0.803898,-0.740368,0.621860
2026-01-23T17:50:34.295524,10.021141,0.133998,2.703889,-0.722042,-0.697607,0.702494
2026-01-23T17:50:34.305524,10.102497,0.559920,2.861815,-0.674395,-0.632856,0.773355
2026-01-23T17:50:34.314524,10.202995,0.756131,2.938386,-0.658512,-0.564439,0.830776
2026-01-23T17:50:34.324524,10.289137,0.708275,3.120240,-0.651182,-0.498465,0.888197
2026-01-23T17:50:34.334524,10.269994,0.622133,3.349951,-0.608421,-0.448374,0.934623
2026-01-23T17:50:34.343524,10.442277,0.636490,3.249453,-0.524122,-0.401949,0.976162
2026-01-23T17:50:34.353524,10.447063,0.760917,3.306880,-0.433714,-0.324980,1.018923
2026-01-23T17:50:34.362524,10.571490,0.942772,3.359522,-0.339641,-0.215024,1.062905
2026-01-23T17:50:34.372524,10.432706,1.244267,3.230310,-0.249232,-0.103847,1.080009
2026-01-23T17:50:34.382524,10.303494,1.550549,3.163311,-0.189368,-0.007330,1.099557
2026-01-23T17:50:34.391524,10.269994,1.751546,3.388236,-0.140498,0.067195,1.125213
2026-01-23T17:50:34.401524,10.145567,2.005185,3.373879,-0.096516,0.120951,1.132543
2026-01-23T17:50:34.410524,10.164710,2.038684,3.412165,-0.074525,0.190589,1.127656
2026-01-23T17:50:34.420524,10.040283,2.014756,3.407379,-0.046425,0.270002,1.128878
2026-01-23T17:50:34.430524,9.906285,2.053041,3.507877,0.019547,0.346971,1.120326
2026-01-23T17:50:34.439524,9.872786,2.148754,3.751945,0.091629,0.387288,1.109331
2026-01-23T17:50:34.449524,9.824929,2.349751,3.751945,0.146607,0.390953,1.091005
2026-01-23T17:50:34.459524,9.978070,2.383251,3.651447,0.188146,0.388510,1.056796
2026-01-23T17:50:34.468524,10.174281,2.325823,3.656232,0.256563,0.404392,1.015257
2026-01-23T17:50:34.478524,10.269994,2.569891,3.617947,0.368962,0.449596,0.978605
2026-01-23T17:50:34.487524,10.222138,3.029313,3.594019,0.471587,0.526565,0.941954
2026-01-23T17:50:34.497524,10.083354,3.215953,3.627519,0.519235,0.601091,0.880867
2026-01-23T17:50:34.507524,9.930213,3.206382,3.613162,0.521678,0.634077,0.813672
2026-01-23T17:50:34.516524,9.762716,3.077169,3.527020,0.532674,0.630412,0.758694
2026-01-23T17:50:34.526524,9.868000,2.909672,3.503092,0.583987,0.614530,0.709825
2026-01-23T17:50:34.535524,9.982855,2.761317,3.483949,0.658512,0.619417,0.659734
2026-01-23T17:50:34.545524,10.126425,2.565105,3.464807,0.742811,0.651182,0.605978
2026-01-23T17:50:34.555524,10.126425,2.349751,3.493520,0.833220,0.685390,0.557108
2026-01-23T17:50:34.564524,10.193424,2.440679,3.517449,0.916297,0.706160,0.530230
2026-01-23T17:50:34.574524,10.250852,2.651247,3.383451,0.971275,0.724486,0.502131
2026-01-23T17:50:34.584524,10.298708,2.952743,3.278166,0.970053,0.745255,0.474031
2026-01-23T17:50:34.593524,10.346564,3.014956,3.230310,0.933401,0.773355,0.434935
2026-01-23T17:50:34.603524,10.403992,2.947957,3.096312,0.890641,0.788015,0.387288
2026-01-23T17:50:34.612524,10.437492,2.780459,3.000599,0.838106,0.797789,0.354301
2026-01-23T17:50:34.622524,10.561918,2.373680,2.909672,0.791681,0.810007,0.329867
2026-01-23T17:50:34.632524,10.695917,1.952543,2.947957,0.759916,0.828333,0.313984
2026-01-23T17:50:34.641524,10.710273,1.387837,2.947957,0.746477,0.860098,0.309097
2026-01-23T17:50:34.651524,10.624132,0.885344,2.818745,0.753807,0.905302,0.309097
2026-01-23T17:50:34.660524,10.542776,0.244067,2.718246,0.801455,0.954171,0.307876
2026-01-23T17:50:34.670524,10.432706,-0.239282,2.507678,0.911410,0.988379,0.290771
2026-01-23T17:50:34.680524,10.418349,-0.574277,2.431107,1.073900,1.012814,0.272445
2026-01-23T17:50:34.689524,10.485348,-0.550349,2.330609,1.248608,1.045801,0.259006
2026-01-23T17:50:34.699524,10.518848,-0.411565,2.455035,1.370781,1.100778,0.256563
2026-01-23T17:50:34.709524,10.609775,-0.258424,2.636890,1.433089,1.144761,0.260228
2026-01-23T17:50:34.718524,10.705488,-0.129212,2.440679,1.456302,1.161865,0.272445
2026-01-23T17:50:34.728524,10.877771,-0.090927,2.335394,1.456302,1.175304,0.298102
2026-01-23T17:50:34.737524,11.030912,-0.157926,2.335394,1.442863,1.218065,0.335975
2026-01-23T17:50:34.747524,11.126625,-0.373280,2.292324,1.433089,1.281595,0.379958
2026-01-23T17:50:34.757524,11.069197,-0.516849,2.167897,1.424537,1.335351,0.437379
2026-01-23T17:50:34.766524,11.040483,-0.708275,2.053041,1.407433,1.376889,0.503352
2026-01-23T17:50:34.776524,11.040483,-1.095912,1.942971,1.406211,1.409876,0.570548
2026-01-23T17:50:34.785524,11.021340,-1.282552,1.861615,1.437976,1.415985,0.629191
2026-01-23T17:50:34.795524,11.069197,-1.473978,1.775474,1.474628,1.418428,0.679282
2026-01-23T17:50:34.805524,11.184052,-1.636690,1.737189,1.527162,1.450193,0.724486
2026-01-23T17:50:34.814524,11.121839,-1.684547,1.560120,1.604131,1.501506,0.755029
2026-01-23T17:50:34.824524,11.045269,-1.785045,1.497906,1.685987,1.555262,0.772133
2026-01-23T17:50:34.834524,10.863414,-1.813759,1.536192,1.762956,1.583362,0.795346
2026-01-23T17:50:34.843524,10.935199,-1.789831,1.655833,1.820378,1.574810,0.808785
2026-01-23T17:50:34.853524,11.064411,-1.670190,1.517049,1.866803,1.549153,0.821002
2026-01-23T17:50:34.862524,11.169695,-1.507478,1.536192,1.903455,1.541823,0.834441
2026-01-23T17:50:34.872524,11.236694,-1.445264,1.416550,1.930333,1.572366,0.853989
2026-01-23T17:50:34.882524,11.097911,-1.440479,1.421336,1.938885,1.627344,0.880867
2026-01-23T17:50:34.891524,10.633703,-1.440479,1.440479,1.959655,1.672548,0.917519
2026-01-23T17:50:34.901524,10.202995,-1.335195,1.660618,1.948659,1.678657,0.973718
2026-01-23T17:50:34.910524,9.906285,-1.354337,1.751546,1.886351,1.638340,1.022588
2026-01-23T17:50:34.920524,9.690931,-1.411765,1.727617,1.803273,1.566258,1.080009
2026-01-23T17:50:34.930524,9.705288,-1.536192,1.770688,1.718974,1.501506,1.130100
2026-01-23T17:50:34.939524,9.667003,-1.746760,1.871187,1.662774,1.464854,1.170417
2026-01-23T17:50:34.949524,9.647860,-1.986042,1.976471,1.640783,1.431867,1.193630
2026-01-23T17:50:34.959524,9.772287,-2.105683,2.076970,1.646892,1.398881,1.204625
2026-01-23T17:50:34.968524,9.829715,-2.158325,2.167897,1.666440,1.367116,1.208291
2026-01-23T17:50:34.978524,9.954142,-2.335394,2.263610,1.690874,1.319468,1.205847
2026-01-23T17:50:34.987524,10.145567,-2.292324,2.330609,1.718974,1.275486,1.210734
2026-01-23T17:50:34.997524,10.169496,-2.254038,2.277967,1.759291,1.242499,1.230282
2026-01-23T17:50:35.007524,10.231709,-2.148754,2.273181,1.813047,1.227838,1.222951
2026-01-23T17:50:35.016524,10.269994,-1.990828,2.378465,1.852143,1.241277,1.226617
2026-01-23T17:50:35.026524,10.289137,-1.919043,2.617747,1.833817,1.260825,1.252273
2026-01-23T17:50:35.035524,10.073783,-1.938186,2.651247,1.786169,1.273042,1.293812
2026-01-23T17:50:35.045524,9.791430,-1.751546,2.622533,1.731191,1.258382,1.341459
2026-01-23T17:50:35.055524,9.638289,-1.517049,2.799602,1.645670,1.215621,1.409876
2026-01-23T17:50:35.064524,9.580861,-1.368694,2.876172,1.519832,1.147204,1.491732
2026-01-23T17:50:35.074524,9.585647,-1.124626,2.842673,1.395215,1.072679,1.569923
2026-01-23T17:50:35.084524,9.571290,-1.071984,2.885744,1.257160,1.026253,1.642005
2026-01-23T17:50:35.093524,9.418149,-1.134197,2.895315,1.138652,0.994488,1.699426
2026-01-23T17:50:35.103524,9.164510,-1.253839,3.081955,1.042135,0.956614,1.765400
2026-01-23T17:50:35.112524,8.920442,-1.402194,3.196810,0.962723,0.907745,1.820378
2026-01-23T17:50:35.122524,8.810372,-1.517049,3.211167,0.900415,0.840550,1.855808
2026-01-23T17:50:35.132524,8.681160,-1.646261,3.388236,0.824667,0.773355,1.886351
2026-01-23T17:50:35.141524,8.714659,-1.904686,3.474378,0.748920,0.698829,1.904677
2026-01-23T17:50:35.151524,8.762516,-2.129612,3.541377,0.703716,0.618195,1.916894
2026-01-23T17:50:35.160524,8.953942,-2.210968,3.694518,0.669508,0.541226,1.932777
2026-01-23T17:50:35.170524,9.068797,-2.330609,3.680161,0.663399,0.475253,1.909564
2026-01-23T17:50:35.180524,9.231509,-2.445464,3.771088,0.686612,0.431270,1.876577
2026-01-23T17:50:35.189524,9.231509,-2.344966,3.952942,0.704938,0.419053,1.847256
2026-01-23T17:50:35.199524,9.145367,-2.378465,4.134797,0.707381,0.414166,1.800830
2026-01-23T17:50:35.209524,9.044869,-2.158325,4.240081,0.682947,0.386066,1.773952
2026-01-23T17:50:35.218524,8.800801,-2.043470,4.297509,0.619417,0.344527,1.771508
2026-01-23T17:50:35.228524,8.662017,-2.067398,4.292723,0.532674,0.305432,1.749517
2026-01-23T17:50:35.237524,8.571090,-2.196611,4.297509,0.450818,0.256563,1.723861
2026-01-23T17:50:35.247524,8.461020,-2.163111,4.345365,0.366519,0.215024,1.712865
2026-01-23T17:50:35.257524,8.279166,-2.316252,4.455435,0.267558,0.188146,1.696983
2026-01-23T17:50:35.266524,8.106882,-2.512463,4.335794,0.189368,0.171042,1.670105
2026-01-23T17:50:35.276524,7.910671,-2.651247,4.455435,0.129503,0.147829,1.633453
2026-01-23T17:50:35.285524,7.762316,-3.024527,4.670789,0.063529,0.109955,1.602910
2026-01-23T17:50:35.295524,7.580461,-3.455235,4.603790,0.026878,0.050090,1.563814
2026-01-23T17:50:35.305524,7.542176,-3.790230,4.579862,0.069638,-0.013439,1.506393
2026-01-23T17:50:35.314524,7.661817,-3.670589,4.785645,0.155159,-0.052534,1.451415
2026-01-23T17:50:35.324524,7.575676,-3.321237,5.010570,0.188146,-0.047647,1.408654
2026-01-23T17:50:35.334524,7.422535,-3.311666,4.972285,0.179594,-0.043982,1.343903
2026-01-23T17:50:35.343524,7.197610,-3.335594,5.005784,0.191811,-0.065973,1.281595
2026-01-23T17:50:35.353524,7.106683,-3.306880,5.163711,0.178372,-0.095294,1.230282
2026-01-23T17:50:35.362524,6.934399,-3.402593,5.111069,0.155159,-0.109955,1.183856
2026-01-23T17:50:35.372524,6.733402,-3.498306,5.201996,0.145385,-0.125838,1.143539
2026-01-23T17:50:35.382524,6.623332,-3.756731,5.388636,0.138055,-0.158824,1.116661
2026-01-23T17:50:35.391524,6.546762,-3.885943,5.398207,0.173485,-0.204028,1.081231
2026-01-23T17:50:35.401524,6.661618,-3.838087,5.680560,0.224798,-0.237015,1.042135
2026-01-23T17:50:35.410524,6.661618,-3.732803,5.776273,0.240680,-0.251676,1.003040
2026-01-23T17:50:35.420524,6.690331,-3.795016,5.967699,0.254119,-0.259006,0.955393
2026-01-23T17:50:35.430524,6.680760,-3.665804,6.154339,0.272445,-0.255341,0.902858
2026-01-23T17:50:35.439524,6.565905,-3.646661,6.235695,0.262671,-0.243124,0.856432
2026-01-23T17:50:35.449524,6.551548,-3.847658,6.216553,0.238237,-0.243124,0.816115
2026-01-23T17:50:35.459524,6.565905,-4.192225,6.293123,0.243124,-0.259006,0.785572
2026-01-23T17:50:35.468524,6.642475,-4.335794,6.451049,0.279776,-0.270002,0.755029
2026-01-23T17:50:35.478524,6.824330,-4.493720,6.647261,0.343306,-0.267558,0.722042
2026-01-23T17:50:35.487524,6.786044,-4.527220,6.661618,0.425162,-0.254119,0.689055
2026-01-23T17:50:35.497524,6.814758,-4.431507,6.628118,0.524122,-0.227241,0.652403
2026-01-23T17:50:35.507524,6.762116,-4.287938,6.675975,0.629191,-0.195476,0.610865
2026-01-23T17:50:35.516524,6.675975,-3.967299,6.690331,0.702494,-0.161268,0.571769
2026-01-23T17:50:35.526524,6.374479,-3.780659,6.747759,0.736703,-0.146607,0.542448
2026-01-23T17:50:35.535524,6.317051,-3.665804,6.790830,0.753807,-0.151494,0.516791
2026-01-23T17:50:35.545524,6.317051,-3.622733,6.853043,0.748920,-0.164933,0.504574
2026-01-23T17:50:35.555524,6.264409,-3.689732,6.891329,0.737925,-0.183259,0.499687
2026-01-23T17:50:35.564524,6.312266,-3.804587,6.900900,0.753807,-0.195476,0.494800
2026-01-23T17:50:35.574524,6.369693,-3.842873,6.862615,0.795346,-0.199142,0.481361
2026-01-23T17:50:35.584524,6.503691,-3.986442,6.781259,0.860098,-0.201585,0.464257
2026-01-23T17:50:35.593524,6.498906,-4.043870,6.733402,0.954171,-0.201585,0.444709
2026-01-23T17:50:35.603524,6.551548,-3.895515,6.824330,1.064127,-0.194255,0.414166
2026-01-23T17:50:35.612524,6.656832,-3.608376,6.757331,1.172861,-0.188146,0.379958
2026-01-23T17:50:35.622524,6.728617,-3.359522,6.800401,1.266934,-0.174707,0.365297
2026-01-23T17:50:35.632524,6.656832,-2.852244,6.881757,1.341459,-0.174707,0.345749
2026-01-23T17:50:35.641524,6.647261,-2.316252,6.876972,1.352455,-0.180816,0.316428
2026-01-23T17:50:35.651524,6.723831,-1.871187,6.987041,1.292590,-0.202807,0.305432
2026-01-23T17:50:35.660524,6.781259,-1.737189,6.963113,1.182634,-0.229685,0.294436
2026-01-23T17:50:35.670524,6.972685,-1.775474,6.853043,1.078787,-0.257785,0.290771
2026-01-23T17:50:35.680524,7.211967,-1.837687,6.891329,0.998153,-0.265115,0.285884
2026-01-23T17:50:35.689524,7.302894,-1.899901,6.781259,0.950506,-0.249232,0.274889
2026-01-23T17:50:35.699524,7.427321,-2.043470,6.776473,0.940732,-0.208915,0.252898
2026-01-23T17:50:35.709524,7.436892,-2.024327,6.876972,0.950506,-0.163711,0.228463
2026-01-23T17:50:35.718524,7.403393,-2.009970,6.814758,0.977384,-0.136833,0.200363
2026-01-23T17:50:35.728524,7.441678,-1.761117,6.829115,1.003040,-0.122173,0.173485
2026-01-23T17:50:35.737524,7.475177,-1.402194,6.790830,1.015257,-0.086742,0.146607
2026-01-23T17:50:35.747524,7.456035,-1.033699,6.838686,0.999375,-0.037873,0.118507
2026-01-23T17:50:35.757524,7.412964,-0.760917,6.900900,0.917519,-0.004886,0.097738
2026-01-23T17:50:35.766524,4.613361,1.674975,1.847259,0.403170,-0.223576,0.163711
2026-01-23T17:50:35.776524,7.135396,-1.718046,14.624931,-0.404392,-1.216843,0.516791
2026-01-23T17:50:35.785524,11.136196,0.899701,2.689532,0.282219,-0.447153,0.266337
2026-01-23T17:50:35.795524,7.771887,-3.565305,5.259424,0.496022,0.667064,0.037873
2026-01-23T17:50:35.805524,6.312266,-0.679561,9.925428,0.722042,0.580321,0.096516
2026-01-23T17:50:35.814524,7.092326,-2.938386,4.613361,0.719599,-0.030543,0.204028
2026-01-23T17:50:35.824524,7.920242,-1.957328,6.317051,1.029918,-0.199142,0.190589
2026-01-23T17:50:35.834524,6.771687,-0.373280,7.724031,1.100778,-0.076969,0.183259
2026-01-23T17:50:35.843524,5.192425,-0.564706,7.647461,1.292590,-0.213802,0.340862
2026-01-23T17:50:35.853524,5.407779,-7.479963,3.723231,0.830776,-0.805120,0.814894
2026-01-23T17:50:35.862524,8.432306,1.143769,10.638489,1.076344,-0.849102,2.250427
2026-01-23T17:50:35.872524,7.403393,-2.411965,4.656432,0.488692,-0.621860,2.588846
2026-01-23T17:50:35.882524,7.106683,-2.574677,6.197410,0.381179,-0.643851,1.997528
2026-01-23T17:50:35.891524,7.958527,-1.282552,6.714260,0.445931,-0.643851,1.098335
2026-01-23T17:50:35.901524,7.968099,-1.158126,5.599204,0.362853,-0.548556,0.476474
2026-01-23T17:50:35.910524,7.762316,-1.306481,5.915057,0.290771,-0.397062,0.386066
2026-01-23T17:50:35.920524,7.159325,-1.052841,6.020341,0.197920,-0.298102,0.660956
2026-01-23T17:50:35.930524,6.900900,-1.191625,5.982056,0.100181,-0.296880,0.999375
2026-01-23T17:50:35.939524,7.130611,-1.579262,5.828915,0.037873,-0.305432,1.213178
2026-01-23T17:50:35.949524,7.432106,-1.473978,5.828915,-0.023212,-0.284663,1.351233
2026-01-23T17:50:35.959524,7.594818,-1.674975,5.876772,-0.085521,-0.255341,1.398881
2026-01-23T17:50:35.968524,7.465606,-2.172682,5.819344,-0.119729,-0.238237,1.440419
2026-01-23T17:50:35.978524,7.269395,-3.172882,5.905486,-0.120951,-0.263893,1.395215
2026-01-23T17:50:35.987524,7.853243,-3.278166,5.790630,-0.029321,-0.298102,0.988379
2026-01-23T17:50:35.997524,8.140382,-2.612962,5.886343,0.127059,-0.243124,0.373849
2026-01-23T17:50:36.007524,7.719245,-2.196611,6.044269,0.193033,-0.149051,-0.023212
2026-01-23T17:50:36.016524,7.298108,-2.014756,5.886343,0.149051,-0.127059,-0.134390
2026-01-23T17:50:36.026524,7.135396,-1.875972,5.848058,0.112399,-0.188146,-0.184481
2026-01-23T17:50:36.035524,7.073183,-1.607976,5.848058,0.068416,-0.261450,-0.291993
2026-01-23T17:50:36.045524,7.393821,-1.665404,6.010770,-0.020769,-0.334754,-0.378736
2026-01-23T17:50:36.055524,7.848458,-1.986042,6.106483,-0.100181,-0.359188,-0.404392
2026-01-23T17:50:36.064524,8.126025,-2.009970,6.125625,-0.133168,-0.329867,-0.425162
2026-01-23T17:50:36.074524,7.963313,-1.904686,6.331408,-0.145385,-0.296880,-0.472809
2026-01-23T17:50:36.084524,8.001598,-1.622333,6.288337,-0.182037,-0.265115,-0.493579
2026-01-23T17:50:36.093524,8.039883,-1.718046,6.101697,-0.213802,-0.266337,-0.492357
2026-01-23T17:50:36.103524,8.082954,-1.828116,6.144768,-0.254119,-0.282219,-0.514348
2026-01-23T17:50:36.112524,8.226524,-2.033899,6.106483,-0.274889,-0.272445,-0.585208
2026-01-23T17:50:36.122524,8.149953,-2.143969,5.919843,-0.199142,-0.244346,-0.762359
2026-01-23T17:50:36.132524,8.121239,-2.273181,5.958128,-0.068416,-0.226020,-1.009149
2026-01-23T17:50:36.141524,8.312665,-2.488535,5.972485,0.086742,-0.217467,-1.169195
2026-01-23T17:50:36.151524,8.073383,-2.632104,6.034698,0.349414,-0.276111,-1.274264
2026-01-23T17:50:36.160524,8.949156,-3.780659,6.293123,0.916297,-0.377514,-1.365894
2026-01-23T17:50:36.170524,10.427920,-6.029912,2.244467,1.732413,-0.310319,-1.595579
2026-01-23T17:50:36.180524,12.303893,-3.613162,5.661418,3.738494,0.427605,-1.890016
2026-01-23T17:50:36.189524,8.944370,4.067798,7.838886,3.433061,0.970053,-1.941329
2026-01-23T17:50:36.199524,7.647461,4.780859,5.197210,1.242499,0.670729,-1.694539
2026-01-23T17:50:36.209524,7.111468,5.029713,5.350351,0.228463,0.166155,-1.248608
2026-01-23T17:50:36.218524,8.111668,5.666203,5.115854,-0.428827,-0.155159,-1.131322
2026-01-23T17:50:36.228524,9.566504,3.862015,3.957728,-1.534493,-0.056199,-1.144761
2026-01-23T17:50:36.237524,9.662217,1.359123,3.780659,-2.173458,0.254119,-1.114217
2026-01-23T17:50:36.247524,8.776873,0.392422,3.546163,-2.155132,0.425162,-1.142317
2026-01-23T17:50:36.257524,8.092526,0.607776,3.445664,-2.108706,0.394618,-1.149648
2026-01-23T17:50:36.266524,7.905885,0.665204,3.172882,-2.261422,0.299323,-1.112996
2026-01-23T17:50:36.276524,8.121239,0.593420,2.947957,-2.445903,0.261450,-1.121548
2026-01-23T17:50:36.285524,8.197810,0.588634,2.670390,-2.612059,0.307876,-1.171639
2026-01-23T17:50:36.295524,8.154739,0.607776,2.416750,-2.808757,0.387288,-1.222951
2026-01-23T17:50:36.305524,7.853243,0.167497,2.167897,-3.032334,0.448374,-1.290147
2026-01-23T17:50:36.314524,7.575676,-0.521635,1.952543,-3.178942,0.465479,-1.362229
2026-01-23T17:50:36.324524,7.302894,-0.794417,1.780260,-3.213150,0.455705,-1.392772
2026-01-23T17:50:36.334524,7.082754,-0.732203,1.732403,-3.262019,0.423940,-1.414763
2026-01-23T17:50:36.343524,7.116254,-0.579063,1.708475,-3.380527,0.379958,-1.431867
2026-01-23T17:50:36.353524,7.063612,-0.358923,1.785045,-3.547904,0.345749,-1.412320
2026-01-23T17:50:36.362524,7.001398,-0.291924,1.512263,-3.728720,0.339641,-1.464854
2026-01-23T17:50:36.372524,6.690331,-0.301495,1.445264,-3.991392,0.321315,-1.602910
2026-01-23T17:50:36.382524,6.489334,-0.708275,1.316052,-4.298046,0.207694,-1.706757
2026-01-23T17:50:36.391524,6.494120,-1.832902,0.904486,-4.403115,0.051312,-1.734856
2026-01-23T17:50:36.401524,6.675975,-2.431107,1.110269,-4.421441,-0.075747,-1.753182
2026-01-23T17:50:36.410524,6.843472,-2.813959,1.062413,-4.432437,-0.171042,-1.803273
2026-01-23T17:50:36.420524,6.929614,-3.058027,1.296909,-4.366463,-0.296880,-1.894903
2026-01-23T17:50:36.430524,7.527819,-2.656033,1.363908,-4.307820,-0.377514,-1.990198
2026-01-23T17:50:36.439524,7.762316,-2.790031,1.837687,-4.356689,-0.408057,-2.075719
2026-01-23T17:50:36.449524,8.250452,-3.038884,1.780260,-4.472754,-0.456927,-2.113593
2026-01-23T17:50:36.459524,8.800801,-3.694518,1.732403,-4.598592,-0.527787,-2.094045
2026-01-23T17:50:36.468524,9.231509,-4.201796,1.488335,-4.629135,-0.579100,-2.048841
2026-01-23T17:50:36.478524,9.523433,-4.766502,1.497906,-4.555831,-0.571769,-2.074497
2026-01-23T17:50:36.487524,9.887142,-4.886143,1.722832,-4.381124,-0.551000,-2.146580
2026-01-23T17:50:36.497524,9.978070,-4.943571,1.751546,-4.257729,-0.536339,-2.185675
2026-01-23T17:50:36.507524,10.088140,-4.981856,1.914258,-4.177095,-0.590095,-2.191784
2026-01-23T17:50:36.516524,10.389635,-5.130211,1.785045,-4.095239,-0.681725,-2.216218
2026-01-23T17:50:36.526524,10.648060,-5.522634,1.694118,-3.981618,-0.757472,-2.307848
2026-01-23T17:50:36.535524,10.719845,-5.838487,1.631905,-3.832567,-0.810007,-2.535090
2026-01-23T17:50:36.545524,10.978270,-6.250052,1.727617,-3.722611,-0.921184,-2.678032
2026-01-23T17:50:36.555524,11.179267,-6.771687,1.287338,-3.536908,-1.003040,-2.680476
2026-01-23T17:50:36.564524,11.145767,-7.164110,0.985842,-3.218037,-1.044579,-2.626719
2026-01-23T17:50:36.574524,11.375478,-6.943971,1.182054,-2.852740,-1.097113,-2.560746
2026-01-23T17:50:36.584524,11.672188,-6.187839,1.234696,-2.560746,-1.134987,-2.493551
2026-01-23T17:50:36.593524,11.739187,-5.886343,1.411765,-2.405586,-1.145982,-2.475225
2026-01-23T17:50:36.603524,11.834900,-5.886343,1.517049,-2.362826,-1.187521,-2.456899
2026-01-23T17:50:36.612524,12.050254,-5.881557,1.502692,-2.342056,-1.229060,-2.398256
2026-01-23T17:50:36.622524,12.193823,-5.709274,1.316052,-2.294409,-1.213178,-2.302961
2026-01-23T17:50:36.632524,12.088539,-5.517848,1.225125,-2.239431,-1.164308,-2.201557
2026-01-23T17:50:36.641524,11.901899,-5.417350,1.277767,-2.235766,-1.136209,-2.097710
2026-01-23T17:50:36.651524,11.763115,-5.283352,1.009771,-2.238209,-1.114217,-2.001194
2026-01-23T17:50:36.660524,11.586047,-5.355136,1.038485,-2.230879,-1.093448,-1.916894
2026-01-23T17:50:36.670524,11.509476,-5.450849,1.110269,-2.213775,-1.099557,-1.819156
2026-01-23T17:50:36.680524,11.490334,-5.221138,0.909272,-2.180788,-1.094670,-1.714087
2026-01-23T17:50:36.689524,11.188838,-5.446064,0.708275,-2.166127,-1.076344,-1.660331
2026-01-23T17:50:36.699524,11.040483,-5.824130,0.808774,-2.152688,-1.119104,-1.609018
2026-01-23T17:50:36.709524,11.265408,-6.226124,0.832702,-2.100154,-1.196073,-1.555262
2026-01-23T17:50:36.718524,11.471191,-6.321837,0.880558,-1.976759,-1.241277,-1.523497
2026-01-23T17:50:36.728524,11.633903,-6.364908,1.081555,-1.815491,-1.258382,-1.491732
2026-01-23T17:50:36.737524,11.624332,-5.795416,1.148554,-1.626122,-1.232725,-1.426980
2026-01-23T17:50:36.747524,11.207981,-5.402993,1.196411,-1.461189,-1.174082,-1.373224
2026-01-23T17:50:36.757524,10.829915,-5.072783,1.272981,-1.337794,-1.134987,-1.326799
2026-01-23T17:50:36.766524,10.461420,-4.996213,1.344766,-1.273042,-1.119104,-1.268155
2026-01-23T17:50:36.776524,10.202995,-5.187639,1.316052,-1.252273,-1.121548,-1.197295
2026-01-23T17:50:36.785524,10.207781,-5.532205,1.674975,-1.204625,-1.143539,-1.108109
2026-01-23T17:50:36.795524,10.088140,-5.350351,1.354337,-1.116661,-1.138652,-0.999375
2026-01-23T17:50:36.805524,9.915856,-5.642275,1.488335,-1.004262,-1.091005,-0.912632
2026-01-23T17:50:36.814524,9.700502,-5.910271,1.641476,-0.896749,-1.102000,-0.801455
2026-01-23T17:50:36.824524,9.695717,-5.991627,1.512263,-0.757472,-1.131322,-0.681725
2026-01-23T17:50:36.834524,9.791430,-5.996413,1.574477,-0.569326,-1.145982,-0.568104
2026-01-23T17:50:36.843524,9.844072,-6.068198,1.684547,-0.370184,-1.159421,-0.460592
2026-01-23T17:50:36.853524,10.049854,-6.049055,1.751546,-0.140498,-1.171639,-0.353080
2026-01-23T17:50:36.862524,10.025926,-5.723631,1.540977,0.117286,-1.153313,-0.248011
2026-01-23T17:50:36.872524,9.796215,-5.484349,1.631905,0.344527,-1.133765,-0.150272
2026-01-23T17:50:36.882524,9.963713,-5.206781,1.631905,0.522900,-1.144761,-0.050090
2026-01-23T17:50:36.891524,10.159924,-4.828716,1.292124,0.673173,-1.137430,0.074525
2026-01-23T17:50:36.901524,10.246066,-4.484149,1.344766,0.819780,-1.093448,0.189368
2026-01-23T17:50:36.910524,10.303494,-4.311866,1.450050,0.921184,-1.053131,0.293215
2026-01-23T17:50:36.920524,10.370493,-4.426721,1.402194,0.983492,-1.018923,0.408057
2026-01-23T17:50:36.930524,10.480562,-4.570291,1.282552,1.065348,-0.968832,0.531452
2026-01-23T17:50:36.939524,10.557133,-4.522434,1.148554,1.178969,-0.907745,0.649960
2026-01-23T17:50:36.949524,10.557133,-4.350151,1.062413,1.298699,-0.841772,0.758694
2026-01-23T17:50:36.959524,10.547562,-4.163511,0.727418,1.414763,-0.761137,0.844215
2026-01-23T17:50:36.968524,10.504491,-3.948157,0.492921,1.514945,-0.689055,0.916297
2026-01-23T17:50:36.978524,10.547562,-3.622733,0.038285,1.599244,-0.615752,0.999375
2026-01-23T17:50:36.987524,10.370493,-3.364308,0.043070,1.692096,-0.524122,1.048244
2026-01-23T17:50:36.997524,10.274780,-3.158525,-0.038285,1.732413,-0.442266,1.077566
2026-01-23T17:50:37.007524,10.159924,-3.139383,-0.363709,1.753182,-0.366519,1.108109
2026-01-23T17:50:37.016524,10.068997,-2.991028,-0.526420,1.802052,-0.278554,1.130100
2026-01-23T17:50:37.026524,9.930213,-3.000599,-0.808774,1.820378,-0.206472,1.147204
2026-01-23T17:50:37.035524,9.944570,-3.244667,-1.268195,1.815491,-0.160046,1.165530
2026-01-23T17:50:37.045524,9.963713,-3.512663,-1.665404,1.841147,-0.116064,1.182634
2026-01-23T17:50:37.055524,10.116853,-3.483949,-1.971685,1.901012,-0.064751,1.194852
2026-01-23T17:50:37.064524,10.126425,-3.340380,-2.187039,1.955990,0.003665,1.185078
2026-01-23T17:50:37.074524,10.021141,-3.249453,-2.431107,1.992641,0.064751,1.156978
2026-01-23T17:50:37.084524,10.021141,-3.024527,-2.742174,2.032959,0.118507,1.119104
2026-01-23T17:50:37.093524,10.011569,-2.775674,-2.890529,2.057393,0.172263,1.088561
2026-01-23T17:50:37.103524,9.887142,-2.512463,-3.062812,2.042732,0.223576,1.053131
2026-01-23T17:50:37.112524,9.796215,-2.344966,-3.158525,2.003637,0.283441,1.010370
2026-01-23T17:50:37.122524,9.690931,-2.435893,-3.249453,1.905899,0.322536,0.976162
2026-01-23T17:50:37.132524,9.748359,-2.469392,-3.393022,1.797165,0.343306,0.962723
2026-01-23T17:50:37.141524,9.796215,-2.431107,-3.469592,1.692096,0.383623,0.943175
2026-01-23T17:50:37.151524,9.748359,-2.550748,-3.785445,1.568701,0.427605,0.923628
2026-01-23T17:50:37.160524,9.489934,-2.579462,-3.991228,1.451415,0.466700,0.901636
2026-01-23T17:50:37.170524,9.355936,-2.493321,-4.053441,1.353677,0.500909,0.880867
2026-01-23T17:50:37.180524,9.193224,-2.541177,-4.077369,1.232725,0.511904,0.863763
2026-01-23T17:50:37.189524,9.020941,-2.737389,-4.029513,1.110552,0.503352,0.841772
2026-01-23T17:50:37.199524,9.102297,-2.880958,-4.015156,1.026253,0.478918,0.818559
2026-01-23T17:50:37.209524,9.087940,-2.952743,-3.852444,0.977384,0.449596,0.786794
2026-01-23T17:50:37.218524,9.226723,-2.933600,-3.809373,0.961501,0.410501,0.753807
2026-01-23T17:50:37.228524,9.250652,-2.775674,-3.723231,0.976162,0.378736,0.697607
2026-01-23T17:50:37.237524,9.260223,-2.699103,-3.522234,0.999375,0.348193,0.626747
2026-01-23T17:50:37.247524,9.011369,-2.847458,-3.479164,1.025031,0.309097,0.553443
2026-01-23T17:50:37.257524,8.858229,-2.981456,-3.436093,1.033583,0.245567,0.491135
2026-01-23T17:50:37.266524,8.925228,-3.115455,-3.421736,1.026253,0.162490,0.439822
2026-01-23T17:50:37.276524,9.025726,-3.297309,-3.402593,1.025031,0.076969,0.403170
2026-01-23T17:50:37.285524,9.126225,-3.244667,-3.383451,1.053131,0.018325,0.373849
2026-01-23T17:50:37.295524,9.111868,-3.077169,-3.187239,1.088561,-0.026878,0.333532
2026-01-23T17:50:37.305524,9.025726,-2.847458,-2.857030,1.111774,-0.067195,0.290771
2026-01-23T17:50:37.314524,9.044869,-2.522035,-2.445464,1.137430,-0.102625,0.245567
2026-01-23T17:50:37.324524,9.049655,-2.263610,-2.029113,1.119104,-0.127059,0.200363
2026-01-23T17:50:37.334524,8.977870,-2.277967,-1.856830,1.070235,-0.138055,0.156381
2026-01-23T17:50:37.343524,8.901300,-2.287538,-1.612762,1.014036,-0.140498,0.102625
2026-01-23T17:50:37.353524,8.781658,-2.478964,-1.454836,0.948062,-0.139277,0.054977
2026-01-23T17:50:37.362524,8.762516,-2.933600,-1.268195,0.866206,-0.140498,0.029321
2026-01-23T17:50:37.372524,8.839086,-3.637090,-1.363908,0.768468,-0.164933,0.051312
2026-01-23T17:50:37.382524,8.839086,-4.699503,-1.464407,0.742811,-0.210137,0.064751
2026-01-23T17:50:37.391524,9.016155,-5.359922,-1.258624,0.872315,-0.217467,0.019547
2026-01-23T17:50:37.401524,9.073583,-5.814558,-1.115055,1.072679,-0.197920,-0.037873
2026-01-23T17:50:37.410524,9.164510,-5.680560,-0.760917,1.292590,-0.196698,-0.053756
2026-01-23T17:50:37.420524,9.068797,-4.953142,-0.717846,1.480737,-0.197920,-0.072082
2026-01-23T17:50:37.430524,8.906085,-4.321437,-0.330209,1.618792,-0.193033,-0.130725
2026-01-23T17:50:37.439524,8.810372,-3.641875,-0.057427,1.673770,-0.210137,-0.207694
2026-01-23T17:50:37.449524,8.796015,-3.182454,0.090927,1.646892,-0.241902,-0.278554
2026-01-23T17:50:37.459524,8.829515,-2.919243,0.401994,1.561371,-0.256563,-0.339641
2026-01-23T17:50:37.468524,8.834301,-3.168097,0.622133,1.407433,-0.277332,-0.379958
2026-01-23T17:50:37.478524,8.872586,-3.584448,0.626919,1.266934,-0.298102,-0.409279
2026-01-23T17:50:37.487524,8.886943,-4.077369,0.674775,1.169195,-0.313984,-0.442266
2026-01-23T17:50:37.497524,8.920442,-4.680361,0.574277,1.103222,-0.356745,-0.470366
2026-01-23T17:50:37.507524,9.226723,-5.077569,0.349352,1.080009,-0.433714,-0.459370
2026-01-23T17:50:37.516524,9.643075,-5.307280,0.196211,1.159421,-0.483805,-0.489913
2026-01-23T17:50:37.526524,9.920642,-5.235495,0.344566,1.273042,-0.500909,-0.553443
2026-01-23T17:50:37.535524,10.121639,-5.264209,0.492921,1.350011,-0.509461,-0.638964
2026-01-23T17:50:37.545524,10.183852,-5.379065,0.555134,1.406211,-0.526565,-0.726929
2026-01-23T17:50:37.555524,10.236495,-5.278566,0.646062,1.472184,-0.529009,-0.797789
2026-01-23T17:50:37.564524,10.030712,-5.149354,0.732203,1.533271,-0.518013,-0.833220
2026-01-23T17:50:37.574524,9.576076,-4.919643,1.033699,1.589471,-0.510683,-0.834441
2026-01-23T17:50:37.584524,9.131011,-4.689932,1.450050,1.588249,-0.522900,-0.790459
2026-01-23T17:50:37.593524,8.824729,-4.661218,1.665404,1.561371,-0.558330,-0.740368
2026-01-23T17:50:37.603524,8.752945,-4.776073,1.895115,1.535714,-0.610865,-0.690277
2026-01-23T17:50:37.612524,8.853443,-5.096712,1.986042,1.556484,-0.656069,-0.651182
2026-01-23T17:50:37.622524,8.906085,-5.264209,2.009970,1.627344,-0.681725,-0.625525
2026-01-23T17:50:37.632524,8.910871,-5.292923,2.072184,1.729969,-0.698829,-0.614530
2026-01-23T17:50:37.641524,8.882157,-5.340780,2.153540,1.833817,-0.724486,-0.610865
2026-01-23T17:50:37.651524,9.097511,-5.201996,2.191825,1.943772,-0.752585,-0.623082
2026-01-23T17:50:37.660524,9.403792,-5.120640,2.062613,2.039067,-0.769690,-0.629191
2026-01-23T17:50:37.670524,9.638289,-4.895715,1.828116,2.144136,-0.770911,-0.615752
2026-01-23T17:50:37.680524,9.748359,-4.493720,1.483550,2.255313,-0.747698,-0.612086
2026-01-23T17:50:37.689524,9.757930,-3.991228,1.057627,2.306626,-0.711046,-0.583987
2026-01-23T17:50:37.699524,9.887142,-3.531806,0.856630,2.337169,-0.665842,-0.548556
2026-01-23T17:50:37.709524,10.068997,-2.924029,1.062413,2.315178,-0.621860,-0.520457
2026-01-23T17:50:37.718524,10.303494,-2.775674,1.153340,2.194227,-0.579100,-0.485026
2026-01-23T17:50:37.728524,10.432706,-3.048455,1.052841,2.051285,-0.519235,-0.445931
2026-01-23T17:50:37.737524,10.451849,-3.192025,1.000199,1.949881,-0.450818,-0.389731
2026-01-23T17:50:37.747524,10.279565,-3.388236,0.894915,1.886351,-0.389731,-0.335975
2026-01-23T17:50:37.757524,10.049854,-3.369094,0.837487,1.868025,-0.338419,-0.306654
2026-01-23T17:50:37.766524,9.791430,-3.431307,0.851844,1.859473,-0.291993,-0.273667
2026-01-23T17:50:37.776524,9.513862,-3.373879,0.665204,1.854586,-0.263893,-0.240680
2026-01-23T17:50:37.785524,9.298508,-3.354737,0.626919,1.844812,-0.265115,-0.200363
2026-01-23T17:50:37.795524,9.422935,-3.326023,0.646062,1.864360,-0.267558,-0.153938
2026-01-23T17:50:37.805524,9.375078,-3.196810,0.626919,1.907120,-0.257785,-0.113620
2026-01-23T17:50:37.814524,9.260223,-3.129811,0.660419,1.952324,-0.246789,-0.075747
2026-01-23T17:50:37.824524,9.212367,-2.976671,0.679561,1.990198,-0.239459,-0.041538
2026-01-23T17:50:37.834524,9.126225,-2.938386,0.736989,2.018298,-0.239459,-0.010995
2026-01-23T17:50:37.843524,9.054440,-2.943171,0.760917,2.030515,-0.240680,0.013439
2026-01-23T17:50:37.853524,8.968299,-2.924029,0.784845,2.040289,-0.244346,0.042760
2026-01-23T17:50:37.862524,8.867800,-2.890529,0.756131,2.043954,-0.241902,0.065973
2026-01-23T17:50:37.872524,8.886943,-2.900100,0.674775,2.046398,-0.239459,0.086742
2026-01-23T17:50:37.882524,8.891728,-2.823530,0.631705,2.059837,-0.234572,0.100181
2026-01-23T17:50:37.891524,8.819944,-2.703889,0.588634,2.068389,-0.227241,0.113620
2026-01-23T17:50:37.901524,8.652446,-2.718246,0.631705,2.078163,-0.219911,0.111177
2026-01-23T17:50:37.910524,8.590233,-2.775674,0.684347,2.100154,-0.204028,0.085521
2026-01-23T17:50:37.920524,8.532805,-2.699103,0.741775,2.117258,-0.199142,0.078190
2026-01-23T17:50:37.930524,8.422735,-2.622533,0.564706,2.157575,-0.205250,0.081855
2026-01-23T17:50:37.939524,8.207381,-2.435893,0.521635,2.218662,-0.216246,0.069638
2026-01-23T17:50:37.949524,8.116454,-2.244467,0.593420,2.295631,-0.227241,0.037873
2026-01-23T17:50:37.959524,7.939385,-2.086541,0.751346,2.376265,-0.235793,-0.009773
2026-01-23T17:50:37.968524,7.704888,-2.072184,0.612562,2.398256,-0.267558,-0.035430
2026-01-23T17:50:37.978524,7.652246,-2.402393,0.665204,2.443460,-0.313984,-0.080634
2026-01-23T17:50:37.987524,7.858029,-2.569891,0.832702,2.513099,-0.378736,-0.084299
2026-01-23T17:50:37.997524,8.303094,-2.373680,0.914058,2.579072,-0.439822,-0.072082
2026-01-23T17:50:38.007524,8.791230,-2.091326,0.842273,2.642602,-0.460592,-0.070860
2026-01-23T17:50:38.016524,9.226723,-1.512263,0.818345,2.652376,-0.433714,-0.081855
2026-01-23T17:50:38.026524,9.418149,-1.325623,0.569491,2.561968,-0.412944,-0.105068
2026-01-23T17:50:38.035524,9.604789,-1.406979,0.339780,2.436130,-0.370184,-0.113620
2026-01-23T17:50:38.045524,9.585647,-1.550549,0.186640,2.331061,-0.326201,-0.109955
2026-01-23T17:50:38.055524,9.470791,-1.684547,-0.081355,2.265087,-0.250454,-0.109955
2026-01-23T17:50:38.064524,9.231509,-1.684547,-0.076570,2.211331,-0.179594,-0.112399
2026-01-23T17:50:38.074524,8.901300,-1.718046,-0.071784,2.158797,-0.122173,-0.105068
2026-01-23T17:50:38.084524,8.709874,-1.646261,0.033499,2.105041,-0.098960,-0.091629
2026-01-23T17:50:38.093524,8.595018,-1.646261,0.038285,2.050063,-0.078190,-0.080634
2026-01-23T17:50:38.103524,8.657232,-1.622333,0.220139,2.013411,-0.081855,-0.083077
2026-01-23T17:50:38.112524,8.963513,-1.411765,0.473778,1.988976,-0.059864,-0.075747
2026-01-23T17:50:38.122524,9.336793,-1.038485,0.598205,1.925446,-0.039095,-0.068416
2026-01-23T17:50:38.132524,9.710074,-0.784845,0.693918,1.835038,0.015882,-0.069638
2026-01-23T17:50:38.141524,9.906285,-0.708275,0.751346,1.712865,0.100181,-0.072082
2026-01-23T17:50:38.151524,10.150353,-0.684347,0.803988,1.588249,0.175929,-0.073303
2026-01-23T17:50:38.160524,10.499705,-0.698704,0.760917,1.477071,0.254119,-0.069638
2026-01-23T17:50:38.170524,10.657631,-0.693918,0.741775,1.363450,0.350636,-0.053756
2026-01-23T17:50:38.180524,10.604989,-0.741775,0.794417,1.253495,0.454483,-0.028099
2026-01-23T17:50:38.189524,10.480562,-0.770488,0.736989,1.148426,0.553443,-0.007330
2026-01-23T17:50:38.199524,10.293922,-0.808774,0.842273,1.048244,0.634077,0.025656
2026-01-23T17:50:38.209524,10.188638,-0.679561,0.990628,0.943175,0.698829,0.062308
2026-01-23T17:50:38.218524,10.126425,-0.636490,1.033699,0.810007,0.752585,0.095294
2026-01-23T17:50:38.228524,10.222138,-0.650847,0.937986,0.656069,0.788015,0.135612
2026-01-23T17:50:38.237524,10.298708,-0.803988,0.947557,0.488692,0.800233,0.183259
2026-01-23T17:50:38.247524,10.470991,-1.024128,0.813559,0.338419,0.821002,0.228463
2026-01-23T17:50:38.257524,10.552347,-1.263410,0.818345,0.238237,0.858876,0.277332
2026-01-23T17:50:38.266524,10.475777,-1.249053,0.827916,0.180816,0.905302,0.322536
2026-01-23T17:50:38.276524,10.231709,-1.258624,1.000199,0.129503,0.941954,0.362853
2026-01-23T17:50:38.285524,10.059426,-1.253839,1.124626,0.086742,0.957836,0.390953
2026-01-23T17:50:38.295524,9.796215,-1.234696,1.287338,0.048869,0.965166,0.410501
