Timestamp,Acceleration_X,Acceleration_Y,Acceleration_Z,Gyro_X,Gyro_Y,Gyro_Z
2025-12-31T15:46:02.573929,9.652646,-2.435893,2.947957,-0.389731,-0.056199,-0.034208
2025-12-31T15:46:02.583929,9.633503,-2.493321,3.010170,-0.300545,-0.026878,-0.024434
2025-12-31T15:46:02.592929,9.576076,-2.354537,2.991028,-0.195476,-0.002443,-0.019547
2025-12-31T15:46:02.602929,9.509077,-2.048256,3.058027,-0.101403,0.006108,-0.020769
2025-12-31T15:46:02.611929,9.528219,-1.842473,3.125026,-0.051312,0.004886,-0.012217
2025-12-31T15:46:02.621929,9.542576,-1.622333,3.081955,-0.045204,-0.003665,0.004886
2025-12-31T15:46:02.631929,9.537790,-1.593619,3.148954,-0.061086,-0.006108,0.031764
2025-12-31T15:46:02.640929,9.499505,-1.540977,3.077169,-0.084299,-0.001221,0.057421
2025-12-31T15:46:02.650929,9.480363,-1.569691,2.971885,-0.106290,0.006108,0.079412
2025-12-31T15:46:02.660929,9.451649,-1.684547,2.943171,-0.101403,0.015882,0.098960
2025-12-31T15:46:02.669929,9.408578,-1.718046,3.005385,-0.075747,0.025656,0.117286
2025-12-31T15:46:02.679929,9.384650,-1.813759,2.971885,-0.035430,0.028099,0.131946
2025-12-31T15:46:02.688929,9.408578,-1.694118,2.952743,0.012217,0.026878,0.138055
2025-12-31T15:46:02.698929,9.427721,-1.598405,2.967100,0.048869,0.023212,0.151494
2025-12-31T15:46:02.708929,9.485148,-1.430907,2.967100,0.067195,0.026878,0.158824
2025-12-31T15:46:02.717929,9.509077,-1.330409,2.919243,0.065973,0.031764,0.167377
2025-12-31T15:46:02.727929,9.432506,-1.263410,2.919243,0.039095,0.042760,0.186924
2025-12-31T15:46:02.736929,9.446863,-1.249053,2.885744,0.003665,0.048869,0.189368
2025-12-31T15:46:02.746929,9.408578,-1.311266,2.909672,-0.015882,0.042760,0.185702
2025-12-31T15:46:02.756929,9.446863,-1.406979,2.837887,-0.014660,0.039095,0.185702
2025-12-31T15:46:02.765929,9.418149,-1.383051,2.833101,-0.001221,0.030543,0.184481
2025-12-31T15:46:02.775929,9.489934,-1.335195,2.842673,0.014660,0.023212,0.177150
2025-12-31T15:46:02.785929,9.446863,-1.344766,2.799602,0.029321,0.020769,0.173485
2025-12-31T15:46:02.794929,9.494720,-1.229910,2.909672,0.035430,0.025656,0.169820
2025-12-31T15:46:02.804929,9.456434,-1.182054,2.871387,0.030543,0.036651,0.164933
2025-12-31T15:46:02.813929,9.408578,-1.186840,2.861815,0.029321,0.043982,0.166155
2025-12-31T15:46:02.823929,9.432506,-1.153340,2.947957,0.028099,0.045204,0.164933
2025-12-31T15:46:02.833929,9.293722,-1.167697,2.952743,0.024434,0.041538,0.163711
2025-12-31T15:46:02.842929,9.346365,-1.153340,2.919243,0.026878,0.030543,0.157603
2025-12-31T15:46:02.852929,9.360722,-1.119840,2.928814,0.034208,0.015882,0.150272
2025-12-31T15:46:02.861929,9.432506,-1.143769,2.967100,0.032986,0.002443,0.145385
2025-12-31T15:46:02.871929,9.437292,-1.229910,2.995813,0.032986,-0.002443,0.136833
2025-12-31T15:46:02.881929,9.466006,-1.258624,3.010170,0.042760,0.002443,0.129503
2025-12-31T15:46:02.890929,9.475577,-1.220339,2.976671,0.063529,0.021991,0.124616
2025-12-31T15:46:02.900929,9.351150,-1.210768,2.924029,0.092851,0.046425,0.127059
2025-12-31T15:46:02.910929,9.279366,-1.138983,2.933600,0.108733,0.057421,0.120951
2025-12-31T15:46:02.919929,9.226723,-1.115055,2.981456,0.117286,0.053756,0.117286
2025-12-31T15:46:02.929929,9.217152,-1.129412,3.086741,0.123394,0.046425,0.120951
2025-12-31T15:46:02.938929,9.217152,-1.210768,3.005385,0.138055,0.040317,0.124616
2025-12-31T15:46:02.948929,9.226723,-1.119840,2.986242,0.160046,0.042760,0.127059
2025-12-31T15:46:02.958929,9.174081,-1.028913,3.010170,0.168598,0.032986,0.120951
2025-12-31T15:46:02.967929,9.126225,-0.799202,3.072384,0.142942,-0.002443,0.090408
2025-12-31T15:46:02.977929,9.198010,-0.770488,3.081955,0.091629,-0.050090,0.054977
2025-12-31T15:46:02.986929,9.279366,-0.866201,3.067598,0.031764,-0.076969,0.046425
2025-12-31T15:46:02.996929,9.446863,-0.995414,3.086741,-0.029321,-0.089186,0.040317
2025-12-31T15:46:03.006929,9.576076,-1.239482,3.005385,-0.067195,-0.089186,0.029321
2025-12-31T15:46:03.015929,9.566504,-1.368694,3.019742,-0.058643,-0.080634,0.013439
2025-12-31T15:46:03.025929,9.576076,-1.435693,2.971885,-0.012217,-0.065973,-0.006108
2025-12-31T15:46:03.035929,9.585647,-1.402194,2.981456,0.037873,-0.043982,-0.014660
2025-12-31T15:46:03.044929,9.461220,-1.296909,2.962314,0.069638,-0.032986,-0.024434
2025-12-31T15:46:03.054929,9.461220,-1.148554,3.019742,0.075747,-0.036651,-0.031764
2025-12-31T15:46:03.063929,9.370293,-1.196411,3.014956,0.061086,-0.051312,-0.032986
2025-12-31T15:46:03.073929,9.461220,-1.201196,3.000599,0.041538,-0.067195,-0.030543
2025-12-31T15:46:03.083929,9.461220,-1.253839,3.019742,0.029321,-0.076969,-0.024434
2025-12-31T15:46:03.092929,9.451649,-1.363908,3.081955,0.025656,-0.075747,-0.017104
2025-12-31T15:46:03.102929,9.461220,-1.373480,3.062812,0.030543,-0.067195,-0.010995
2025-12-31T15:46:03.111929,9.446863,-1.339980,3.091526,0.045204,-0.058643,-0.007330
2025-12-31T15:46:03.121929,9.422935,-1.282552,3.053241,0.053756,-0.052534,-0.002443
2025-12-31T15:46:03.131929,9.427721,-1.292124,3.043670,0.051312,-0.054977,0.004886
2025-12-31T15:46:03.140929,9.499505,-1.373480,2.967100,0.043982,-0.067195,0.004886
2025-12-31T15:46:03.150929,9.533005,-1.368694,3.077169,0.039095,-0.072082,0.006108
2025-12-31T15:46:03.160929,9.489934,-1.430907,3.029313,0.047647,-0.068416,0.006108
2025-12-31T15:46:03.169929,9.494720,-1.397408,3.058027,0.067195,-0.057421,0.008552
2025-12-31T15:46:03.179929,9.518648,-1.320838,3.019742,0.078190,-0.041538,0.003665
2025-12-31T15:46:03.188929,9.413364,-1.282552,3.072384,0.076969,-0.025656,0.002443
2025-12-31T15:46:03.198929,9.432506,-1.239482,3.134597,0.070860,-0.015882,0.009773
2025-12-31T15:46:03.208929,9.365507,-1.182054,3.086741,0.062308,-0.018325,0.013439
2025-12-31T15:46:03.217929,9.389435,-1.172483,3.062812,0.045204,-0.029321,0.014660
2025-12-31T15:46:03.227929,9.394221,-1.205982,3.034099,0.021991,-0.042760,0.018325
2025-12-31T15:46:03.236929,9.437292,-1.387837,3.043670,0.003665,-0.051312,0.021991
2025-12-31T15:46:03.246929,9.518648,-1.373480,3.010170,-0.001221,-0.053756,0.024434
2025-12-31T15:46:03.256929,9.585647,-1.411765,3.048455,0.002443,-0.046425,0.030543
2025-12-31T15:46:03.265929,9.552147,-1.430907,2.981456,0.014660,-0.029321,0.028099
2025-12-31T15:46:03.275929,9.533005,-1.483550,3.014956,0.025656,-0.008552,0.028099
2025-12-31T15:46:03.285929,9.499505,-1.378265,2.986242,0.031764,0.003665,0.025656
2025-12-31T15:46:03.294929,9.442077,-1.363908,2.995813,0.036651,0.007330,0.030543
2025-12-31T15:46:03.304929,9.413364,-1.311266,3.029313,0.039095,0.006108,0.032986
2025-12-31T15:46:03.313929,9.394221,-1.234696,3.010170,0.031764,0.002443,0.035430
2025-12-31T15:46:03.323929,9.422935,-1.282552,3.072384,0.020769,-0.003665,0.039095
2025-12-31T15:46:03.333929,9.413364,-1.316052,3.010170,0.013439,-0.004886,0.037873
2025-12-31T15:46:03.342929,9.332008,-1.296909,3.038884,0.006108,0.001221,0.041538
2025-12-31T15:46:03.352929,9.370293,-1.344766,2.957528,0.003665,0.001221,0.040317
2025-12-31T15:46:03.361929,9.336793,-1.349551,2.938386,0.001221,-0.003665,0.041538
2025-12-31T15:46:03.371929,9.288937,-1.383051,2.871387,0.003665,-0.008552,0.040317
2025-12-31T15:46:03.381929,9.351150,-1.392622,2.895315,0.007330,-0.018325,0.034208
2025-12-31T15:46:03.390929,9.446863,-1.402194,2.857030,0.008552,-0.021991,0.028099
2025-12-31T15:46:03.400929,9.422935,-1.459621,2.914457,0.019547,-0.019547,0.024434
2025-12-31T15:46:03.410929,9.399007,-1.354337,2.900100,0.034208,-0.010995,0.018325
2025-12-31T15:46:03.419929,9.466006,-1.387837,2.924029,0.041538,-0.004886,0.010995
2025-12-31T15:46:03.429929,9.308079,-1.263410,2.938386,0.036651,-0.004886,0.007330
2025-12-31T15:46:03.438929,9.298508,-1.253839,2.962314,0.024434,-0.013439,0.008552
2025-12-31T15:46:03.448929,9.360722,-1.335195,2.933600,0.008552,-0.026878,0.004886
2025-12-31T15:46:03.458929,9.384650,-1.330409,2.914457,-0.010995,-0.040317,0.008552
2025-12-31T15:46:03.467929,9.408578,-1.325623,2.957528,-0.028099,-0.048869,0.014660
2025-12-31T15:46:03.477929,9.518648,-1.373480,2.914457,-0.043982,-0.050090,0.021991
2025-12-31T15:46:03.486929,9.556933,-1.426122,2.847458,-0.056199,-0.048869,0.028099
2025-12-31T15:46:03.496929,9.489934,-1.392622,2.890529,-0.061086,-0.045204,0.031764
2025-12-31T15:46:03.506929,9.489934,-1.517049,2.890529,-0.057421,-0.037873,0.042760
2025-12-31T15:46:03.515929,9.442077,-1.488335,2.900100,-0.045204,-0.040317,0.046425
2025-12-31T15:46:03.525929,9.566504,-1.550549,2.847458,-0.020769,-0.039095,0.051312
2025-12-31T15:46:03.535929,9.451649,-1.531406,2.952743,0.008552,-0.036651,0.053756
2025-12-31T15:46:03.544929,9.422935,-1.502692,2.991028,0.036651,-0.030543,0.052534
2025-12-31T15:46:03.554929,9.442077,-1.354337,2.995813,0.062308,-0.019547,0.056199
2025-12-31T15:46:03.563929,9.451649,-1.215553,2.976671,0.070860,-0.012217,0.057421
2025-12-31T15:46:03.573929,9.389435,-1.182054,3.053241,0.053756,-0.013439,0.054977
2025-12-31T15:46:03.583929,9.322436,-1.129412,3.062812,0.020769,-0.021991,0.056199
2025-12-31T15:46:03.592929,9.399007,-1.148554,3.058027,-0.009773,-0.035430,0.052534
2025-12-31T15:46:03.602929,9.355936,-1.191625,3.072384,-0.028099,-0.041538,0.047647
2025-12-31T15:46:03.611929,9.365507,-1.249053,3.029313,-0.036651,-0.039095,0.042760
2025-12-31T15:46:03.621929,9.322436,-1.268195,3.029313,-0.036651,-0.030543,0.034208
2025-12-31T15:46:03.631929,9.360722,-1.287338,2.986242,-0.035430,-0.029321,0.026878
2025-12-31T15:46:03.640929,9.303294,-1.244267,2.914457,-0.029321,-0.030543,0.023212
2025-12-31T15:46:03.650929,9.322436,-1.330409,2.947957,-0.018325,-0.041538,0.019547
2025-12-31T15:46:03.660929,9.370293,-1.335195,2.909672,-0.013439,-0.063529,0.009773
2025-12-31T15:46:03.669929,9.456434,-1.311266,2.943171,-0.012217,-0.075747,-0.001221
2025-12-31T15:46:03.679929,9.537790,-1.363908,2.976671,0.001221,-0.070860,-0.009773
2025-12-31T15:46:03.688929,9.556933,-1.316052,3.043670,0.019547,-0.050090,-0.013439
2025-12-31T15:46:03.698929,9.499505,-1.239482,2.986242,0.025656,-0.025656,-0.015882
2025-12-31T15:46:03.708929,9.408578,-1.229910,2.995813,0.019547,-0.019547,-0.014660
2025-12-31T15:46:03.717929,9.384650,-1.172483,3.034099,-0.004886,-0.028099,-0.012217
2025-12-31T15:46:03.727929,9.360722,-1.287338,3.048455,-0.032986,-0.042760,-0.009773
2025-12-31T15:46:03.736929,9.389435,-1.339980,3.005385,-0.036651,-0.056199,-0.004886
2025-12-31T15:46:03.746929,9.489934,-1.416550,3.019742,-0.019547,-0.059864,-0.002443
2025-12-31T15:46:03.756929,9.513862,-1.440479,3.024527,0.001221,-0.047647,-0.001221
2025-12-31T15:46:03.765929,9.480363,-1.392622,3.053241,0.010995,-0.032986,-0.002443
2025-12-31T15:46:03.775929,9.413364,-1.325623,2.976671,0.006108,-0.014660,0.004886
2025-12-31T15:46:03.785929,9.418149,-1.296909,3.005385,-0.001221,-0.012217,0.003665
2025-12-31T15:46:03.794929,9.408578,-1.344766,3.029313,-0.004886,-0.013439,0.006108
2025-12-31T15:46:03.804929,9.418149,-1.287338,3.010170,-0.012217,-0.023212,0.004886
2025-12-31T15:46:03.813929,9.408578,-1.301695,3.038884,-0.023212,-0.032986,0.006108
2025-12-31T15:46:03.823929,9.518648,-1.339980,3.024527,-0.028099,-0.036651,0.008552
2025-12-31T15:46:03.833929,9.466006,-1.402194,2.986242,-0.026878,-0.032986,0.004886
2025-12-31T15:46:03.842929,9.494720,-1.335195,2.967100,-0.023212,-0.021991,0.006108
2025-12-31T15:46:03.852929,9.509077,-1.363908,2.900100,-0.021991,-0.008552,0.012217
2025-12-31T15:46:03.861929,9.432506,-1.373480,2.947957,-0.025656,-0.004886,0.021991
2025-12-31T15:46:03.871929,9.384650,-1.339980,2.967100,-0.031764,-0.012217,0.024434
2025-12-31T15:46:03.881929,9.413364,-1.397408,2.947957,-0.035430,-0.023212,0.021991
2025-12-31T15:46:03.890929,9.470791,-1.459621,2.890529,-0.031764,-0.028099,0.017104
2025-12-31T15:46:03.900929,9.518648,-1.339980,2.991028,-0.028099,-0.025656,0.015882
2025-12-31T15:46:03.910929,9.485148,-1.287338,3.000599,-0.028099,-0.014660,0.013439
2025-12-31T15:46:03.919929,9.432506,-1.191625,3.110669,-0.036651,0.001221,0.009773
2025-12-31T15:46:03.929929,9.427721,-1.153340,3.110669,-0.067195,0.010995,0.007330
2025-12-31T15:46:03.938929,9.355936,-1.182054,3.081955,-0.109955,0.012217,0.004886
2025-12-31T15:46:03.948929,9.288937,-1.244267,3.043670,-0.157603,0.008552,0.006108
2025-12-31T15:46:03.958929,9.241080,-1.392622,3.072384,-0.189368,0.000000,0.004886
2025-12-31T15:46:03.967929,9.284151,-1.430907,2.981456,-0.196698,-0.015882,-0.002443
2025-12-31T15:46:03.977929,9.293722,-1.574477,3.096312,-0.175929,-0.021991,0.000000
2025-12-31T15:46:03.986929,9.317651,-1.593619,2.981456,-0.149051,-0.025656,-0.002443
2025-12-31T15:46:03.996929,9.365507,-1.603191,3.019742,-0.117286,-0.024434,-0.004886
2025-12-31T15:46:04.006929,9.375078,-1.550549,3.034099,-0.087964,-0.024434,-0.008552
2025-12-31T15:46:04.015929,9.494720,-1.574477,3.043670,-0.064751,-0.020769,-0.009773
2025-12-31T15:46:04.025929,9.489934,-1.497906,2.952743,-0.045204,-0.017104,-0.013439
2025-12-31T15:46:04.035929,9.528219,-1.488335,3.058027,-0.024434,-0.014660,-0.014660
2025-12-31T15:46:04.044929,9.576076,-1.464407,3.019742,-0.015882,-0.010995,-0.013439
2025-12-31T15:46:04.054929,9.533005,-1.440479,2.995813,-0.017104,-0.004886,-0.002443
2025-12-31T15:46:04.063929,9.547362,-1.359123,3.014956,-0.032986,-0.001221,0.007330
2025-12-31T15:46:04.073929,9.542576,-1.387837,2.986242,-0.054977,0.001221,0.015882
2025-12-31T15:46:04.083929,9.513862,-1.440479,2.976671,-0.068416,0.000000,0.026878
2025-12-31T15:46:04.092929,9.485148,-1.478764,2.976671,-0.069638,-0.003665,0.030543
2025-12-31T15:46:04.102929,9.456434,-1.488335,2.933600,-0.061086,0.001221,0.039095
2025-12-31T15:46:04.111929,9.451649,-1.507478,2.938386,-0.048869,0.006108,0.046425
2025-12-31T15:46:04.121929,9.408578,-1.531406,2.909672,-0.032986,0.009773,0.041538
2025-12-31T15:46:04.131929,9.394221,-1.402194,2.938386,-0.017104,0.019547,0.046425
2025-12-31T15:46:04.140929,9.322436,-1.383051,2.943171,-0.014660,0.023212,0.051312
2025-12-31T15:46:04.150929,9.317651,-1.330409,2.967100,-0.024434,0.014660,0.047647
2025-12-31T15:46:04.160929,9.308079,-1.306481,2.928814,-0.037873,0.006108,0.045204
2025-12-31T15:46:04.169929,9.336793,-1.306481,2.900100,-0.045204,-0.001221,0.048869
2025-12-31T15:46:04.179929,9.332008,-1.392622,2.909672,-0.054977,-0.009773,0.043982
2025-12-31T15:46:04.188929,9.351150,-1.406979,2.928814,-0.057421,-0.014660,0.039095
2025-12-31T15:46:04.198929,9.351150,-1.373480,3.014956,-0.051312,-0.009773,0.035430
2025-12-31T15:46:04.208929,9.360722,-1.383051,2.986242,-0.036651,-0.008552,0.025656
2025-12-31T15:46:04.217929,9.341579,-1.296909,2.986242,-0.032986,-0.006108,0.018325
2025-12-31T15:46:04.227929,9.370293,-1.287338,2.991028,-0.048869,-0.008552,0.012217
2025-12-31T15:46:04.236929,9.341579,-1.268195,3.029313,-0.076969,-0.014660,0.014660
2025-12-31T15:46:04.246929,9.461220,-1.306481,2.967100,-0.105068,-0.018325,0.017104
2025-12-31T15:46:04.256929,9.422935,-1.363908,3.000599,-0.117286,-0.021991,0.015882
2025-12-31T15:46:04.265929,9.408578,-1.406979,2.947957,-0.116064,-0.020769,0.010995
2025-12-31T15:46:04.275929,9.437292,-1.421336,2.943171,-0.111177,-0.019547,0.017104
2025-12-31T15:46:04.285929,9.504291,-1.540977,2.852244,-0.102625,-0.019547,0.020769
2025-12-31T15:46:04.294929,9.504291,-1.636690,2.924029,-0.085521,-0.024434,0.020769
2025-12-31T15:46:04.304929,9.547362,-1.569691,2.962314,-0.058643,-0.021991,0.019547
2025-12-31T15:46:04.313929,9.499505,-1.579262,2.933600,-0.028099,-0.014660,0.015882
2025-12-31T15:46:04.323929,9.509077,-1.526620,2.995813,0.000000,0.000000,0.020769
2025-12-31T15:46:04.333929,9.375078,-1.411765,2.957528,0.014660,0.008552,0.023212
2025-12-31T15:46:04.342929,9.284151,-1.416550,3.010170,0.020769,0.004886,0.030543
2025-12-31T15:46:04.352929,9.327222,-1.349551,2.991028,0.017104,-0.013439,0.026878
2025-12-31T15:46:04.361929,9.394221,-1.306481,2.991028,0.003665,-0.034208,0.025656
2025-12-31T15:46:04.371929,9.394221,-1.363908,2.957528,-0.004886,-0.052534,0.018325
2025-12-31T15:46:04.381929,9.533005,-1.430907,2.938386,-0.007330,-0.052534,0.010995
2025-12-31T15:46:04.390929,9.466006,-1.435693,2.943171,-0.002443,-0.039095,0.002443
2025-12-31T15:46:04.400929,9.442077,-1.387837,2.947957,0.004886,-0.014660,-0.003665
2025-12-31T15:46:04.410929,9.332008,-1.387837,3.000599,0.010995,0.000000,-0.007330
2025-12-31T15:46:04.419929,9.245866,-1.292124,2.981456,0.004886,-0.008552,-0.009773
2025-12-31T15:46:04.429929,9.221938,-1.392622,3.005385,-0.008552,-0.030543,-0.007330
2025-12-31T15:46:04.438929,9.274580,-1.430907,3.010170,-0.015882,-0.058643,-0.008552
2025-12-31T15:46:04.448929,9.332008,-1.430907,2.981456,-0.010995,-0.072082,-0.007330
2025-12-31T15:46:04.458929,9.513862,-1.502692,3.005385,0.006108,-0.070860,-0.012217
2025-12-31T15:46:04.467929,9.504291,-1.459621,3.034099,0.023212,-0.053756,-0.009773
2025-12-31T15:46:04.477929,9.451649,-1.387837,3.029313,0.028099,-0.036651,-0.009773
2025-12-31T15:46:04.486929,9.451649,-1.316052,3.029313,0.021991,-0.028099,-0.010995
2025-12-31T15:46:04.496929,9.437292,-1.287338,2.962314,0.008552,-0.031764,-0.006108
2025-12-31T15:46:04.506929,9.432506,-1.435693,2.976671,-0.012217,-0.040317,-0.007330
2025-12-31T15:46:04.515929,9.480363,-1.397408,2.995813,-0.020769,-0.048869,-0.007330
2025-12-31T15:46:04.525929,9.489934,-1.392622,2.991028,-0.023212,-0.046425,-0.004886
2025-12-31T15:46:04.535929,9.518648,-1.416550,2.909672,-0.021991,-0.041538,-0.006108
2025-12-31T15:46:04.544929,9.556933,-1.454836,3.010170,-0.021991,-0.034208,0.000000
2025-12-31T15:46:04.554929,9.494720,-1.430907,3.038884,-0.012217,-0.021991,0.002443
2025-12-31T15:46:04.563929,9.442077,-1.335195,3.024527,0.004886,-0.018325,-0.002443
2025-12-31T15:46:04.573929,9.408578,-1.263410,2.976671,0.006108,-0.018325,-0.002443
2025-12-31T15:46:04.583929,9.341579,-1.325623,2.967100,-0.009773,-0.023212,0.004886
2025-12-31T15:46:04.592929,9.375078,-1.306481,3.038884,-0.019547,-0.036651,0.001221
2025-12-31T15:46:04.602929,9.379864,-1.363908,2.981456,-0.019547,-0.048869,0.003665
2025-12-31T15:46:04.611929,9.370293,-1.450050,2.981456,-0.014660,-0.057421,-0.003665
2025-12-31T15:46:04.621929,9.446863,-1.469193,2.947957,0.008552,-0.056199,-0.006108
2025-12-31T15:46:04.631929,9.437292,-1.383051,2.967100,0.028099,-0.050090,-0.012217
2025-12-31T15:46:04.640929,9.418149,-1.378265,3.010170,0.034208,-0.039095,-0.018325
2025-12-31T15:46:04.650929,9.360722,-1.268195,3.077169,0.039095,-0.036651,-0.021991
2025-12-31T15:46:04.660929,9.355936,-1.220339,3.038884,0.031764,-0.034208,-0.020769
2025-12-31T15:46:04.669929,9.399007,-1.244267,3.038884,0.006108,-0.041538,-0.019547
2025-12-31T15:46:04.679929,9.308079,-1.292124,3.038884,-0.018325,-0.045204,-0.019547
2025-12-31T15:46:04.688929,9.375078,-1.354337,3.014956,-0.032986,-0.042760,-0.015882
2025-12-31T15:46:04.698929,9.375078,-1.411765,3.062812,-0.032986,-0.040317,-0.012217
2025-12-31T15:46:04.708929,9.365507,-1.402194,3.029313,-0.024434,-0.041538,-0.013439
2025-12-31T15:46:04.717929,9.375078,-1.459621,3.014956,-0.009773,-0.036651,-0.013439
2025-12-31T15:46:04.727929,9.355936,-1.373480,2.995813,0.006108,-0.039095,-0.014660
2025-12-31T15:46:04.736929,9.413364,-1.258624,3.024527,0.006108,-0.046425,-0.020769
2025-12-31T15:46:04.746929,9.456434,-1.359123,2.995813,0.001221,-0.052534,-0.023212
2025-12-31T15:46:04.756929,9.489934,-1.368694,2.986242,0.000000,-0.058643,-0.026878
2025-12-31T15:46:04.765929,9.499505,-1.421336,2.919243,0.007330,-0.052534,-0.025656
2025-12-31T15:46:04.775929,9.494720,-1.354337,3.014956,0.020769,-0.046425,-0.031764
2025-12-31T15:46:04.785929,9.499505,-1.368694,3.000599,0.026878,-0.041538,-0.030543
2025-12-31T15:46:04.794929,9.489934,-1.282552,2.995813,0.018325,-0.039095,-0.020769
2025-12-31T15:46:04.804929,9.422935,-1.258624,2.995813,-0.002443,-0.043982,-0.018325
2025-12-31T15:46:04.813929,9.427721,-1.320838,2.933600,-0.024434,-0.050090,-0.017104
2025-12-31T15:46:04.823929,9.365507,-1.306481,2.857030,-0.032986,-0.054977,-0.010995
2025-12-31T15:46:04.833929,9.360722,-1.363908,2.938386,-0.031764,-0.053756,-0.006108
2025-12-31T15:46:04.842929,9.451649,-1.421336,2.904886,-0.025656,-0.052534,-0.007330
2025-12-31T15:46:04.852929,9.394221,-1.411765,2.909672,-0.012217,-0.050090,-0.007330
2025-12-31T15:46:04.861929,9.437292,-1.354337,2.900100,0.002443,-0.043982,-0.001221
2025-12-31T15:46:04.871929,9.399007,-1.277767,2.909672,0.004886,-0.042760,-0.008552
2025-12-31T15:46:04.881929,9.399007,-1.234696,2.904886,-0.003665,-0.045204,-0.007330
2025-12-31T15:46:04.890929,9.418149,-1.215553,2.885744,-0.018325,-0.046425,-0.001221
2025-12-31T15:46:04.900929,9.399007,-1.182054,2.976671,-0.034208,-0.051312,0.001221
2025-12-31T15:46:04.910929,9.360722,-1.263410,2.885744,-0.051312,-0.050090,0.004886
2025-12-31T15:46:04.919929,9.355936,-1.220339,2.909672,-0.065973,-0.048869,0.004886
2025-12-31T15:46:04.929929,9.365507,-1.306481,2.880958,-0.070860,-0.051312,0.001221
2025-12-31T15:46:04.938929,9.322436,-1.344766,2.866601,-0.069638,-0.054977,0.001221
2025-12-31T15:46:04.948929,9.332008,-1.406979,2.837887,-0.067195,-0.058643,0.000000
2025-12-31T15:46:04.958929,9.336793,-1.373480,2.842673,-0.061086,-0.064751,-0.002443
2025-12-31T15:46:04.967929,9.355936,-1.359123,2.847458,-0.053756,-0.073303,-0.008552
2025-12-31T15:46:04.977929,9.418149,-1.306481,2.885744,-0.047647,-0.075747,-0.009773
2025-12-31T15:46:04.986929,9.504291,-1.301695,2.880958,-0.050090,-0.072082,-0.012217
2025-12-31T15:46:04.996929,9.485148,-1.229910,2.981456,-0.059864,-0.067195,-0.013439
2025-12-31T15:46:05.006929,9.470791,-1.287338,2.943171,-0.078190,-0.063529,-0.015882
2025-12-31T15:46:05.015929,9.451649,-1.234696,2.900100,-0.095294,-0.068416,-0.021991
2025-12-31T15:46:05.025929,9.518648,-1.320838,2.852244,-0.101403,-0.074525,-0.025656
2025-12-31T15:46:05.035929,9.533005,-1.430907,2.890529,-0.095294,-0.076969,-0.023212
2025-12-31T15:46:05.044929,9.494720,-1.359123,2.823530,-0.084299,-0.072082,-0.024434
2025-12-31T15:46:05.054929,9.470791,-1.359123,2.904886,-0.070860,-0.062308,-0.024434
2025-12-31T15:46:05.063929,9.413364,-1.378265,2.938386,-0.063529,-0.050090,-0.017104
2025-12-31T15:46:05.073929,9.399007,-1.344766,2.880958,-0.058643,-0.047647,-0.004886
2025-12-31T15:46:05.083929,9.260223,-1.368694,2.890529,-0.061086,-0.056199,-0.004886
2025-12-31T15:46:05.092929,9.336793,-1.411765,2.876172,-0.051312,-0.078190,0.000000
2025-12-31T15:46:05.102929,9.375078,-1.488335,2.852244,-0.036651,-0.100181,0.000000
2025-12-31T15:46:05.111929,9.523433,-1.512263,2.938386,-0.015882,-0.108733,-0.013439
2025-12-31T15:46:05.121929,9.638289,-1.397408,2.928814,0.017104,-0.094073,-0.020769
2025-12-31T15:46:05.131929,9.643075,-1.373480,2.857030,0.048869,-0.072082,-0.028099
2025-12-31T15:46:05.140929,9.451649,-1.268195,2.871387,0.057421,-0.059864,-0.035430
2025-12-31T15:46:05.150929,9.413364,-1.229910,2.847458,0.042760,-0.062308,-0.031764
2025-12-31T15:46:05.160929,9.384650,-1.234696,2.900100,0.018325,-0.073303,-0.025656
2025-12-31T15:46:05.169929,9.489934,-1.263410,2.880958,-0.004886,-0.094073,-0.019547
2025-12-31T15:46:05.179929,9.523433,-1.344766,2.847458,-0.017104,-0.108733,-0.018325
2025-12-31T15:46:05.188929,9.552147,-1.459621,2.885744,-0.002443,-0.111177,-0.014660
2025-12-31T15:46:05.198929,9.604789,-1.435693,2.876172,0.030543,-0.098960,-0.006108
2025-12-31T15:46:05.208929,9.628718,-1.430907,2.895315,0.057421,-0.084299,-0.007330
2025-12-31T15:46:05.217929,9.681360,-1.344766,2.823530,0.068416,-0.068416,-0.003665
2025-12-31T15:46:05.227929,9.590432,-1.339980,2.794816,0.064751,-0.063529,-0.002443
2025-12-31T15:46:05.236929,9.509077,-1.354337,2.914457,0.054977,-0.064751,-0.001221
2025-12-31T15:46:05.246929,9.509077,-1.301695,2.833101,0.050090,-0.075747,-0.003665
2025-12-31T15:46:05.256929,9.576076,-1.268195,2.785245,0.046425,-0.083077,0.003665
2025-12-31T15:46:05.265929,9.504291,-1.359123,2.794816,0.043982,-0.094073,0.001221
2025-12-31T15:46:05.275929,9.523433,-1.359123,2.809173,0.043982,-0.098960,0.003665
2025-12-31T15:46:05.285929,9.580861,-1.339980,2.761317,0.048869,-0.096516,0.003665
2025-12-31T15:46:05.294929,9.561719,-1.421336,2.895315,0.052534,-0.090408,0.004886
2025-12-31T15:46:05.304929,9.585647,-1.469193,2.847458,0.052534,-0.092851,0.008552
2025-12-31T15:46:05.313929,9.590432,-1.560120,2.780459,0.062308,-0.098960,0.013439
2025-12-31T15:46:05.323929,9.619146,-1.459621,2.699103,0.080634,-0.107512,0.019547
2025-12-31T15:46:05.333929,9.585647,-1.540977,2.660818,0.081855,-0.113620,0.026878
2025-12-31T15:46:05.342929,9.595218,-1.593619,2.737389,0.085521,-0.116064,0.028099
2025-12-31T15:46:05.352929,9.585647,-1.679761,2.718246,0.107512,-0.097738,0.030543
2025-12-31T15:46:05.361929,9.475577,-1.646261,2.727817,0.135612,-0.076969,0.024434
2025-12-31T15:46:05.371929,9.341579,-1.550549,2.766102,0.155159,-0.058643,0.029321
2025-12-31T15:46:05.381929,9.236295,-1.459621,2.694318,0.157603,-0.061086,0.030543
2025-12-31T15:46:05.390929,9.044869,-1.435693,2.723032,0.135612,-0.078190,0.032986
2025-12-31T15:46:05.400929,8.987441,-1.402194,2.670390,0.107512,-0.094073,0.043982
2025-12-31T15:46:05.410929,9.020941,-1.488335,2.636890,0.095294,-0.107512,0.059864
2025-12-31T15:46:05.419929,8.963513,-1.540977,2.603390,0.103847,-0.106290,0.072082
2025-12-31T15:46:05.429929,8.843872,-1.521835,2.584248,0.117286,-0.081855,0.098960
2025-12-31T15:46:05.438929,8.681160,-1.483550,2.598605,0.113620,-0.045204,0.124616
2025-12-31T15:46:05.448929,8.470592,-1.469193,2.536391,0.111177,-0.002443,0.156381
2025-12-31T15:46:05.458929,8.255237,-1.526620,2.641676,0.112399,0.030543,0.188146
2025-12-31T15:46:05.467929,7.987241,-1.569691,2.646461,0.120951,0.051312,0.222354
2025-12-31T15:46:05.477929,7.700103,-1.497906,2.651247,0.141720,0.061086,0.256563
2025-12-31T15:46:05.486929,7.532605,-1.473978,2.713460,0.151494,0.067195,0.295658
2025-12-31T15:46:05.496929,7.341179,-1.445264,2.732603,0.150272,0.079412,0.350636
2025-12-31T15:46:05.506929,7.101897,-1.445264,2.732603,0.140498,0.105068,0.403170
2025-12-31T15:46:05.515929,6.896114,-1.464407,2.794816,0.117286,0.142942,0.450818
2025-12-31T15:46:05.525929,6.623332,-1.536192,2.761317,0.103847,0.195476,0.509461
2025-12-31T15:46:05.535929,6.297909,-1.574477,2.703889,0.098960,0.248011,0.566882
2025-12-31T15:46:05.544929,6.063412,-1.698904,2.861815,0.080634,0.285884,0.619417
2025-12-31T15:46:05.554929,5.819344,-1.856830,2.895315,0.070860,0.300545,0.679282
2025-12-31T15:46:05.563929,5.771488,-2.024327,2.837887,0.086742,0.302989,0.735481
2025-12-31T15:46:05.573929,5.742774,-2.096112,2.732603,0.130725,0.290771,0.777020
2025-12-31T15:46:05.583929,5.694917,-2.120040,2.574677,0.180816,0.291993,0.823446
2025-12-31T15:46:05.592929,5.804987,-2.076970,2.627319,0.212581,0.307876,0.855211
2025-12-31T15:46:05.602929,5.938985,-2.091326,2.622533,0.211359,0.337197,0.873537
2025-12-31T15:46:05.611929,6.068198,-2.191825,2.766102,0.222354,0.381179,0.886976
2025-12-31T15:46:05.621929,6.135197,-2.488535,3.096312,0.246789,0.430049,0.886976
2025-12-31T15:46:05.631929,6.269195,-2.560320,3.225524,0.305432,0.485026,0.869871
2025-12-31T15:46:05.640929,6.288337,-2.579462,3.292523,0.427605,0.552222,0.849102
2025-12-31T15:46:05.650929,6.226124,-2.282752,3.287738,0.543669,0.625525,0.836885
2025-12-31T15:46:05.660929,6.154339,-2.043470,3.172882,0.548556,0.692721,0.836885
2025-12-31T15:46:05.669929,6.135197,-1.981257,2.957528,0.476474,0.748920,0.845437
2025-12-31T15:46:05.679929,5.915057,-2.005185,2.761317,0.387288,0.795346,0.875980
2025-12-31T15:46:05.688929,5.785845,-2.062613,2.603390,0.293215,0.833220,0.908967
2025-12-31T15:46:05.698929,5.685346,-2.139183,2.392822,0.223576,0.857654,0.930958
2025-12-31T15:46:05.708929,5.407779,-2.134397,2.435893,0.204028,0.873537,0.941954
2025-12-31T15:46:05.717929,5.326423,-2.120040,2.632104,0.184481,0.880867,0.952949
2025-12-31T15:46:05.727929,5.139782,-2.153540,2.775674,0.152716,0.878424,0.974940
2025-12-31T15:46:05.736929,4.953142,-2.139183,2.766102,0.166155,0.853989,0.968832
2025-12-31T15:46:05.746929,4.828716,-2.134397,2.828316,0.180816,0.817337,0.954171
2025-12-31T15:46:05.756929,4.766502,-2.172682,2.713460,0.146607,0.774576,0.929736
2025-12-31T15:46:05.765929,4.632504,-2.469392,2.694318,0.100181,0.712268,0.906523
2025-12-31T15:46:05.775929,4.670789,-3.005385,2.976671,0.101403,0.632856,0.868650
2025-12-31T15:46:05.785929,4.833501,-3.431307,3.053241,0.216246,0.538783,0.801455
2025-12-31T15:46:05.794929,5.058426,-3.570091,3.148954,0.415388,0.428827,0.728151
2025-12-31T15:46:05.804929,5.460421,-3.546163,3.388236,0.599869,0.346971,0.680503
2025-12-31T15:46:05.813929,5.814558,-3.426521,3.555734,0.723264,0.298102,0.649960
2025-12-31T15:46:05.823929,6.163911,-3.215953,3.622733,0.796568,0.296880,0.623082
2025-12-31T15:46:05.833929,6.393621,-3.077169,3.527020,0.823446,0.343306,0.619417
2025-12-31T15:46:05.842929,6.369693,-3.101098,3.670589,0.842993,0.410501,0.607199
2025-12-31T15:46:05.852929,6.283552,-3.153740,3.952942,0.858876,0.471587,0.592539
2025-12-31T15:46:05.861929,6.269195,-3.182454,4.326223,0.882089,0.515570,0.587652
2025-12-31T15:46:05.871929,6.417550,-3.239881,4.857429,0.915075,0.516791,0.586430
2025-12-31T15:46:05.881929,6.719045,-3.297309,5.312066,0.868650,0.480139,0.607199
2025-12-31T15:46:05.890929,7.159325,-3.507877,5.642275,0.795346,0.430049,0.620638
2025-12-31T15:46:05.900929,7.877171,-3.665804,5.938985,0.755029,0.384845,0.613308
2025-12-31T15:46:05.910929,8.446663,-3.622733,6.168696,0.726929,0.376292,0.587652
2025-12-31T15:46:05.919929,8.896514,-3.393022,5.982056,0.718377,0.409279,0.579100
2025-12-31T15:46:05.929929,9.169296,-2.770888,5.800201,0.669508,0.464257,0.621860
2025-12-31T15:46:05.938929,9.298508,-2.483749,5.929414,0.465479,0.535117,0.713490
2025-12-31T15:46:05.948929,9.183653,-2.603390,5.848058,0.146607,0.610865,0.834441
2025-12-31T15:46:05.958929,8.920442,-3.101098,5.733202,-0.215024,0.667064,0.984714
2025-12-31T15:46:05.967929,8.609375,-3.952942,5.675775,-0.580321,0.692721,1.133765
2025-12-31T15:46:05.977929,8.494520,-5.182853,5.843272,-0.862541,0.669508,1.240056
2025-12-31T15:46:05.986929,8.585447,-6.364908,6.226124,-0.949284,0.592539,1.286481
2025-12-31T15:46:05.996929,8.910871,-7.331608,6.723831,-0.822224,0.474031,1.277929
2025-12-31T15:46:06.006929,9.619146,-7.819744,7.202396,-0.519235,0.349414,1.229060
2025-12-31T15:46:06.015929,10.561918,-7.848458,7.714460,-0.123394,0.273667,1.194852
2025-12-31T15:46:06.025929,11.399406,-7.326822,7.901100,0.302989,0.332310,1.154535
2025-12-31T15:46:06.035929,11.772687,-6.312266,7.298108,0.692721,0.549778,1.117883
2025-12-31T15:46:06.044929,11.490334,-4.862215,6.738188,0.904080,0.874758,1.128878
2025-12-31T15:46:06.054929,10.619346,-3.617947,6.642475,0.769690,1.208291,1.205847
2025-12-31T15:46:06.063929,9.676574,-3.000599,6.752545,0.307876,1.409876,1.277929
2025-12-31T15:46:06.073929,8.915657,-3.091526,7.025327,-0.277332,1.435533,1.345124
2025-12-31T15:46:06.083929,8.551947,-3.641875,7.546962,-0.811228,1.270599,1.391550
2025-12-31T15:46:06.092929,8.484948,-4.216153,7.853243,-1.178969,1.047022,1.408654
2025-12-31T15:46:06.102929,8.638089,-4.881358,7.901100,-1.442863,0.860098,1.456302
2025-12-31T15:46:06.111929,8.685946,-5.771488,7.834101,-1.670105,0.744033,1.546710
2025-12-31T15:46:06.121929,8.776873,-6.905686,7.642675,-1.780060,0.685390,1.605353
2025-12-31T15:46:06.131929,8.776873,-8.054240,7.489534,-1.715309,0.682947,1.638340
2025-12-31T15:46:06.140929,8.791230,-8.949156,7.202396,-1.512502,0.711046,1.646892
2025-12-31T15:46:06.150929,8.767302,-9.628718,7.116254,-1.231504,0.703716,1.646892
2025-12-31T15:46:06.160929,8.958727,-9.958927,7.149753,-0.908967,0.645073,1.638340
2025-12-31T15:46:06.169929,9.341579,-9.839286,7.255038,-0.613308,0.560774,1.612683
2025-12-31T15:46:06.179929,9.939785,-9.178867,7.398607,-0.381179,0.525343,1.588249
2025-12-31T15:46:06.188929,10.317851,-7.992027,7.384250,-0.218689,0.549778,1.577253
2025-12-31T15:46:06.198929,10.198209,-6.742974,7.657032,-0.229685,0.673173,1.551597
2025-12-31T15:46:06.208929,9.552147,-6.020341,7.814958,-0.461814,0.858876,1.523497
2025-12-31T15:46:06.217929,8.451449,-5.958128,7.757530,-0.745255,1.005483,1.514945
2025-12-31T15:46:06.227929,7.283751,-6.092126,7.623532,-0.971275,1.023809,1.510058
2025-12-31T15:46:06.236929,6.360122,-6.518048,7.527819,-1.202182,0.890641,1.477071
2025-12-31T15:46:06.246929,5.929414,-7.484749,7.479963,-1.396437,0.619417,1.389107
2025-12-31T15:46:06.256929,6.187839,-8.647660,7.393821,-1.470963,0.255341,1.257160
2025-12-31T15:46:06.265929,7.082754,-9.743573,7.374679,-1.387885,-0.147829,1.099557
2025-12-31T15:46:06.275929,8.317451,-10.533205,7.178467,-1.176526,-0.491135,0.912632
2025-12-31T15:46:06.285929,9.609575,-10.872985,6.838686,-0.822224,-0.690277,0.702494
2025-12-31T15:46:06.294929,10.504491,-10.925627,6.819544,-0.368962,-0.676838,0.478918
2025-12-31T15:46:06.304929,10.834700,-10.494919,6.967899,0.050090,-0.450818,0.238237
2025-12-31T15:46:06.313929,10.566704,-9.906285,7.106683,0.339641,-0.135612,0.000000
2025-12-31T15:46:06.323929,9.667003,-9.221938,7.073183,0.478918,0.076969,-0.235793
2025-12-31T15:46:06.333929,8.786444,-8.695517,6.891329,0.482583,0.078190,-0.493579
2025-12-31T15:46:06.342929,8.159525,-8.499305,6.570690,0.452040,-0.095294,-0.802676
2025-12-31T15:46:06.352929,7.968099,-8.370093,6.187839,0.465479,-0.378736,-1.105665
2025-12-31T15:46:06.361929,8.226524,-8.207381,6.163911,0.454483,-0.729372,-1.358564
2025-12-31T15:46:06.371929,8.987441,-8.303094,6.178267,0.403170,-1.072679,-1.565036
2025-12-31T15:46:06.381929,10.188638,-8.461020,6.192624,0.381179,-1.302364,-1.717752
2025-12-31T15:46:06.390929,11.117053,-8.556733,5.862415,0.466700,-1.393994,-1.847256
2025-12-31T15:46:06.400929,11.571690,-8.336593,5.656632,0.671951,-1.435533,-1.981646
2025-12-31T15:46:06.410929,11.691331,-7.862815,5.608776,0.872315,-1.413541,-2.106262
2025-12-31T15:46:06.419929,11.509476,-7.523034,5.833701,1.001818,-1.342681,-2.232101
2025-12-31T15:46:06.429929,11.069197,-7.623532,6.206981,1.170417,-1.275486,-2.345722
2025-12-31T15:46:06.438929,10.767701,-7.575676,6.436692,1.469741,-1.269377,-2.452012
2025-12-31T15:46:06.448929,10.609775,-7.154539,6.652046,1.825264,-1.329242,-2.525316
2025-12-31T15:46:06.458929,10.700702,-6.513263,6.790830,2.118480,-1.419650,-2.566855
2025-12-31T15:46:06.467929,10.839486,-5.814558,6.479763,2.328617,-1.503949,-2.601063
2025-12-31T15:46:06.477929,11.188838,-4.809573,6.077769,2.476447,-1.589471,-2.645045
2025-12-31T15:46:06.486929,11.346764,-3.603590,5.637490,2.513099,-1.644448,-2.678032
2025-12-31T15:46:06.496929,11.361121,-2.378465,5.067998,2.394591,-1.662774,-2.679254
2025-12-31T15:46:06.506929,11.356336,-1.244267,4.541577,2.117258,-1.673770,-2.645045
2025-12-31T15:46:06.515929,11.050054,-0.421136,4.230510,1.688431,-1.703091,-2.592511
2025-12-31T15:46:06.525929,10.753344,-0.076570,3.790230,1.188743,-1.776395,-2.558303
2025-12-31T15:46:06.535929,10.624132,-0.210568,3.646661,0.664621,-1.920559,-2.517985
2025-12-31T15:46:06.544929,10.667203,-0.713061,3.661018,0.166155,-2.138027,-2.483777
2025-12-31T15:46:06.554929,11.059626,-1.507478,3.436093,-0.146607,-2.386039,-2.500881
2025-12-31T15:46:06.563929,11.547761,-1.808973,3.014956,-0.234572,-2.592511,-2.528981
2025-12-31T15:46:06.573929,12.208180,-1.718046,2.885744,-0.234572,-2.693915,-2.575407
2025-12-31T15:46:06.583929,12.725030,-1.536192,2.699103,-0.248011,-2.671923,-2.608394
2025-12-31T15:46:06.592929,12.978669,-1.229910,2.833101,-0.255341,-2.570520,-2.638937
2025-12-31T15:46:06.602929,12.969098,-0.890130,2.794816,-0.291993,-2.439795,-2.668258
2025-12-31T15:46:06.611929,12.839886,-0.708275,2.842673,-0.377514,-2.333504,-2.702467
2025-12-31T15:46:06.621929,12.605389,-0.856630,2.914457,-0.467922,-2.312735,-2.737897
2025-12-31T15:46:06.631929,12.763315,-1.076770,3.148954,-0.546113,-2.381152,-2.756223
2025-12-31T15:46:06.640929,13.112667,-1.373480,2.924029,-0.577878,-2.499660,-2.773327
2025-12-31T15:46:06.650929,13.768301,-1.497906,2.871387,-0.559552,-2.612059,-2.773327
2025-12-31T15:46:06.660929,14.366506,-1.473978,2.751745,-0.549778,-2.665815,-2.758666
2025-12-31T15:46:06.669929,14.955141,-1.521835,2.421536,-0.543669,-2.632828,-2.726901
2025-12-31T15:46:06.679929,15.247065,-1.306481,2.124826,-0.547335,-2.526538,-2.648711
2025-12-31T15:46:06.688929,15.357135,-1.100698,1.890329,-0.624304,-2.356717,-2.524094
2025-12-31T15:46:06.698929,15.060425,-0.985842,1.679761,-0.769690,-2.149023,-2.383595
2025-12-31T15:46:06.708929,14.514861,-0.918843,1.670190,-0.913854,-1.925446,-2.260200
2025-12-31T15:46:06.717929,13.830514,-0.803988,1.698904,-1.051909,-1.732413,-2.140471
2025-12-31T15:46:06.727929,13.083953,-0.775274,1.751546,-1.192408,-1.610240,-2.023185
2025-12-31T15:46:06.736929,12.524033,-0.851844,1.938186,-1.307251,-1.551597,-1.905899
2025-12-31T15:46:06.746929,12.126824,-0.909272,1.933400,-1.380555,-1.539380,-1.761734
2025-12-31T15:46:06.756929,11.959327,-0.875773,1.981257,-1.456302,-1.554040,-1.602910
2025-12-31T15:46:06.765929,12.026326,-0.899701,2.000399,-1.561371,-1.551597,-1.451415
2025-12-31T15:46:06.775929,12.189038,-1.115055,2.024327,-1.660331,-1.491732,-1.309694
2025-12-31T15:46:06.785929,12.279965,-1.301695,1.904686,-1.755626,-1.343903,-1.154535
2025-12-31T15:46:06.794929,12.021540,-1.569691,1.856830,-1.841147,-1.108109,-1.014036
2025-12-31T15:46:06.804929,11.461620,-1.880758,1.761117,-1.925446,-0.772133,-0.883310
2025-12-31T15:46:06.813929,10.370493,-2.249253,1.627119,-1.948659,-0.362853,-0.778242
2025-12-31T15:46:06.823929,8.729016,-2.354537,1.473978,-1.898568,0.047647,-0.684168
2025-12-31T15:46:06.833929,6.809973,-2.187039,1.239482,-1.844812,0.381179,-0.594982
2025-12-31T15:46:06.842929,4.713860,-2.349751,1.445264,-1.861916,0.541226,-0.514348
2025-12-31T15:46:06.852929,2.579462,-2.837887,1.942971,-1.908342,0.569326,-0.307876
2025-12-31T15:46:06.861929,0.866201,-3.330809,2.392822,-1.767843,0.436157,-0.084299
2025-12-31T15:46:06.871929,-0.196211,-3.646661,2.311466,-1.499062,0.173485,0.051312
2025-12-31T15:46:06.881929,-0.306281,-3.866801,2.282752,-1.175304,-0.208915,0.100181
2025-12-31T15:46:06.890929,0.516849,-3.613162,2.761317,-0.786794,-0.569326,0.145385
2025-12-31T15:46:06.900929,1.627119,-2.756531,3.134597,-0.430049,-0.704938,0.218689
2025-12-31T15:46:06.910929,2.550748,-1.737189,3.010170,-0.229685,-0.555887,0.332310
2025-12-31T15:46:06.919929,2.871387,-0.981057,2.727817,-0.226020,-0.213802,0.443488
2025-12-31T15:46:06.929929,2.464607,-0.526420,2.445464,-0.356745,0.204028,0.543669
2025-12-31T15:46:06.938929,1.445264,-0.535992,2.187039,-0.475253,0.553443,0.629191
2025-12-31T15:46:06.948929,0.358923,-0.521635,1.708475,-0.544891,0.712268,0.704938
2025-12-31T15:46:06.958929,-0.540777,-0.516849,1.416550,-0.593760,0.669508,0.785572
2025-12-31T15:46:06.967929,-0.818345,-0.483350,1.258624,-0.623082,0.488692,0.841772
2025-12-31T15:46:06.977929,-0.483350,-0.478564,1.397408,-0.607199,0.256563,0.878424
2025-12-31T15:46:06.986929,0.387637,-0.172283,1.588834,-0.548556,0.047647,0.902858
2025-12-31T15:46:06.996929,1.368694,0.296710,1.799402,-0.492357,-0.056199,0.917519
2025-12-31T15:46:07.006929,2.201396,0.803988,1.981257,-0.520457,-0.028099,0.905302
2025-12-31T15:46:07.015929,2.866601,1.076770,1.875972,-0.638964,0.068416,0.862541
2025-12-31T15:46:07.025929,3.297309,1.057627,1.837687,-0.799011,0.150272,0.796568
2025-12-31T15:46:07.035929,3.900300,0.808774,1.919043,-0.961501,0.147829,0.719599
2025-12-31T15:46:07.044929,4.689932,0.492921,1.828116,-1.099557,0.032986,0.623082
2025-12-31T15:46:07.054929,5.982056,0.114855,1.674975,-1.178969,-0.185702,0.499687
2025-12-31T15:46:07.063929,7.532605,-0.205782,1.430907,-1.191186,-0.485026,0.332310
2025-12-31T15:46:07.073929,9.719645,-0.248853,1.076770,-1.178969,-0.846659,0.118507
2025-12-31T15:46:07.083929,12.442677,-0.291924,0.933200,-1.176526,-1.244943,-0.129503
2025-12-31T15:46:07.092929,15.586846,-0.674775,0.607776,-1.205847,-1.518610,-0.313984
2025-12-31T15:46:07.102929,18.262022,-0.976271,0.210568,-1.253495,-1.508836,-0.301767
2025-12-31T15:46:07.111929,20.300707,-1.612762,0.148355,-1.346346,-1.202182,-0.311541
2025-12-31T15:46:07.121929,21.114265,-2.742174,0.272781,-1.463632,-0.511904,-0.395840
2025-12-31T15:46:07.131929,19.903498,-3.981656,0.636490,-1.314581,0.428827,-0.464257
2025-12-31T15:46:07.140929,16.965113,-4.445864,1.167697,-0.880867,1.464854,-0.476474
2025-12-31T15:46:07.150929,13.069597,-3.952942,1.698904,-0.419053,2.383595,-0.420275
2025-12-31T15:46:07.160929,9.073583,-2.895315,1.995614,-0.048869,3.003012,-0.201585
2025-12-31T15:46:07.169929,5.493920,-1.469193,2.292324,0.201585,3.103194,0.208915
2025-12-31T15:46:07.179929,2.316252,0.277567,2.761317,0.206472,2.570520,0.634077
2025-12-31T15:46:07.188929,0.674775,0.976271,2.545963,-0.101403,1.466076,0.893084
2025-12-31T15:46:07.198929,1.612762,0.368494,1.703689,-0.397062,0.168598,1.075122
2025-12-31T15:46:07.208929,4.402793,-0.301495,1.856830,-0.514348,-0.834441,1.259603
2025-12-31T15:46:07.217929,7.365107,-0.981057,2.230110,-0.559552,-1.315803,1.372003
2025-12-31T15:46:07.227929,9.820143,-2.024327,1.670190,-0.464257,-1.365894,1.372003
2025-12-31T15:46:07.236929,11.442477,-2.656033,0.971485,-0.079412,-1.031140,1.279151
2025-12-31T15:46:07.246929,12.212966,-2.541177,0.818345,0.447153,-0.430049,1.092226
2025-12-31T15:46:07.256929,11.916256,-1.890329,1.033699,0.916297,0.243124,0.878424
2025-12-31T15:46:07.265929,10.480562,-0.851844,1.052841,1.299920,0.811228,0.758694
2025-12-31T15:46:07.275929,8.599804,0.162711,1.201196,1.431867,1.133765,0.676838
2025-12-31T15:46:07.285929,6.838686,0.521635,1.459621,1.303586,1.230282,0.604756
2025-12-31T15:46:07.294929,5.335994,0.358923,1.584048,1.127656,1.126435,0.574213
2025-12-31T15:46:07.304929,4.144368,0.052642,1.914258,0.972497,0.851545,0.590095
2025-12-31T15:46:07.313929,3.565305,-0.459421,1.813759,0.834441,0.449596,0.616973
2025-12-31T15:46:07.323929,3.885943,-1.071984,1.756331,0.778242,0.029321,0.636521
2025-12-31T15:46:07.333929,4.723431,-1.402194,1.828116,0.813672,-0.289550,0.638964
2025-12-31T15:46:07.342929,5.637490,-1.579262,1.899901,0.821002,-0.410501,0.657290
2025-12-31T15:46:07.352929,6.130411,-1.942971,1.861615,0.824667,-0.351858,0.648738
2025-12-31T15:46:07.361929,6.168696,-2.263610,1.722832,0.894306,-0.174707,0.614530
2025-12-31T15:46:07.371929,5.737988,-2.593819,1.727617,1.054353,0.043982,0.557108
2025-12-31T15:46:07.381929,5.101497,-2.397608,1.890329,1.269377,0.217467,0.526565
2025-12-31T15:46:07.390929,4.488935,-1.986042,2.105683,1.469741,0.305432,0.515570
2025-12-31T15:46:07.400929,4.110869,-1.488335,1.938186,1.591914,0.299323,0.538783
2025-12-31T15:46:07.410929,4.077369,-0.847059,1.995614,1.573588,0.238237,0.603534
2025-12-31T15:46:07.419929,4.326223,-0.521635,2.191825,1.418428,0.175929,0.678060
2025-12-31T15:46:07.429929,4.857429,-0.464207,2.206182,1.177747,0.144164,0.774576
2025-12-31T15:46:07.438929,5.393422,-0.799202,2.177468,0.894306,0.171042,0.883310
2025-12-31T15:46:07.448929,5.776273,-1.416550,2.033899,0.614530,0.262671,0.974940
2025-12-31T15:46:07.458929,5.962913,-2.230110,1.847259,0.421496,0.399505,1.031140
2025-12-31T15:46:07.467929,6.034698,-2.933600,1.899901,0.406836,0.543669,1.042135
2025-12-31T15:46:07.477929,5.986842,-3.086741,1.995614,0.559552,0.653625,1.031140
2025-12-31T15:46:07.486929,5.766702,-2.627319,1.952543,0.750142,0.730594,1.034805
2025-12-31T15:46:07.496929,5.704489,-1.909472,2.139183,0.828333,0.773355,1.047022
2025-12-31T15:46:07.506929,5.704489,-1.244267,2.397608,0.729372,0.816115,1.093448
2025-12-31T15:46:07.515929,5.680560,-0.957129,2.330609,0.516791,0.863763,1.147204
2025-12-31T15:46:07.525929,5.541777,-1.009771,2.120040,0.282219,0.905302,1.218065
2025-12-31T15:46:07.535929,5.422136,-1.339980,1.957328,0.057421,0.908967,1.276708
2025-12-31T15:46:07.544929,5.398207,-1.909472,1.741974,-0.116064,0.862541,1.331685
2025-12-31T15:46:07.554929,5.589633,-2.402393,1.627119,-0.212581,0.791681,1.392772
2025-12-31T15:46:07.563929,5.905486,-2.885744,1.627119,-0.223576,0.728151,1.436754
2025-12-31T15:46:07.573929,6.307480,-3.192025,1.698904,-0.167377,0.676838,1.469741
2025-12-31T15:46:07.583929,6.733402,-3.464807,1.966900,-0.064751,0.649960,1.497841
2025-12-31T15:46:07.592929,7.188039,-3.488735,2.158325,0.076969,0.663399,1.530827
2025-12-31T15:46:07.602929,7.408178,-3.072384,2.364108,0.207694,0.708603,1.567479
2025-12-31T15:46:07.611929,7.566105,-2.737389,2.368894,0.238237,0.784350,1.629788
2025-12-31T15:46:07.621929,7.298108,-2.550748,2.297109,0.161268,0.855211,1.705535
2025-12-31T15:46:07.631929,7.044469,-2.612962,2.139183,0.063529,0.884532,1.769065
2025-12-31T15:46:07.640929,6.728617,-2.995813,2.009970,0.015882,0.844215,1.825264
2025-12-31T15:46:07.650929,6.561119,-3.354737,2.038684,0.043982,0.730594,1.858251
2025-12-31T15:46:07.660929,6.604190,-3.718446,2.254038,0.140498,0.568104,1.872912
2025-12-31T15:46:07.669929,6.967899,-4.024727,2.531606,0.255341,0.364075,1.882686
2025-12-31T15:46:07.679929,7.661817,-4.153940,2.895315,0.351858,0.153938,1.887573
2025-12-31T15:46:07.688929,8.504091,-4.388436,3.120240,0.482583,-0.006108,1.896125
2025-12-31T15:46:07.698929,9.355936,-4.369294,3.225524,0.614530,-0.094073,1.925446
2025-12-31T15:46:07.708929,10.011569,-4.335794,3.282952,0.682947,-0.085521,1.973094
2025-12-31T15:46:07.717929,10.461420,-4.637290,3.574876,0.687834,-0.015882,2.037846
2025-12-31T15:46:07.727929,10.724630,-5.072783,4.043870,0.682947,0.064751,2.083050
2025-12-31T15:46:07.736929,10.700702,-5.623133,3.919443,0.701273,0.120951,2.124588
2025-12-31T15:46:07.746929,10.863414,-5.991627,3.589233,0.748920,0.117286,2.167349
2025-12-31T15:46:07.756929,11.030912,-6.111268,3.148954,0.785572,0.039095,2.250427
2025-12-31T15:46:07.765929,11.763115,-6.379265,3.809373,0.642630,-0.095294,2.383595
2025-12-31T15:46:07.775929,12.614960,-7.432106,4.345365,0.313984,-0.208915,2.553416
2025-12-31T15:46:07.785929,13.653445,-8.977870,4.603790,0.167377,-0.245567,2.653598
2025-12-31T15:46:07.794929,14.687145,-10.193424,5.417350,0.307876,-0.174707,2.673145
2025-12-31T15:46:07.804929,15.716058,-10.896914,6.537191,0.586430,0.030543,2.643824
2025-12-31T15:46:07.813929,16.433905,-11.112268,7.446463,0.963945,0.353080,2.587624
2025-12-31T15:46:07.823929,16.496119,-10.418349,7.647461,1.419650,0.741590,2.515542
2025-12-31T15:46:07.833929,15.893127,-8.944370,7.948956,1.773952,1.150869,2.430021
2025-12-31T15:46:07.842929,14.888142,-7.570890,8.102097,1.817934,1.510058,2.388482
2025-12-31T15:46:07.852929,13.667802,-6.369693,8.293523,1.556484,1.684765,2.438573
2025-12-31T15:46:07.861929,12.801600,-5.843272,8.427521,1.048244,1.670105,2.514320
2025-12-31T15:46:07.871929,12.318250,-5.881557,8.039883,0.409279,1.545488,2.634050
2025-12-31T15:46:07.881929,12.337393,-6.417550,7.752745,-0.210137,1.374446,2.774549
2025-12-31T15:46:07.890929,12.480962,-7.379464,7.475177,-0.744033,1.202182,2.918713
2025-12-31T15:46:07.900929,12.581461,-8.561519,6.929614,-1.071457,1.069013,2.989573
2025-12-31T15:46:07.910929,12.495319,-9.566504,6.331408,-1.111774,0.999375,2.993239
2025-12-31T15:46:07.919929,12.055040,-10.179067,6.159125,-0.950506,1.012814,2.941926
2025-12-31T15:46:07.929929,11.432906,-10.432706,6.020341,-0.627969,1.055574,2.830748
2025-12-31T15:46:07.938929,10.738987,-10.231709,6.053841,-0.240680,1.011592,2.686584
2025-12-31T15:46:07.948929,10.121639,-9.652646,6.230910,-0.014660,0.904080,2.500881
2025-12-31T15:46:07.958929,9.729216,-9.504291,5.589633,0.041538,0.752585,2.298074
2025-12-31T15:46:07.967929,9.647860,-9.231509,5.225924,0.144164,0.557108,2.153910
2025-12-31T15:46:07.977929,9.643075,-8.681160,5.556134,0.224798,0.351858,1.942551
2025-12-31T15:46:07.986929,9.604789,-8.662017,5.824130,0.164933,0.218689,1.653000
2025-12-31T15:46:07.996929,9.499505,-9.226723,6.307480,0.107512,0.161268,1.374446
2025-12-31T15:46:08.006929,9.341579,-9.997212,6.833901,0.175929,0.129503,1.108109
2025-12-31T15:46:08.015929,9.226723,-10.437492,6.661618,0.419053,0.092851,0.841772
2025-12-31T15:46:08.025929,9.006584,-10.327422,6.221338,0.758694,0.043982,0.576656
2025-12-31T15:46:08.035929,8.872586,-9.781858,5.867201,1.009149,0.026878,0.291993
2025-12-31T15:46:08.044929,8.705088,-9.341579,5.685346,1.054353,0.030543,0.025656
2025-12-31T15:46:08.054929,8.537591,-9.059226,5.527420,0.976162,-0.020769,-0.232128
2025-12-31T15:46:08.063929,8.542376,-8.863014,5.479563,0.952949,-0.131946,-0.515570
2025-12-31T15:46:08.073929,8.575876,-8.470592,5.594419,0.961501,-0.267558,-0.792902
2025-12-31T15:46:08.083929,8.384450,-7.968099,5.943771,0.910189,-0.340862,-1.022588
2025-12-31T15:46:08.092929,7.929814,-7.566105,6.269195,0.831998,-0.364075,-1.252273
2025-12-31T15:46:08.102929,7.317251,-7.044469,6.340979,0.755029,-0.370184,-1.441641
2025-12-31T15:46:08.111929,6.580262,-6.340979,6.336194,0.619417,-0.464257,-1.577253
2025-12-31T15:46:08.121929,6.082555,-5.891129,6.120840,0.387288,-0.692721,-1.651779
2025-12-31T15:46:08.131929,6.058626,-5.785845,5.800201,0.076969,-1.031140,-1.693318
2025-12-31T15:46:08.140929,6.589833,-6.532405,5.766702,-0.250454,-1.397659,-1.813047
2025-12-31T15:46:08.150929,7.551748,-7.929814,5.422136,-0.399505,-1.714087,-2.034180
2025-12-31T15:46:08.160929,8.499305,-9.351150,5.350351,-0.235793,-1.958433,-2.258979
2025-12-31T15:46:08.169929,9.623932,-10.250852,5.426921,0.223576,-2.120923,-2.478890
2025-12-31T15:46:08.179929,10.609775,-10.389635,5.402993,0.886976,-2.167349,-2.690249
2025-12-31T15:46:08.188929,11.303693,-9.743573,5.245067,1.583362,-2.127032,-2.846631
2025-12-31T15:46:08.198929,11.681759,-8.508877,5.278566,2.139249,-2.026850,-2.951700
2025-12-31T15:46:08.208929,11.633903,-7.178467,4.981856,2.526538,-1.874134,-3.028669
2025-12-31T15:46:08.217929,11.284551,-5.828915,4.354937,2.767218,-1.731191,-3.051882
2025-12-31T15:46:08.227929,10.614561,-4.560719,3.823730,2.850296,-1.662774,-3.015230
2025-12-31T15:46:08.236929,9.853643,-3.627519,3.426521,2.779436,-1.661553,-2.919935
2025-12-31T15:46:08.246929,9.207581,-2.962314,3.062812,2.629163,-1.744630,-2.834414
2025-12-31T15:46:08.256929,8.676374,-2.239681,2.713460,2.448347,-1.925446,-2.763553
2025-12-31T15:46:08.265929,8.537591,-1.512263,2.488535,2.235766,-2.196670,-2.720793
2025-12-31T15:46:08.275929,8.681160,-1.028913,2.416750,1.986533,-2.544864,-2.685363
2025-12-31T15:46:08.285929,9.408578,-0.751346,2.565105,1.707978,-2.916270,-2.634050
2025-12-31T15:46:08.294929,10.408778,-0.449850,2.679961,1.458745,-3.220480,-2.592511
2025-12-31T15:46:08.304929,11.499905,-0.172283,2.679961,1.246164,-3.407405,-2.553416
2025-12-31T15:46:08.313929,12.370892,0.220139,2.541177,1.036027,-3.468492,-2.511877
2025-12-31T15:46:08.323929,13.079168,0.531206,2.550748,0.786794,-3.431840,-2.469116
2025-12-31T15:46:08.333929,13.495519,0.818345,2.522035,0.486248,-3.332880,-2.416582
2025-12-31T15:46:08.342929,13.591232,0.909272,2.421536,0.131946,-3.253467,-2.351830
2025-12-31T15:46:08.352929,13.500305,0.851844,2.239681,-0.243124,-3.226589,-2.298074
2025-12-31T15:46:08.361929,13.591232,0.693918,2.019542,-0.605978,-3.254689,-2.265087
2025-12-31T15:46:08.371929,13.964512,0.430708,2.048256,-0.950506,-3.334101,-2.249205
2025-12-31T15:46:08.381929,14.471791,0.062213,1.942971,-1.222951,-3.389079,-2.266309
2025-12-31T15:46:08.390929,15.146567,-0.167497,1.904686,-1.391550,-3.401296,-2.307848
2025-12-31T15:46:08.400929,15.792629,-0.358923,1.622333,-1.486845,-3.363423,-2.348165
2025-12-31T15:46:08.410929,16.467405,-0.330209,1.488335,-1.544267,-3.271793,-2.384817
2025-12-31T15:46:08.419929,16.898113,-0.277567,1.497906,-1.593136,-3.101973,-2.399478
2025-12-31T15:46:08.429929,17.084753,-0.124426,1.397408,-1.656666,-2.839301,-2.379930
2025-12-31T15:46:08.438929,17.022539,-0.569491,1.564905,-1.743409,-2.463008,-2.293187
2025-12-31T15:46:08.448929,15.433705,0.186640,0.114855,-1.729969,-1.902233,-1.985311
2025-12-31T15:46:08.458929,13.806586,1.674975,0.411565,-1.921781,-1.787391,-1.964542
2025-12-31T15:46:08.467929,13.600803,1.081555,0.976271,-2.649932,-1.887573,-2.017076
2025-12-31T15:46:08.477929,13.308879,-0.110069,0.196211,-2.983465,-1.830151,-1.860695
2025-12-31T15:46:08.486929,12.739387,-0.315852,0.172283,-3.054325,-1.621236,-1.589471
2025-12-31T15:46:08.496929,11.954541,-0.851844,0.157926,-3.375640,-1.387885,-1.402546
2025-12-31T15:46:08.506929,11.337193,-2.172682,0.023928,-3.578447,-1.161865,-1.275486
2025-12-31T15:46:08.515929,10.609775,-2.842673,0.301495,-3.434283,-0.919962,-1.122770
2025-12-31T15:46:08.525929,9.690931,-3.086741,0.502492,-3.242472,-0.675616,-0.976162
2025-12-31T15:46:08.535929,8.767302,-3.311666,0.497707,-3.109303,-0.449596,-0.839328
2025-12-31T15:46:08.544929,7.795816,-3.397808,0.559920,-2.918713,-0.262671,-0.698829
2025-12-31T15:46:08.554929,6.848258,-3.311666,0.818345,-2.729345,-0.139277,-0.559552
2025-12-31T15:46:08.563929,5.967699,-3.340380,0.875773,-2.596176,-0.080634,-0.416610
2025-12-31T15:46:08.573929,5.297709,-3.469592,0.842273,-2.441016,-0.078190,-0.285884
2025-12-31T15:46:08.583929,4.843072,-3.426521,0.741775,-2.246761,-0.098960,-0.167377
2025-12-31T15:46:08.592929,4.488935,-3.460021,0.794417,-2.059837,-0.127059,-0.048869
2025-12-31T15:46:08.602929,4.364508,-3.579662,0.861416,-1.879021,-0.155159,0.054977
2025-12-31T15:46:08.611929,4.321437,-3.756731,1.110269,-1.685987,-0.167377,0.145385
2025-12-31T15:46:08.621929,4.297509,-3.900300,1.249053,-1.485623,-0.150272,0.222354
2025-12-31T15:46:08.631929,4.297509,-3.967299,1.521835,-1.257160,-0.106290,0.279776
2025-12-31T15:46:08.640929,4.168296,-3.996013,1.641476,-0.999375,-0.048869,0.326201
2025-12-31T15:46:08.650929,3.929014,-3.818944,1.756331,-0.733038,0.023212,0.366519
2025-12-31T15:46:08.660929,3.689732,-3.493520,1.895115,-0.489913,0.103847,0.399505
2025-12-31T15:46:08.669929,3.292523,-3.177668,2.124826,-0.280997,0.167377,0.428827
2025-12-31T15:46:08.679929,3.105883,-2.780459,2.388036,-0.130725,0.197920,0.463035
2025-12-31T15:46:08.688929,3.038884,-2.378465,2.545963,-0.020769,0.199142,0.519235
2025-12-31T15:46:08.698929,3.139383,-2.009970,2.713460,0.059864,0.168598,0.583987
2025-12-31T15:46:08.708929,3.507877,-1.584048,2.809173,0.065973,0.133168,0.657290
2025-12-31T15:46:08.717929,3.909872,-1.210768,2.656033,-0.003665,0.145385,0.734259
2025-12-31T15:46:08.727929,4.302295,-0.995414,2.780459,-0.120951,0.216246,0.805120
2025-12-31T15:46:08.736929,4.517649,-0.866201,2.708675,-0.263893,0.327423,0.882089
2025-12-31T15:46:08.746929,4.426721,-0.818345,2.598605,-0.403170,0.433714,0.943175
2025-12-31T15:46:08.756929,4.331008,-0.847059,2.340180,-0.522900,0.502131,0.984714
2025-12-31T15:46:08.765929,4.297509,-1.028913,2.277967,-0.618195,0.498465,0.998153
2025-12-31T15:46:08.775929,4.398007,-1.177268,2.029113,-0.668286,0.430049,0.993266
2025-12-31T15:46:08.785929,4.785645,-1.296909,2.033899,-0.682947,0.335975,0.957836
2025-12-31T15:46:08.794929,5.206781,-1.311266,1.986042,-0.689055,0.248011,0.884532
2025-12-31T15:46:08.804929,5.728417,-1.445264,2.081755,-0.687834,0.169820,0.768468
2025-12-31T15:46:08.813929,6.312266,-1.627119,2.072184,-0.675616,0.102625,0.631634
2025-12-31T15:46:08.823929,6.838686,-1.727617,2.201396,-0.634077,0.039095,0.469144
2025-12-31T15:46:08.833929,7.369893,-1.942971,2.368894,-0.570548,-0.039095,0.282219
2025-12-31T15:46:08.842929,8.121239,-2.182254,2.411965,-0.489913,-0.141720,0.098960
2025-12-31T15:46:08.852929,8.930013,-2.335394,2.455035,-0.365297,-0.259006,-0.096516
2025-12-31T15:46:08.861929,9.791430,-2.388036,2.522035,-0.227241,-0.362853,-0.265115
2025-12-31T15:46:08.871929,10.600204,-2.469392,2.632104,-0.083077,-0.386066,-0.397062
2025-12-31T15:46:08.881929,11.160124,-2.225325,2.617747,0.056199,-0.376292,-0.514348
2025-12-31T15:46:08.890929,11.466405,-2.096112,2.847458,0.166155,-0.349414,-0.591317
2025-12-31T15:46:08.900929,11.590832,-2.014756,2.785245,0.250454,-0.260228,-0.598647
2025-12-31T15:46:08.910929,11.327622,-1.861615,2.593819,0.359188,-0.075747,-0.551000
2025-12-31T15:46:08.919929,10.475777,-1.641476,2.474178,0.444709,0.207694,-0.442266
2025-12-31T15:46:08.929929,9.073583,-1.540977,2.292324,0.426383,0.508239,-0.280997
2025-12-31T15:46:08.938929,7.527819,-1.727617,2.124826,0.317649,0.697607,-0.103847
2025-12-31T15:46:08.948929,6.202196,-2.076970,2.024327,0.262671,0.730594,0.046425
2025-12-31T15:46:08.958929,5.278566,-2.636890,2.191825,0.322536,0.616973,0.164933
2025-12-31T15:46:08.967929,4.938785,-2.857030,2.014756,0.502131,0.400727,0.259006
2025-12-31T15:46:08.977929,5.254638,-2.708675,1.694118,0.769690,0.158824,0.338419
2025-12-31T15:46:08.986929,5.900700,-2.115255,1.808973,0.995710,0.013439,0.403170
2025-12-31T15:46:08.996929,6.527620,-1.569691,1.789831,1.083674,0.032986,0.472809
2025-12-31T15:46:09.006929,6.699903,-1.258624,1.808973,1.078787,0.189368,0.543669
2025-12-31T15:46:09.015929,6.398407,-0.918843,1.832902,1.018923,0.406836,0.630412
2025-12-31T15:46:09.025929,5.647061,-0.832702,1.962114,0.889419,0.630412,0.718377
2025-12-31T15:46:09.035929,4.752145,-0.952343,1.933400,0.814894,0.825889,0.795346
2025-12-31T15:46:09.044929,3.747160,-0.803988,1.861615,0.840550,0.974940,0.873537
2025-12-31T15:46:09.054929,2.890529,-0.468993,1.756331,0.842993,1.044579,0.950506
2025-12-31T15:46:09.063929,2.148754,-0.133998,1.502692,0.774576,1.033583,1.034805
2025-12-31T15:46:09.073929,1.751546,0.062213,1.507478,0.667064,0.962723,1.100778
2025-12-31T15:46:09.083929,1.507478,0.038285,1.316052,0.555887,0.863763,1.159421
2025-12-31T15:46:09.092929,1.521835,-0.110069,1.201196,0.436157,0.751364,1.210734
2025-12-31T15:46:09.102929,1.674975,-0.430708,1.110269,0.342084,0.658512,1.251051
2025-12-31T15:46:09.111929,2.000399,-0.894915,1.205982,0.311541,0.597426,1.275486
2025-12-31T15:46:09.121929,2.321037,-1.292124,1.210768,0.388510,0.561995,1.274264
2025-12-31T15:46:09.131929,2.823530,-1.521835,1.277767,0.564439,0.566882,1.258382
2025-12-31T15:46:09.140929,3.239881,-1.450050,1.335195,0.796568,0.609643,1.214399
2025-12-31T15:46:09.150929,3.699303,-1.205982,1.646261,1.025031,0.675616,1.167974
2025-12-31T15:46:09.160929,4.115654,-0.842273,2.100898,1.180191,0.748920,1.142317
2025-12-31T15:46:09.169929,4.532006,-0.622133,2.541177,1.254716,0.830776,1.125213
2025-12-31T15:46:09.179929,4.862215,-0.478564,2.670390,1.262047,0.922406,1.115439
2025-12-31T15:46:09.188929,5.302494,-0.043070,2.206182,1.199739,0.976162,1.132543
2025-12-31T15:46:09.198929,5.714060,0.531206,1.694118,0.998153,0.950506,1.191186
2025-12-31T15:46:09.208929,6.317051,0.952343,1.684547,0.555887,0.850324,1.308473
2025-12-31T15:46:09.217929,7.307680,0.382851,1.928615,-0.034208,0.752585,1.436754
2025-12-31T15:46:09.227929,8.240881,-0.784845,2.321037,-0.564439,0.718377,1.528384
2025-12-31T15:46:09.236929,9.169296,-2.153540,2.507678,-0.917519,0.774576,1.598023
2025-12-31T15:46:09.246929,9.801001,-3.311666,2.818745,-1.011592,0.901636,1.598023
2025-12-31T15:46:09.256929,10.289137,-3.708875,3.330809,-0.921184,1.051909,1.562592
2025-12-31T15:46:09.265929,10.609775,-3.517449,3.785445,-0.861319,1.188743,1.588249
2025-12-31T15:46:09.275929,10.614561,-3.053241,3.991228,-0.973718,1.304807,1.692096
2025-12-31T15:46:09.285929,10.456634,-2.957528,3.675375,-1.210734,1.365894,1.805717
2025-12-31T15:46:09.294929,9.968498,-4.378865,2.914457,-1.469741,1.321912,1.935220
2025-12-31T15:46:09.304929,9.891928,-6.541976,2.928814,-1.527162,1.171639,2.017076
2025-12-31T15:46:09.313929,10.135996,-8.695517,3.115455,-1.172861,1.023809,2.030515
2025-12-31T15:46:09.323929,10.691131,-9.724431,3.220739,-0.504574,0.921184,2.101375
2025-12-31T15:46:09.333929,11.700902,-11.686545,5.187639,0.163711,0.862541,2.204001
2025-12-31T15:46:09.342929,10.068997,-7.791030,-0.976271,1.176526,1.083674,2.554637
2025-12-31T15:46:09.352929,11.992826,-8.126025,3.689732,1.070235,0.489913,2.463008
2025-12-31T15:46:09.361929,14.021940,-9.719645,4.101297,0.637743,0.130725,2.224770
2025-12-31T15:46:09.371929,15.232708,-10.150353,2.823530,0.943175,0.190589,2.346943
2025-12-31T15:46:09.381929,15.400206,-9.078368,2.096112,1.249830,0.492357,2.579072
2025-12-31T15:46:09.390929,15.381063,-8.748159,2.215753,1.086118,0.740368,2.602285
2025-12-31T15:46:09.400929,15.323635,-8.642875,2.660818,1.020144,0.949284,2.543642
2025-12-31T15:46:09.410929,15.074782,-7.786244,3.680161,1.094670,1.181413,2.605950
2025-12-31T15:46:09.419929,14.251651,-7.097111,4.134797,0.915075,1.391550,2.736675
2025-12-31T15:46:09.429929,13.280165,-7.144968,4.469792,0.612086,1.491732,2.792875
2025-12-31T15:46:09.438929,12.662817,-7.460820,5.111069,0.423940,1.442863,2.784323
2025-12-31T15:46:09.448929,12.294322,-7.982456,5.680560,0.355523,1.282816,2.762332
2025-12-31T15:46:09.458929,12.236894,-8.303094,5.785845,0.427605,1.081231,2.734232
2025-12-31T15:46:09.467929,12.586246,-8.355736,5.833701,0.618195,0.929736,2.698802
2025-12-31T15:46:09.477929,12.729816,-8.154739,5.599204,0.769690,0.918741,2.689028
2025-12-31T15:46:09.486929,12.605389,-8.020741,5.455635,0.779463,0.999375,2.720793
2025-12-31T15:46:09.496929,12.069397,-8.236095,5.546562,0.674395,1.076344,2.757445
2025-12-31T15:46:09.506929,11.538190,-8.719445,5.379065,0.601091,1.066570,2.769662
2025-12-31T15:46:09.515929,11.231909,-9.083154,5.498706,0.659734,0.954171,2.739119
2025-12-31T15:46:09.525929,11.255837,-9.312865,5.929414,0.842993,0.781907,2.645045
2025-12-31T15:46:09.535929,11.495119,-9.178867,6.250052,1.126435,0.608421,2.517985
2025-12-31T15:46:09.544929,12.035897,-8.508877,6.489334,1.417207,0.481361,2.417804
2025-12-31T15:46:09.554929,12.586246,-7.666603,6.613761,1.554040,0.434935,2.328617
2025-12-31T15:46:09.563929,13.026526,-7.034898,6.494120,1.494176,0.463035,2.227214
2025-12-31T15:46:09.573929,13.361521,-6.886543,6.407978,1.301142,0.513126,2.125810
2025-12-31T15:46:09.583929,13.529018,-7.135396,6.096911,1.056796,0.526565,1.998750
2025-12-31T15:46:09.592929,13.758729,-7.566105,5.737988,0.868650,0.459370,1.841147
2025-12-31T15:46:09.602929,14.050654,-7.814958,5.814558,0.731816,0.351858,1.659109
2025-12-31T15:46:09.611929,14.438291,-8.044669,6.092126,0.626747,0.287106,1.429424
2025-12-31T15:46:09.621929,14.476576,-8.102097,6.192624,0.535117,0.271224,1.189965
2025-12-31T15:46:09.631929,14.285150,-7.862815,6.412764,0.474031,0.268780,0.961501
2025-12-31T15:46:09.640929,13.653445,-7.302894,6.943971,0.421496,0.276111,0.746477
2025-12-31T15:46:09.650929,12.811172,-6.685546,7.355536,0.304210,0.284663,0.551000
2025-12-31T15:46:09.660929,11.858828,-6.350551,7.872386,0.125838,0.248011,0.372627
2025-12-31T15:46:09.669929,10.944770,-6.077769,8.456235,-0.035430,0.147829,0.208915
2025-12-31T15:46:09.679929,10.064211,-6.034698,8.738588,-0.141720,0.006108,0.067195
2025-12-31T15:46:09.688929,9.236295,-6.302694,8.796015,-0.173485,-0.156381,-0.065973
2025-12-31T15:46:09.698929,8.446663,-6.556333,8.714659,-0.075747,-0.290771,-0.228463
2025-12-31T15:46:09.708929,7.613961,-6.561119,8.618947,0.149051,-0.379958,-0.427605
2025-12-31T15:46:09.717929,6.809973,-6.130411,8.508877,0.395840,-0.476474,-0.629191
2025-12-31T15:46:09.727929,6.412764,-5.603990,8.317451,0.542448,-0.660956,-0.818559
2025-12-31T15:46:09.736929,6.441478,-5.125426,8.049455,0.526565,-0.955393,-0.994488
2025-12-31T15:46:09.746929,7.044469,-5.144568,7.298108,0.408057,-1.296255,-1.167974
2025-12-31T15:46:09.756929,7.996813,-4.871786,6.460621,0.315206,-1.599244,-1.320690
2025-12-31T15:46:09.765929,8.896514,-4.302295,5.680560,0.150272,-1.760513,-1.457524
2025-12-31T15:46:09.775929,9.513862,-4.039084,4.742574,-0.196698,-1.805717,-1.533271
2025-12-31T15:46:09.785929,9.982855,-4.326223,4.230510,-0.645073,-1.837482,-1.547932
2025-12-31T15:46:09.794929,10.461420,-4.991427,4.106083,-1.105665,-1.866803,-1.580918
2025-12-31T15:46:09.804929,10.772487,-6.058626,3.871586,-1.436754,-1.865582,-1.628566
2025-12-31T15:46:09.813929,10.820343,-6.915257,3.694518,-1.554040,-1.806938,-1.668883
2025-12-31T15:46:09.823929,10.791629,-7.422535,3.761517,-1.503949,-1.742187,-1.734856
2025-12-31T15:46:09.833929,10.954341,-7.872386,4.101297,-1.350011,-1.703091,-1.832595
2025-12-31T15:46:09.842929,10.968698,-7.948956,4.110869,-1.102000,-1.668883,-1.943772
2025-12-31T15:46:09.852929,11.145767,-7.508677,3.943371,-0.831998,-1.612683,-2.052506
2025-12-31T15:46:09.861929,10.954341,-7.097111,3.546163,-0.665842,-1.516167,-2.122145
2025-12-31T15:46:09.871929,10.528419,-6.872186,3.144168,-0.572991,-1.404989,-2.210109
2025-12-31T15:46:09.881929,10.001998,-6.714260,2.670390,-0.426383,-1.328020,-2.343278
2025-12-31T15:46:09.890929,9.408578,-6.407978,2.239681,-0.194255,-1.325577,-2.499660
2025-12-31T15:46:09.900929,8.891728,-5.972485,1.828116,0.089186,-1.406211,-2.664593
2025-12-31T15:46:09.910929,8.580661,-5.302494,1.454836,0.337197,-1.561371,-2.787988
2025-12-31T15:46:09.919929,8.480163,-4.522434,1.220339,0.489913,-1.783726,-2.890613
2025-12-31T15:46:09.929929,8.786444,-3.795016,1.095912,0.536339,-2.084271,-3.001791
2025-12-31T15:46:09.938929,9.389435,-3.101098,0.952343,0.481361,-2.449569,-3.108081
2025-12-31T15:46:09.948929,10.356136,-2.565105,0.890130,0.353080,-2.828305,-3.194824
2025-12-31T15:46:09.958929,11.437692,-2.206182,0.885344,0.200363,-3.158172,-3.279123
2025-12-31T15:46:09.967929,12.643674,-1.899901,1.071984,0.031764,-3.402518,-3.353649
2025-12-31T15:46:09.977929,13.744373,-1.588834,1.033699,-0.109955,-3.522248,-3.407405
2025-12-31T15:46:09.986929,14.572289,-1.239482,1.205982,-0.223576,-3.536908,-3.451387
2025-12-31T15:46:09.996929,15.113067,-0.899701,1.459621,-0.381179,-3.496591,-3.484374
2025-12-31T15:46:10.006929,15.586846,-0.875773,1.718046,-0.558330,-3.437948,-3.494148
2025-12-31T15:46:10.015929,15.912270,-0.995414,2.038684,-0.704938,-3.411070,-3.495370
2025-12-31T15:46:10.025929,16.414762,-1.272981,2.115255,-0.791681,-3.419622,-3.480709
2025-12-31T15:46:10.035929,16.950754,-1.526620,2.287538,-0.789237,-3.404962,-3.455053
2025-12-31T15:46:10.044929,17.529818,-1.808973,2.316252,-0.717155,-3.314554,-3.412292
2025-12-31T15:46:10.054929,17.936598,-1.995614,2.421536,-0.607199,-3.132516,-3.331658
2025-12-31T15:46:10.063929,18.027525,-2.139183,2.565105,-0.466700,-2.841744,-3.224146
2025-12-31T15:46:10.073929,17.816957,-2.076970,2.182254,-0.356745,-2.476447,-3.078760
2025-12-31T15:46:10.083929,17.118252,-1.938186,1.837687,-0.318871,-2.065945,-2.891835
2025-12-31T15:46:10.092929,15.945769,-1.794616,1.670190,-0.344527,-1.633453,-2.685363
2025-12-31T15:46:10.102929,14.443077,-1.765903,1.588834,-0.388510,-1.246164,-2.466673
2025-12-31T15:46:10.111929,12.993026,-1.526620,1.497906,-0.431270,-0.939510,-2.224770
2025-12-31T15:46:10.121929,11.389835,-1.306481,1.402194,-0.521678,-0.685390,-1.935220
2025-12-31T15:46:10.131929,9.891928,-1.028913,1.316052,-0.653625,-0.486248,-1.618792
2025-12-31T15:46:10.140929,8.489734,-0.909272,1.416550,-0.806341,-0.350636,-1.308473
2025-12-31T15:46:10.150929,7.298108,-0.803988,1.330409,-0.973718,-0.267558,-1.003040
2025-12-31T15:46:10.160929,6.197410,-0.770488,1.277767,-1.136209,-0.237015,-0.711046
2025-12-31T15:46:10.169929,5.513063,-0.765703,1.220339,-1.304807,-0.248011,-0.433714
2025-12-31T15:46:10.179929,5.015356,-1.138983,1.210768,-1.470963,-0.287106,-0.195476
2025-12-31T15:46:10.188929,4.843072,-1.536192,1.076770,-1.584584,-0.326201,0.009773
2025-12-31T15:46:10.198929,4.809573,-1.899901,1.038485,-1.618792,-0.317649,0.188146
2025-12-31T15:46:10.208929,4.761716,-2.081755,1.172483,-1.599244,-0.245567,0.328645
2025-12-31T15:46:10.217929,4.599005,-2.273181,1.301695,-1.544267,-0.125838,0.425162
2025-12-31T15:46:10.227929,4.378865,-2.258824,1.531406,-1.468519,0.012217,0.497244
2025-12-31T15:46:10.236929,4.005585,-2.143969,1.631905,-1.420872,0.164933,0.560774
2025-12-31T15:46:10.246929,3.699303,-2.120040,1.832902,-1.404989,0.309097,0.603534
2025-12-31T15:46:10.256929,3.335594,-2.024327,1.928615,-1.400102,0.433714,0.631634
2025-12-31T15:46:10.265929,2.861815,-2.033899,2.033899,-1.401324,0.529009,0.658512
2025-12-31T15:46:10.275929,2.522035,-2.158325,2.053041,-1.398881,0.577878,0.682947
2025-12-31T15:46:10.285929,2.182254,-2.191825,2.148754,-1.384220,0.596204,0.701273
2025-12-31T15:46:10.294929,1.957328,-2.359323,2.163111,-1.350011,0.591317,0.702494
2025-12-31T15:46:10.304929,1.895115,-2.469392,2.258824,-1.286481,0.581543,0.698829
2025-12-31T15:46:10.313929,1.923829,-2.569891,2.321037,-1.180191,0.572991,0.685390
2025-12-31T15:46:10.323929,2.053041,-2.574677,2.459821,-1.031140,0.563217,0.665842
2025-12-31T15:46:10.333929,2.321037,-2.435893,2.459821,-0.871093,0.553443,0.641408
2025-12-31T15:46:10.342929,2.823530,-2.115255,2.359323,-0.724486,0.568104,0.605978
2025-12-31T15:46:10.352929,3.287738,-1.708475,2.364108,-0.631634,0.598647,0.561995
2025-12-31T15:46:10.361929,3.751945,-1.263410,2.277967,-0.620638,0.638964,0.504574
2025-12-31T15:46:10.371929,4.158725,-0.942772,2.072184,-0.646295,0.663399,0.412944
2025-12-31T15:46:10.381929,4.622933,-0.602991,2.053041,-0.742811,0.641408,0.312762
2025-12-31T15:46:10.390929,5.221138,-0.358923,1.636690,-0.895528,0.572991,0.171042
2025-12-31T15:46:10.400929,5.996413,-0.205782,1.263410,-1.080009,0.464257,-0.020769
2025-12-31T15:46:10.410929,6.771687,-0.157926,0.985842,-1.301142,0.324980,-0.243124
2025-12-31T15:46:10.419929,7.824529,-0.315852,0.751346,-1.543045,0.172263,-0.455705
2025-12-31T15:46:10.429929,8.949156,-0.660419,0.617348,-1.765400,0.029321,-0.658512
2025-12-31T15:46:10.438929,10.092925,-1.067198,0.387637,-1.919338,-0.058643,-0.847880
2025-12-31T15:46:10.448929,11.117053,-1.526620,0.220139,-2.024406,-0.057421,-1.010370
2025-12-31T15:46:10.458929,11.681759,-2.043470,0.382851,-2.086715,0.043982,-1.133765
2025-12-31T15:46:10.467929,11.815757,-2.450250,0.952343,-2.090380,0.204028,-1.227838
2025-12-31T15:46:10.477929,11.289337,-2.852244,1.555334,-2.056171,0.401949,-1.205847
2025-12-31T15:46:10.486929,10.313065,-3.134597,2.105683,-2.006081,0.608421,-1.073900
2025-12-31T15:46:10.496929,9.126225,-3.326023,2.522035,-1.927890,0.788015,-0.862541
2025-12-31T15:46:10.506929,7.987241,-3.747160,3.062812,-1.833817,0.938288,-0.575434
2025-12-31T15:46:10.515929,5.273781,-1.947757,0.066999,-1.699426,1.302364,0.163711
2025-12-31T15:46:10.525929,3.885943,-1.928615,2.268395,-1.604131,0.785572,0.050090
2025-12-31T15:46:10.535929,4.484149,-3.058027,1.832902,-1.828930,0.169820,-0.112399
2025-12-31T15:46:10.544929,5.532205,-4.115654,1.517049,-1.412320,-0.202807,0.083077
2025-12-31T15:46:10.554929,6.570690,-3.651447,1.502692,-0.778242,-0.322536,0.335975
2025-12-31T15:46:10.563929,7.642675,-4.010370,0.923629,-0.502131,-0.449596,0.444709
2025-12-31T15:46:10.573929,8.930013,-4.761716,0.669990,-0.142942,-0.558330,0.493579
2025-12-31T15:46:10.583929,10.001998,-4.689932,0.827916,0.400727,-0.535117,0.543669
2025-12-31T15:46:10.592929,10.652846,-4.249652,0.397208,0.855211,-0.354301,0.563217
2025-12-31T15:46:10.602929,10.547562,-3.450450,0.014356,1.233947,-0.079412,0.548556
2025-12-31T15:46:10.611929,9.815358,-2.416750,0.196211,1.501506,0.190589,0.554665
2025-12-31T15:46:10.621929,8.805587,-1.770688,0.105284,1.569923,0.373849,0.591317
2025-12-31T15:46:10.631929,7.623532,-1.473978,-0.138783,1.574810,0.433714,0.649960
2025-12-31T15:46:10.640929,6.709474,-1.483550,0.224925,1.582140,0.378736,0.718377
2025-12-31T15:46:10.650929,6.226124,-1.770688,0.756131,1.602910,0.257785,0.750142
2025-12-31T15:46:10.660929,6.044269,-2.000399,1.009771,1.605353,0.172263,0.822224
2025-12-31T15:46:10.669929,5.838487,-2.067398,0.966700,1.648114,0.183259,0.869871
2025-12-31T15:46:10.679929,5.417350,-1.756331,0.971485,1.715309,0.302989,0.893084
2025-12-31T15:46:10.688929,4.752145,-1.229910,1.172483,1.770287,0.489913,0.926071
2025-12-31T15:46:10.698929,3.842873,-0.612562,1.325623,1.772730,0.691499,0.992044
2025-12-31T15:46:10.708929,2.837887,-0.028713,1.488335,1.701870,0.879645,1.091005
2025-12-31T15:46:10.717929,1.770688,0.397208,1.555334,1.544267,1.007927,1.220508
2025-12-31T15:46:10.727929,0.827916,0.574277,1.560120,1.354898,1.059240,1.362229
2025-12-31T15:46:10.736929,0.162711,0.674775,1.713260,1.147204,0.999375,1.508836
2025-12-31T15:46:10.746929,-0.105284,0.248853,1.684547,0.849102,0.844215,1.688431
2025-12-31T15:46:10.756929,-0.052642,-0.492921,1.631905,0.630412,0.641408,1.809382
2025-12-31T15:46:10.765929,0.631705,-1.210768,1.775474,0.620638,0.439822,1.847256
2025-12-31T15:46:10.775929,1.622333,-1.689332,1.957328,0.774576,0.340862,1.866803
2025-12-31T15:46:10.785929,2.641676,-1.517049,1.871187,1.037248,0.367740,1.839925
2025-12-31T15:46:10.794929,3.359522,-1.000199,1.545763,1.270599,0.497244,1.776395
2025-12-31T15:46:10.804929,3.637090,-0.291924,1.162911,1.361007,0.646295,1.732413
2025-12-31T15:46:10.813929,3.742374,0.200997,0.870987,1.269377,0.708603,1.705535
2025-12-31T15:46:10.823929,4.077369,0.220139,0.784845,1.054353,0.654847,1.698205
2025-12-31T15:46:10.833929,4.718646,-0.143569,1.014556,0.790459,0.504574,1.707978
2025-12-31T15:46:10.842929,5.881557,-1.234696,1.660618,0.461814,0.313984,1.765400
2025-12-31T15:46:10.852929,7.317251,-2.828316,1.885544,0.241902,0.156381,1.805717
2025-12-31T15:46:10.861929,8.910871,-4.144368,2.110469,0.293215,0.073303,1.771508
2025-12-31T15:46:10.871929,10.475777,-4.709074,2.622533,0.576656,0.085521,1.692096
2025-12-31T15:46:10.881929,11.767901,-4.412364,2.947957,0.868650,0.183259,1.651779
2025-12-31T15:46:10.890929,13.021740,-3.565305,3.330809,0.982271,0.334754,1.653000
2025-12-31T15:46:10.900929,13.830514,-2.574677,3.967299,0.885754,0.564439,1.671326
2025-12-31T15:46:10.910929,13.998012,-1.483550,4.374079,0.582765,0.884532,1.737300
2025-12-31T15:46:10.919929,13.179666,-1.134197,4.752145,0.083077,1.222951,1.863138
2025-12-31T15:46:10.929929,11.940184,-1.713260,4.728217,-0.510683,1.462411,2.058615
2025-12-31T15:46:10.938929,10.762916,-2.823530,4.163511,-1.065348,1.514945,2.321287
2025-12-31T15:46:10.948929,9.901499,-4.838287,3.148954,-1.417207,1.389107,2.553416
2025-12-31T15:46:10.958929,9.652646,-7.173682,2.038684,-1.386663,1.132543,2.664593
2025-12-31T15:46:10.967929,9.949356,-9.097511,0.952343,-0.929736,0.838106,2.681697
2025-12-31T15:46:10.977929,10.853843,-10.514062,0.607776,-0.248011,0.548556,2.675589
2025-12-31T15:46:10.986929,12.428320,-11.136196,1.129412,0.481361,0.255341,2.671923
2025-12-31T15:46:10.996929,14.577075,-10.959127,2.287538,1.171639,0.079412,2.711019
2025-12-31T15:46:11.006929,16.496119,-10.116853,3.125026,1.681100,0.155159,2.783101
2025-12-31T15:46:11.015929,17.965311,-8.973084,4.268795,1.864360,0.443488,2.853961
2025-12-31T15:46:11.025929,18.630516,-7.939385,5.402993,1.824043,0.902858,2.849074
2025-12-31T15:46:11.035929,17.931812,-6.948756,5.479563,1.731191,1.415985,2.838079
2025-12-31T15:46:11.044929,16.371693,-5.704489,5.383850,1.533271,1.805717,2.893057
2025-12-31T15:46:11.054929,14.385649,-4.823930,5.072783,1.110552,1.964542,2.959030
2025-12-31T15:46:11.063929,12.490533,-4.905286,4.115654,0.538783,1.899790,3.028669
2025-12-31T15:46:11.073929,11.212766,-6.226124,3.278166,0.030543,1.674992,3.100751
2025-12-31T15:46:11.083929,10.916056,-8.183453,3.091526,-0.190589,1.369559,3.141068
2025-12-31T15:46:11.092929,11.284551,-9.719645,2.947957,-0.014660,1.089783,3.161837
2025-12-31T15:46:11.102929,11.916256,-10.509276,2.895315,0.416610,0.888197,3.152063
2025-12-31T15:46:11.111929,12.720244,-10.528419,3.397808,0.885754,0.822224,3.092199
2025-12-31T15:46:11.121929,13.280165,-10.016355,3.814159,1.328020,0.916297,3.011564
2025-12-31T15:46:11.131929,13.275379,-9.068797,4.153940,1.694539,1.077566,2.946813
2025-12-31T15:46:11.140929,12.710673,-7.824529,4.527220,1.854586,1.215621,2.894278
2025-12-31T15:46:11.150929,12.031112,-6.747759,4.862215,1.826486,1.296255,2.855183
2025-12-31T15:46:11.160929,11.318050,-5.752345,5.206781,1.707978,1.346346,2.805092
2025-12-31T15:46:11.169929,10.581061,-5.201996,5.685346,1.450193,1.356120,2.795318
2025-12-31T15:46:11.179929,9.925428,-5.374279,6.039484,1.043357,1.290147,2.846631
2025-12-31T15:46:11.188929,9.714859,-6.474977,6.446264,0.604756,1.160643,2.896722
2025-12-31T15:46:11.198929,9.820143,-7.896314,6.623332,0.322536,1.012814,2.857626
2025-12-31T15:46:11.208929,10.131210,-9.001798,6.374479,0.316428,0.910189,2.725680
2025-12-31T15:46:11.217929,10.246066,-9.518648,6.269195,0.464257,0.904080,2.541198
2025-12-31T15:46:11.227929,10.231709,-9.437292,6.393621,0.656069,0.959058,2.310291
2025-12-31T15:46:11.236929,9.920642,-8.695517,6.690331,0.806341,0.999375,2.072054
2025-12-31T15:46:11.246929,9.523433,-7.642675,7.168896,0.720820,1.007927,1.869247
2025-12-31T15:46:11.256929,9.092725,-6.987041,7.475177,0.354301,0.968832,1.715309
2025-12-31T15:46:11.265929,8.800801,-6.809973,7.609175,-0.084299,0.831998,1.518610
2025-12-31T15:46:11.275929,8.461020,-6.886543,7.594818,-0.463035,0.657290,1.262047
2025-12-31T15:46:11.285929,8.035098,-7.274180,7.503891,-0.810007,0.487470,0.976162
2025-12-31T15:46:11.294929,7.585247,-7.925028,7.814958,-1.045801,0.301767,0.643851
2025-12-31T15:46:11.304929,7.221538,-8.772087,8.303094,-1.167974,0.059864,0.320093
2025-12-31T15:46:11.313929,6.896114,-9.719645,8.456235,-1.145982,-0.219911,0.025656
2025-12-31T15:46:11.323929,6.853043,-10.250852,8.647660,-0.917519,-0.564439,-0.289550
2025-12-31T15:46:11.333929,7.274180,-10.346564,8.930013,-0.544891,-0.902858,-0.613308
2025-12-31T15:46:11.342929,7.824529,-9.963713,8.939585,-0.096516,-1.123991,-0.921184
2025-12-31T15:46:11.352929,8.212167,-9.322436,8.709874,0.301767,-1.156978,-1.214399
2025-12-31T15:46:11.361929,8.087740,-8.638089,8.231309,0.564439,-1.036027,-1.488067
2025-12-31T15:46:11.371929,7.374679,-8.312665,7.350751,0.707381,-0.877202,-1.734856
2025-12-31T15:46:11.381929,6.546762,-8.240881,6.632904,0.762359,-0.827111,-1.932777
2025-12-31T15:46:11.390929,5.924628,-8.437092,5.967699,0.757472,-0.982271,-2.072054
2025-12-31T15:46:11.400929,6.034698,-8.508877,5.680560,0.737925,-1.306029,-2.161240
2025-12-31T15:46:11.410929,6.766902,-8.370093,5.632704,0.658512,-1.660331,-2.224770
2025-12-31T15:46:11.419929,7.948956,-8.293523,5.828915,0.508239,-1.955990,-2.268753
2025-12-31T15:46:11.429929,9.145367,-8.135596,5.852844,0.428827,-2.120923,-2.296852
2025-12-31T15:46:11.438929,10.025926,-7.432106,5.584847,0.376292,-2.180788,-2.309070
2025-12-31T15:46:11.448929,10.399207,-6.613761,5.479563,0.241902,-2.130697,-2.306626
2025-12-31T15:46:11.458929,10.542776,-6.221338,4.862215,-0.118507,-2.029293,-2.284635
2025-12-31T15:46:11.467929,10.298708,-7.178467,4.522434,-0.526565,-1.833817,-2.262644
2025-12-31T15:46:11.477929,9.241080,-7.475177,4.153940,-0.554665,-1.621236,-2.327396
2025-12-31T15:46:11.486929,8.499305,-7.451249,3.756731,-0.522900,-1.624901,-2.362826
2025-12-31T15:46:11.496929,8.494520,-8.149953,3.431307,-0.634077,-1.825264,-2.405586
2025-12-31T15:46:11.506929,8.977870,-8.786444,3.675375,-0.553443,-2.067167,-2.532646
2025-12-31T15:46:11.515929,9.614361,-9.020941,3.632304,-0.349414,-2.134362,-2.612059
2025-12-31T15:46:11.525929,10.073783,-8.662017,3.220739,-0.112399,-2.177123,-2.615724
2025-12-31T15:46:11.535929,10.571490,-7.771887,2.885744,0.142942,-2.244318,-2.646267
2025-12-31T15:46:11.544929,11.016555,-6.546762,2.617747,0.288328,-2.229657,-2.722014
2025-12-31T15:46:11.554929,11.179267,-5.469992,2.464607,0.274889,-2.136806,-2.791653
2025-12-31T15:46:11.563929,11.121839,-4.694717,2.301895,0.149051,-2.017076,-2.839301
2025-12-31T15:46:11.573929,10.758130,-4.091726,2.249253,-0.018325,-1.899790,-2.882061
2025-12-31T15:46:11.583929,10.413563,-3.665804,2.311466,-0.215024,-1.855808,-2.904052
2025-12-31T15:46:11.592929,10.068997,-3.479164,2.392822,-0.441044,-1.940107,-2.891835
2025-12-31T15:46:11.602929,10.198209,-3.570091,2.488535,-0.652403,-2.134362,-2.866179
2025-12-31T15:46:11.611929,10.738987,-3.517449,2.359323,-0.811228,-2.359161,-2.858848
2025-12-31T15:46:11.621929,11.437692,-3.158525,2.397608,-0.911410,-2.544864,-2.874731
2025-12-31T15:46:11.631929,12.145967,-2.555534,2.254038,-1.015257,-2.642602,-2.867400
2025-12-31T15:46:11.640929,12.677174,-1.995614,2.038684,-1.183856,-2.669480,-2.835635
2025-12-31T15:46:11.650929,13.036097,-1.497906,1.828116,-1.435533,-2.648711,-2.802649
2025-12-31T15:46:11.660929,13.217952,-1.584048,1.713260,-1.723861,-2.613280,-2.763553
2025-12-31T15:46:11.669929,13.375878,-1.933400,1.450050,-1.955990,-2.576629,-2.708575
2025-12-31T15:46:11.679929,13.423734,-2.287538,1.143769,-2.063502,-2.527759,-2.653598
2025-12-31T15:46:11.688929,13.485948,-2.440679,0.961914,-2.084271,-2.465451,-2.614502
2025-12-31T15:46:11.698929,13.548161,-2.493321,0.885344,-2.072054,-2.382373,-2.581515
2025-12-31T15:46:11.708929,13.514662,-2.612962,0.847059,-2.017076,-2.276083,-2.552194
2025-12-31T15:46:11.717929,13.385449,-2.545963,0.813559,-1.958433,-2.145358,-2.495994
2025-12-31T15:46:11.727929,13.265808,-2.478964,0.832702,-1.905899,-2.003637,-2.423912
2025-12-31T15:46:11.736929,12.988241,-2.431107,0.837487,-1.857029,-1.860695,-2.340835
2025-12-31T15:46:11.746929,12.830314,-2.349751,0.693918,-1.820378,-1.728748,-2.238209
2025-12-31T15:46:11.756929,12.610175,-2.397608,0.593420,-1.786169,-1.607796,-2.105041
2025-12-31T15:46:11.765929,12.509676,-2.550748,0.526420,-1.753182,-1.483180,-1.953546
2025-12-31T15:46:11.775929,12.189038,-2.813959,0.507278,-1.705535,-1.314581,-1.786169
2025-12-31T15:46:11.785929,11.868400,-3.081955,0.770488,-1.606575,-1.095892,-1.637118
2025-12-31T15:46:11.794929,11.289337,-3.120240,1.081555,-1.462411,-0.840550,-1.494176
2025-12-31T15:46:11.804929,10.518848,-2.876172,1.000199,-1.312138,-0.583987,-1.326799
2025-12-31T15:46:11.813929,9.700502,-2.407179,0.847059,-1.202182,-0.350636,-1.131322
2025-12-31T15:46:11.823929,8.738588,-1.947757,0.717846,-1.175304,-0.173485,-0.937067
2025-12-31T15:46:11.833929,7.905885,-1.660618,0.550349,-1.225395,-0.064751,-0.746477
2025-12-31T15:46:11.842929,7.307680,-1.526620,0.229710,-1.297477,-0.023212,-0.555887
2025-12-31T15:46:11.852929,6.843472,-1.674975,0.263210,-1.376889,-0.042760,-0.366519
2025-12-31T15:46:11.861929,6.628118,-2.120040,0.119641,-1.477071,-0.092851,-0.183259
2025-12-31T15:46:11.871929,6.833901,-2.751745,0.014356,-1.522275,-0.152716,-0.032986
2025-12-31T15:46:11.881929,7.025327,-3.259024,-0.244067,-1.451415,-0.175929,0.096516
2025-12-31T15:46:11.890929,7.240681,-3.579662,-0.244067,-1.242499,-0.164933,0.180816
2025-12-31T15:46:11.900929,7.403393,-3.421736,0.210568,-0.924849,-0.089186,0.226020
2025-12-31T15:46:11.910929,7.221538,-2.828316,0.736989,-0.616973,0.074525,0.259006
2025-12-31T15:46:11.919929,6.757331,-2.005185,1.148554,-0.414166,0.310319,0.280997
2025-12-31T15:46:11.929929,5.996413,-1.234696,1.512263,-0.317649,0.568104,0.285884
2025-12-31T15:46:11.938929,5.029713,-0.449850,1.646261,-0.294436,0.791681,0.295658
2025-12-31T15:46:11.948929,3.952942,0.167497,1.684547,-0.382401,0.911410,0.305432
2025-12-31T15:46:11.958929,3.101098,0.349352,1.588834,-0.574213,0.897971,0.332310
2025-12-31T15:46:11.967929,2.656033,0.196211,1.502692,-0.807563,0.770911,0.355523
2025-12-31T15:46:11.977929,2.622533,-0.239282,1.493121,-1.014036,0.596204,0.356745
2025-12-31T15:46:11.986929,3.005385,-0.890130,1.263410,-1.126435,0.483805,0.338419
2025-12-31T15:46:11.996929,3.455235,-1.292124,1.258624,-1.119104,0.469144,0.287106
2025-12-31T15:46:12.006929,3.613162,-1.430907,1.182054,-1.031140,0.538783,0.222354
2025-12-31T15:46:12.015929,3.507877,-1.263410,1.043270,-0.919962,0.637743,0.150272
2025-12-31T15:46:12.025929,3.215953,-0.928415,0.957129,-0.838106,0.717155,0.070860
2025-12-31T15:46:12.035929,2.962314,-0.612562,1.091127,-0.807563,0.740368,0.003665
2025-12-31T15:46:12.044929,2.928814,-0.473778,1.311266,-0.816115,0.698829,-0.056199
2025-12-31T15:46:12.054929,3.153740,-0.540777,1.459621,-0.836885,0.620638,-0.096516
2025-12-31T15:46:12.063929,3.622733,-0.607776,1.617548,-0.871093,0.554665,-0.123394
2025-12-31T15:46:12.073929,4.192225,-0.746560,1.746760,-0.929736,0.520457,-0.142942
2025-12-31T15:46:12.083929,4.728217,-0.985842,1.818545,-1.003040,0.500909,-0.153938
2025-12-31T15:46:12.092929,5.273781,-1.359123,1.708475,-1.037248,0.476474,-0.171042
2025-12-31T15:46:12.102929,5.862415,-1.512263,1.560120,-1.034805,0.444709,-0.189368
2025-12-31T15:46:12.111929,6.470192,-1.698904,1.263410,-1.011592,0.383623,-0.202807
2025-12-31T15:46:12.121929,7.188039,-1.866401,0.981057,-0.983492,0.300545,-0.204028
2025-12-31T15:46:12.131929,8.082954,-1.995614,0.794417,-0.946840,0.193033,-0.206472
2025-12-31T15:46:12.140929,9.020941,-2.110469,0.569491,-0.899193,0.098960,-0.215024
2025-12-31T15:46:12.150929,9.887142,-2.210968,0.315852,-0.829554,0.025656,-0.224798
2025-12-31T15:46:12.160929,10.801201,-2.258824,0.038285,-0.748920,-0.020769,-0.227241
2025-12-31T15:46:12.169929,11.748758,-2.330609,0.009571,-0.663399,-0.059864,-0.234572
2025-12-31T15:46:12.179929,12.404392,-2.483749,-0.071784,-0.583987,-0.102625,-0.233350
2025-12-31T15:46:12.188929,13.136596,-2.718246,-0.205782,-0.469144,-0.120951,-0.221133
2025-12-31T15:46:12.198929,13.581661,-2.809173,0.071784,-0.291993,-0.080634,-0.212581
2025-12-31T15:46:12.208929,13.605589,-2.622533,0.296710,-0.105068,0.069638,-0.202807
2025-12-31T15:46:12.217929,12.734601,-2.316252,0.526420,0.051312,0.328645,-0.149051
2025-12-31T15:46:12.227929,11.260623,-1.885544,0.512064,0.142942,0.548556,-0.057421
2025-12-31T15:46:12.236929,9.566504,-1.536192,0.622133,0.156381,0.673173,0.051312
2025-12-31T15:46:12.246929,8.039883,-1.507478,0.727418,0.135612,0.697607,0.168598
2025-12-31T15:46:12.256929,6.867400,-1.579262,0.914058,0.168598,0.641408,0.262671
2025-12-31T15:46:12.265929,5.967699,-1.555334,0.971485,0.287106,0.536339,0.335975
2025-12-31T15:46:12.275929,5.273781,-1.473978,0.937986,0.449596,0.417831,0.403170
2025-12-31T15:46:12.285929,4.847858,-1.378265,0.914058,0.593760,0.305432,0.443488
2025-12-31T15:46:12.294929,4.426721,-1.397408,0.799202,0.685390,0.235793,0.459370
2025-12-31T15:46:12.304929,4.115654,-1.493121,0.794417,0.772133,0.185702,0.437379
2025-12-31T15:46:12.313929,3.742374,-1.617548,0.684347,0.899193,0.133168,0.405614
2025-12-31T15:46:12.323929,3.464807,-1.698904,0.655633,1.045801,0.045204,0.365297
2025-12-31T15:46:12.333929,3.364308,-1.679761,0.914058,1.193630,-0.068416,0.316428
2025-12-31T15:46:12.342929,3.493520,-1.507478,1.210768,1.342681,-0.172263,0.267558
2025-12-31T15:46:12.352929,3.771088,-1.186840,1.502692,1.461189,-0.240680,0.234572
2025-12-31T15:46:12.361929,4.053441,-0.866201,1.651047,1.510058,-0.245567,0.227241
2025-12-31T15:46:12.371929,4.101297,-0.512064,1.588834,1.488067,-0.169820,0.239459
2025-12-31T15:46:12.381929,4.010370,-0.196211,1.689332,1.396437,-0.059864,0.277332
2025-12-31T15:46:12.390929,3.771088,0.071784,1.598405,1.268155,0.008552,0.350636
2025-12-31T15:46:12.400929,3.608376,0.191425,1.440479,1.089783,0.020769,0.453261
2025-12-31T15:46:12.410929,3.445664,-0.129212,1.220339,0.862541,0.010995,0.552222
2025-12-31T15:46:12.419929,3.426521,-0.780060,1.091127,0.681725,0.012217,0.638964
2025-12-31T15:46:12.429929,3.230310,-1.526620,1.033699,0.659734,0.050090,0.689055
2025-12-31T15:46:12.438929,3.014956,-1.847259,0.933200,0.825889,0.107512,0.706160
2025-12-31T15:46:12.448929,2.627319,-1.698904,0.746560,1.073900,0.145385,0.747698
2025-12-31T15:46:12.458929,2.483749,-1.220339,0.684347,1.286481,0.134390,0.775798
2025-12-31T15:46:12.467929,2.584248,-0.799202,0.803988,1.439198,0.076969,0.817337
2025-12-31T15:46:12.477929,3.024527,-0.368494,1.043270,1.514945,-0.010995,0.871093
2025-12-31T15:46:12.486929,3.723231,-0.253639,1.167697,1.477071,-0.106290,0.948062
2025-12-31T15:46:12.496929,4.795216,-0.406779,1.713260,1.409876,-0.164933,1.020144
2025-12-31T15:46:12.506929,5.857629,-0.660419,2.421536,1.304807,-0.139277,1.104444
2025-12-31T15:46:12.515929,6.666403,-1.205982,2.766102,1.156978,-0.017104,1.185078
2025-12-31T15:46:12.525929,7.298108,-1.976471,2.742174,0.966388,0.162490,1.317025
2025-12-31T15:46:12.535929,7.561319,-2.641676,2.431107,0.792902,0.350636,1.472184
2025-12-31T15:46:12.544929,7.762316,-3.282952,2.349751,0.665842,0.511904,1.590692
2025-12-31T15:46:12.554929,7.939385,-3.665804,2.091326,0.588873,0.656069,1.699426
2025-12-31T15:46:12.563929,7.896314,-4.019941,1.942971,0.552222,0.762359,1.799608
2025-12-31T15:46:12.573929,8.164310,-4.177868,2.005185,0.542448,0.822224,1.885129
2025-12-31T15:46:12.583929,8.403592,-4.139583,2.684746,0.564439,0.856432,1.955990
2025-12-31T15:46:12.592929,9.044869,-4.249652,3.694518,0.514348,0.882089,2.036624
2025-12-31T15:46:12.602929,9.796215,-4.565505,4.101297,0.371405,0.923628,2.175901
2025-12-31T15:46:12.611929,10.485348,-4.895715,4.058227,0.182037,0.976162,2.360382
2025-12-31T15:46:12.621929,11.059626,-5.359922,3.388236,0.017104,1.065348,2.541198
2025-12-31T15:46:12.631929,11.145767,-5.766702,2.622533,-0.081855,1.196073,2.678032
2025-12-31T15:46:12.640929,10.992627,-6.604190,2.206182,-0.153938,1.319468,2.759888
2025-12-31T15:46:12.650929,10.710273,-7.824529,2.100898,-0.172263,1.417207,2.798983
2025-12-31T15:46:12.660929,10.509276,-9.030512,2.627319,0.002443,1.467297,2.797762
2025-12-31T15:46:12.669929,10.533205,-9.829715,3.416950,0.389731,1.446528,2.751336
2025-12-31T15:46:12.679929,10.978270,-9.930213,4.259224,0.884532,1.337794,2.676810
2025-12-31T15:46:12.688929,11.997612,-8.968299,5.149354,1.332907,1.171639,2.599841
2025-12-31T15:46:12.698929,13.380663,-7.436892,5.589633,1.470963,1.029918,2.590068
2025-12-31T15:46:12.708929,14.677573,-6.116054,5.350351,1.227838,1.001818,2.691471
2025-12-31T15:46:12.717929,15.467205,-5.709274,4.752145,0.659734,1.061683,2.886948
2025-12-31T15:46:12.727929,15.725630,-6.503691,4.259224,-0.092851,1.160643,3.143511
2025-12-31T15:46:12.736929,15.409777,-8.465806,3.651447,-0.689055,1.249830,3.358536
2025-12-31T15:46:12.746929,14.787643,-10.691131,3.144168,-0.850324,1.266934,3.485596
2025-12-31T15:46:12.756929,14.467005,-12.323036,3.048455,-0.574213,1.218065,3.527135
2025-12-31T15:46:12.765929,14.443077,-13.404592,3.086741,0.009773,1.128878,3.490483
2025-12-31T15:46:12.775929,14.763715,-13.576875,3.125026,0.805120,1.047022,3.389079
2025-12-31T15:46:12.785929,15.376278,-12.725030,3.129811,1.670105,1.031140,3.242472
2025-12-31T15:46:12.794929,15.893127,-10.872985,3.225524,2.416582,1.164308,3.093420
2025-12-31T15:46:12.804929,15.806986,-8.839086,3.431307,2.856405,1.446528,2.981021
2025-12-31T15:46:12.813929,15.232708,-7.235895,3.742374,2.841744,1.773952,2.983465
2025-12-31T15:46:12.823929,14.476576,-6.178267,4.307080,2.464229,2.024406,3.097086
2025-12-31T15:46:12.833929,13.768301,-5.680560,4.063012,1.979202,2.076941,3.198489
2025-12-31T15:46:12.842929,13.471591,-5.383850,4.240081,1.492954,1.903455,3.230254
2025-12-31T15:46:12.852929,13.476376,-5.838487,4.699503,0.882089,1.805717,3.191159
2025-12-31T15:46:12.861929,13.409377,-7.724031,4.216153,0.359188,1.822821,3.182607
2025-12-31T15:46:12.871929,13.155738,-9.135796,4.153940,0.415388,1.749517,3.050660
2025-12-31T15:46:12.881929,13.328021,-8.848657,3.981656,0.825889,1.648114,2.811201
2025-12-31T15:46:12.890929,13.514662,-7.341179,4.153940,1.127656,1.598023,2.619389
2025-12-31T15:46:12.900929,13.141381,-5.594419,4.211367,1.072679,1.729969,2.497216
2025-12-31T15:46:12.910929,12.174681,-4.670789,4.149154,0.641408,1.898568,2.452012
2025-12-31T15:46:12.919929,10.829915,-4.756931,4.469792,0.073303,1.942551,2.416582
2025-12-31T15:46:12.929929,9.494720,-5.790630,4.618147,-0.445931,1.877799,2.351830
2025-12-31T15:46:12.938929,8.360522,-7.283751,4.532006,-0.750142,1.707978,2.227214
2025-12-31T15:46:12.948929,7.776673,-8.724231,4.713860,-0.838106,1.390328,1.993863
2025-12-31T15:46:12.958929,7.757530,-9.944570,5.039284,-0.715933,0.998153,1.650557
2025-12-31T15:46:12.967929,8.169096,-10.131210,5.407779,-0.324980,0.647517,1.232725
2025-12-31T15:46:12.977929,8.331808,-9.131011,5.819344,0.134390,0.442266,0.791681
2025-12-31T15:46:12.986929,7.982456,-7.767102,6.068198,0.361632,0.337197,0.364075
2025-12-31T15:46:12.996929,7.302894,-6.987041,6.771687,0.298102,0.241902,-0.043982
2025-12-31T15:46:13.006929,6.479763,-6.982256,8.269594,0.138055,0.074525,-0.431270
2025-12-31T15:46:13.015929,5.704489,-7.278966,10.112068,0.108733,-0.216246,-0.791681
2025-12-31T15:46:13.025929,5.106283,-7.398607,11.490334,0.282219,-0.634077,-1.120326
2025-12-31T15:46:13.035929,4.981856,-7.278966,11.973684,0.626747,-1.091005,-1.425759
2025-12-31T15:46:13.044929,5.383850,-6.728617,11.691331,1.072679,-1.452637,-1.718974
2025-12-31T15:46:13.054929,6.230910,-5.699703,11.102696,1.459967,-1.646892,-2.053728
2025-12-31T15:46:13.063929,7.192824,-4.584648,10.212566,1.610240,-1.701870,-2.348165
2025-12-31T15:46:13.073929,7.953742,-4.254438,8.949156,1.385442,-1.733635,-2.482555
2025-12-31T15:46:13.083929,8.121239,-5.221138,6.661618,0.831998,-1.771508,-2.420247
2025-12-31T15:46:13.092929,7.862815,-7.202396,4.910071,0.285884,-1.847256,-2.393369
2025-12-31T15:46:13.102929,8.126025,-9.365507,4.761716,0.023212,-1.958433,-2.552194
2025-12-31T15:46:13.111929,8.776873,-11.045269,4.785645,0.193033,-2.008524,-2.758666
2025-12-31T15:46:13.121929,9.652646,-11.083554,4.709074,0.758694,-2.208888,-2.822196
2025-12-31T15:46:13.131929,11.083554,-9.351150,5.331208,1.258382,-2.478890,-2.785544
2025-12-31T15:46:13.140929,12.600603,-7.532605,5.699703,1.266934,-2.514320,-2.698802
2025-12-31T15:46:13.150929,13.562518,-6.025127,5.546562,0.994488,-2.315178,-2.612059
2025-12-31T15:46:13.160929,14.222937,-4.747360,5.398207,0.616973,-2.180788,-2.521651
2025-12-31T15:46:13.169929,14.299507,-3.723231,4.761716,0.029321,-2.067167,-2.323730
2025-12-31T15:46:13.179929,13.935798,-3.000599,4.565505,-0.667064,-1.942551,-2.290744
2025-12-31T15:46:13.188929,12.854243,-2.679961,3.617947,-1.464854,-1.549153,-2.354274
2025-12-31T15:46:13.198929,10.849057,-3.354737,3.302095,-2.463008,-1.087339,-2.299296
2025-12-31T15:46:13.208929,8.858229,-5.426921,2.766102,-3.191159,-1.025031,-2.080606
2025-12-31T15:46:13.217929,7.781459,-6.766902,2.679961,-3.121520,-1.339016,-1.997528
2025-12-31T15:46:13.227929,8.097311,-6.771687,2.009970,-2.696358,-1.775174,-2.213775
2025-12-31T15:46:13.236929,9.322436,-6.087340,1.598405,-2.322509,-2.040289,-2.442238
2025-12-31T15:46:13.246929,10.380064,-4.876572,1.598405,-2.053728,-2.067167,-2.603507
2025-12-31T15:46:13.256929,10.868200,-3.957728,1.196411,-1.941329,-1.947437,-2.750114
2025-12-31T15:46:13.265929,10.944770,-3.426521,0.803988,-1.925446,-1.793499,-2.904052
2025-12-31T15:46:13.275929,10.561918,-3.373879,0.732203,-1.964542,-1.668883,-3.039664
2025-12-31T15:46:13.285929,10.092925,-3.498306,0.454636,-1.968207,-1.640783,-3.164281
2025-12-31T15:46:13.294929,9.801001,-3.766302,0.057427,-1.904677,-1.748295,-3.285232
2025-12-31T15:46:13.304929,10.293922,-4.680361,0.258424,-1.853364,-1.959655,-3.384192
2025-12-31T15:46:13.313929,11.499905,-6.106483,0.880558,-1.860695,-2.218662,-3.408627
2025-12-31T15:46:13.323929,13.184452,-7.226324,1.368694,-1.721417,-2.461786,-3.402518
2025-12-31T15:46:13.333929,15.026925,-7.159325,1.421336,-1.342681,-2.575407,-3.391523
2025-12-31T15:46:13.342929,16.390835,-6.173482,1.387837,-0.945619,-2.482555,-3.386636
2025-12-31T15:46:13.352929,17.046469,-4.752145,1.138983,-0.689055,-2.189340,-3.369531
2025-12-31T15:46:13.361929,16.553547,-3.412165,0.799202,-0.631634,-1.776395,-3.280345
2025-12-31T15:46:13.371929,15.160923,-2.641676,0.746560,-0.879645,-1.417207,-3.095864
2025-12-31T15:46:13.381929,13.548161,-3.278166,0.756131,-1.270599,-1.274264,-2.899165
2025-12-31T15:46:13.390929,12.256037,-4.479363,0.282353,-1.463632,-1.379333,-2.740340
2025-12-31T15:46:13.400929,11.724830,-5.264209,-0.014356,-1.336572,-1.645670,-2.651154
2025-12-31T15:46:13.410929,11.944970,-5.379065,-0.373280,-1.037248,-1.937664,-2.592511
2025-12-31T15:46:13.419929,12.686745,-5.039284,-0.387637,-0.717155,-2.161240,-2.569298
2025-12-31T15:46:13.429929,13.634303,-4.522434,0.047856,-0.427605,-2.277305,-2.580294
2025-12-31T15:46:13.438929,14.538790,-3.905086,0.531206,-0.166155,-2.271196,-2.577850
2025-12-31T15:46:13.448929,15.132210,-3.206382,0.947557,0.034208,-2.141693,-2.541198
2025-12-31T15:46:13.458929,15.103496,-2.737389,1.435693,0.129503,-1.926668,-2.470338
2025-12-31T15:46:13.467929,14.792429,-2.340180,1.871187,0.134390,-1.666440,-2.368934
2025-12-31T15:46:13.477929,14.041083,-2.330609,2.110469,0.097738,-1.413541,-2.241874
2025-12-31T15:46:13.486929,13.055240,-2.383251,2.450250,0.068416,-1.161865,-2.096489
2025-12-31T15:46:13.496929,11.997612,-2.397608,2.622533,0.070860,-0.919962,-1.941329
2025-12-31T15:46:13.506929,10.844272,-2.230110,2.727817,0.081855,-0.711046,-1.753182
2025-12-31T15:46:13.515929,9.671788,-1.962114,2.794816,0.078190,-0.530230,-1.525941
2025-12-31T15:46:13.525929,8.647660,-1.780260,2.804388,0.034208,-0.381179,-1.286481
2025-12-31T15:46:13.535929,7.695317,-1.555334,2.852244,-0.039095,-0.273667,-1.037248
2025-12-31T15:46:13.544929,6.948756,-1.387837,2.679961,-0.144164,-0.191811,-0.752585
2025-12-31T15:46:13.554929,6.202196,-1.258624,2.474178,-0.263893,-0.113620,-0.481361
2025-12-31T15:46:13.563929,5.675775,-1.186840,2.411965,-0.423940,-0.020769,-0.241902
2025-12-31T15:46:13.573929,5.005784,-1.330409,2.215753,-0.601091,0.092851,-0.024434
2025-12-31T15:46:13.583929,4.354937,-1.502692,2.124826,-0.728151,0.210137,0.155159
2025-12-31T15:46:13.592929,3.723231,-1.670190,2.172682,-0.783129,0.302989,0.305432
2025-12-31T15:46:13.602929,3.225524,-1.804188,2.158325,-0.777020,0.349414,0.441044
2025-12-31T15:46:13.611929,2.967100,-1.694118,2.115255,-0.726929,0.371405,0.559552
2025-12-31T15:46:13.621929,2.732603,-1.588834,2.115255,-0.656069,0.392175,0.669508
2025-12-31T15:46:13.631929,2.689532,-1.383051,2.187039,-0.597426,0.411723,0.767246
2025-12-31T15:46:13.640929,2.780459,-1.244267,2.143969,-0.561995,0.438601,0.845437
2025-12-31T15:46:13.650929,2.885744,-1.134197,2.086541,-0.541226,0.480139,0.908967
2025-12-31T15:46:13.660929,3.072384,-0.756131,2.215753,-0.554665,0.531452,0.954171
2025-12-31T15:46:13.669929,3.259024,-0.646062,2.177468,-0.608421,0.614530,0.989601
2025-12-31T15:46:13.679929,3.172882,-0.631705,1.976471,-0.690277,0.733038,1.007927
2025-12-31T15:46:13.688929,3.034099,-0.713061,1.871187,-0.773355,0.840550,1.004262
2025-12-31T15:46:13.698929,2.962314,-0.976271,1.885544,-0.838106,0.886976,0.981049
2025-12-31T15:46:13.708929,3.058027,-1.268195,1.899901,-0.831998,0.873537,0.935845
2025-12-31T15:46:13.717929,3.421736,-1.282552,1.947757,-0.730594,0.830776,0.873537
2025-12-31T15:46:13.727929,3.962514,-0.894915,1.832902,-0.607199,0.796568,0.792902
2025-12-31T15:46:13.736929,4.584648,-0.320638,1.756331,-0.565661,0.817337,0.715933
2025-12-31T15:46:13.746929,5.044070,0.071784,1.746760,-0.647517,0.869871,0.647517
2025-12-31T15:46:13.756929,5.426921,0.296710,1.655833,-0.799011,0.918741,0.588873
2025-12-31T15:46:13.765929,5.651846,0.267996,1.411765,-0.961501,0.955393,0.542448
2025-12-31T15:46:13.775929,5.900700,0.349352,1.220339,-1.132543,0.965166,0.489913
2025-12-31T15:46:13.785929,6.178267,0.186640,1.110269,-1.312138,0.940732,0.442266
2025-12-31T15:46:13.794929,6.522834,-0.071784,0.985842,-1.457524,0.878424,0.394618
2025-12-31T15:46:13.804929,7.030112,-0.210568,0.803988,-1.572366,0.783129,0.365297
2025-12-31T15:46:13.813929,7.700103,-0.248853,0.411565,-1.671326,0.659734,0.342084
2025-12-31T15:46:13.823929,8.528019,-0.382851,0.138783,-1.753182,0.542448,0.320093
2025-12-31T15:46:13.833929,9.303294,-0.478564,-0.105284,-1.821599,0.450818,0.282219
2025-12-31T15:46:13.842929,10.006784,-0.842273,-0.124426,-1.865582,0.388510,0.238237
2025-12-31T15:46:13.852929,10.662417,-1.167697,-0.023928,-1.843590,0.317649,0.173485
2025-12-31T15:46:13.861929,11.337193,-1.579262,0.090927,-1.756848,0.239459,0.128281
2025-12-31T15:46:13.871929,11.854043,-1.966900,0.267996,-1.621236,0.213802,0.113620
2025-12-31T15:46:13.881929,11.834900,-2.196611,0.392422,-1.428202,0.301767,0.067195
2025-12-31T15:46:13.890929,10.992627,-2.273181,0.387637,-1.203404,0.510683,0.017104
2025-12-31T15:46:13.900929,9.322436,-1.909472,0.330209,-1.006705,0.729372,0.013439
2025-12-31T15:46:13.910929,7.484749,-1.808973,0.301495,-0.879645,0.834441,0.041538
2025-12-31T15:46:13.919929,5.733202,-1.808973,0.387637,-0.810007,0.796568,0.087964
2025-12-31T15:46:13.929929,4.469792,-1.971685,0.378065,-0.737925,0.629191,0.139277
2025-12-31T15:46:13.938929,3.732803,-2.388036,0.492921,-0.604756,0.345749,0.178372
2025-12-31T15:46:13.948929,3.555734,-2.885744,0.555134,-0.390953,-0.025656,0.202807
2025-12-31T15:46:13.958929,4.177868,-3.412165,0.760917,-0.094073,-0.433714,0.205250
2025-12-31T15:46:13.967929,5.498706,-3.732803,0.875773,0.289550,-0.789237,0.172263
2025-12-31T15:46:13.977929,7.010970,-3.732803,1.129412,0.719599,-0.968832,0.112399
2025-12-31T15:46:13.986929,8.255237,-3.326023,1.339980,1.127656,-0.927293,0.023212
2025-12-31T15:46:13.996929,8.829515,-2.684746,1.402194,1.448972,-0.722042,-0.051312
2025-12-31T15:46:14.006929,8.690731,-1.919043,1.493121,1.646892,-0.439822,-0.090408
2025-12-31T15:46:14.015929,7.910671,-1.272981,1.584048,1.688431,-0.204028,-0.112399
2025-12-31T15:46:14.025929,7.073183,-0.890130,1.631905,1.615127,-0.069638,-0.118507
2025-12-31T15:46:14.035929,6.273980,-0.650847,1.517049,1.523497,-0.028099,-0.117286
2025-12-31T15:46:14.044929,5.694917,-0.392422,1.473978,1.403768,-0.062308,-0.101403
2025-12-31T15:46:14.054929,5.460421,-0.287138,1.521835,1.247386,-0.145385,-0.073303
2025-12-31T15:46:14.063929,5.570491,-0.387637,1.698904,1.061683,-0.237015,-0.001221
2025-12-31T15:46:14.073929,5.714060,-0.760917,1.914258,0.893084,-0.251676,0.076969
2025-12-31T15:46:14.083929,5.757131,-1.086341,2.206182,0.802676,-0.184481,0.149051
2025-12-31T15:46:14.092929,5.551348,-1.349551,2.656033,0.812450,-0.061086,0.219911
2025-12-31T15:46:14.102929,5.139782,-1.411765,3.058027,0.885754,0.118507,0.304210
2025-12-31T15:46:14.111929,4.551148,-1.119840,3.225524,0.990823,0.317649,0.392175
2025-12-31T15:46:14.121929,3.804587,-0.464207,2.861815,1.069013,0.507018,0.533896
2025-12-31T15:46:14.131929,3.010170,0.253639,2.187039,1.060461,0.641408,0.702494
2025-12-31T15:46:14.140929,2.392822,0.808774,1.641476,0.894306,0.684168,0.900415
2025-12-31T15:46:14.150929,1.995614,0.660419,1.430907,0.570548,0.645073,1.121548
2025-12-31T15:46:14.160929,2.014756,-0.334995,1.378265,0.262671,0.537561,1.279151
2025-12-31T15:46:14.169929,2.397608,-1.722832,1.368694,0.153938,0.394618,1.380555
2025-12-31T15:46:14.179929,3.206382,-2.928814,1.320838,0.356745,0.282219,1.407433
2025-12-31T15:46:14.188929,4.115654,-3.369094,1.239482,0.800233,0.249232,1.372003
2025-12-31T15:46:14.198929,4.967499,-2.943171,1.182054,1.319468,0.282219,1.290147
2025-12-31T15:46:14.208929,5.752345,-2.115255,1.555334,1.694539,0.334754,1.191186
2025-12-31T15:46:14.217929,6.474977,-1.464407,2.081755,1.875355,0.416610,1.099557
2025-12-31T15:46:14.227929,7.044469,-0.818345,2.340180,1.942551,0.527787,1.031140
2025-12-31T15:46:14.236929,7.398607,0.287138,2.091326,1.875355,0.646295,1.062905
2025-12-31T15:46:14.246929,7.475177,1.105484,1.986042,1.495397,0.714712,1.205847
2025-12-31T15:46:14.256929,7.728816,0.708275,2.555534,0.768468,0.679282,1.441641
2025-12-31T15:46:14.265929,8.528019,-1.478764,3.196810,-0.053756,0.582765,1.734856
2025-12-31T15:46:14.275929,9.107082,-4.689932,2.718246,-0.612086,0.552222,2.041511
2025-12-31T15:46:14.285929,9.494720,-7.527819,2.234896,-0.658512,0.588873,2.197892
2025-12-31T15:46:14.294929,9.882357,-9.245866,2.354537,-0.200363,0.681725,2.182010
2025-12-31T15:46:14.304929,10.260423,-9.442077,3.115455,0.583987,0.755029,2.141693
2025-12-31T15:46:14.313929,10.786844,-8.063812,4.029513,1.326799,0.807563,2.136806
2025-12-31T15:46:14.323929,11.380264,-6.168696,4.465006,1.651779,0.874758,2.223549
2025-12-31T15:46:14.333929,11.691331,-4.675575,5.130211,1.422093,0.963945,2.425134
2025-12-31T15:46:14.342929,11.619546,-4.934000,4.977071,0.803898,1.065348,2.656041
2025-12-31T15:46:14.352929,11.078768,-7.173682,4.134797,0.206472,1.169195,2.830748
2025-12-31T15:46:14.361929,10.494919,-9.844072,3.818944,-0.019547,1.238834,2.884505
2025-12-31T15:46:14.371929,10.126425,-11.964113,3.522234,0.256563,1.273042,2.884505
2025-12-31T15:46:14.381929,10.088140,-12.763315,3.541377,0.896749,1.232725,2.917491
2025-12-31T15:46:14.390929,10.322636,-12.059825,3.565305,1.626122,1.149648,2.957808
2025-12-31T15:46:14.400929,10.877771,-10.518848,3.335594,2.092823,1.089783,3.001791
2025-12-31T15:46:14.410929,11.495119,-9.384650,3.550948,2.064724,1.100778,3.099529
2025-12-31T15:46:14.419929,12.055040,-9.078368,4.096512,1.674992,1.141096,3.257132
2025-12-31T15:46:14.429929,12.595818,-9.284151,4.445864,1.188743,1.117883,3.478265
2025-12-31T15:46:14.438929,13.165309,-9.274580,4.187439,0.792902,1.010370,3.674964
2025-12-31T15:46:14.448929,13.801800,-9.556933,3.981656,0.404392,0.864984,3.811798
2025-12-31T15:46:14.458929,14.605789,-10.322636,4.374079,0.073303,0.802676,3.871663
2025-12-31T15:46:14.467929,15.208780,-11.227123,4.642075,0.015882,0.896749,3.853337
2025-12-31T15:46:14.477929,15.160923,-11.466405,4.225724,0.301767,1.120326,3.821572
2025-12-31T15:46:14.486929,14.543575,-10.691131,3.603590,0.667064,1.400102,3.824015
2025-12-31T15:46:14.496929,13.538590,-9.710074,3.053241,0.883310,1.649335,3.830124
2025-12-31T15:46:14.506929,12.409178,-8.882157,2.545963,0.983492,1.782504,3.802024
2025-12-31T15:46:14.515929,11.547761,-8.484948,2.359323,0.943175,1.747074,3.784920
2025-12-31T15:46:14.525929,11.260623,-8.666803,2.483749,0.722042,1.591914,3.792250
2025-12-31T15:46:14.535929,11.533404,-9.054440,2.665604,0.543669,1.406211,3.747046
2025-12-31T15:46:14.544929,11.997612,-8.968299,3.072384,0.436157,1.288925,3.677407
2025-12-31T15:46:14.554929,12.189038,-8.796015,3.675375,0.240680,1.288925,3.622430
2025-12-31T15:46:14.563929,12.370892,-9.025726,4.541577,-0.034208,1.348790,3.533243
2025-12-31T15:46:14.573929,12.433106,-9.427721,4.771288,-0.243124,1.441641,3.418401
2025-12-31T15:46:14.583929,12.169895,-9.422935,4.618147,-0.381179,1.513723,3.285232
2025-12-31T15:46:14.592929,11.916256,-9.370293,4.742574,-0.591317,1.567479,3.122742
2025-12-31T15:46:14.602929,11.600403,-9.619146,4.144368,-0.864984,1.639561,2.970026
2025-12-31T15:46:14.611929,11.040483,-9.915856,3.455235,-1.091005,1.682322,2.800205
2025-12-31T15:46:14.621929,10.308279,-10.011569,2.919243,-1.308473,1.638340,2.590068
2025-12-31T15:46:14.631929,9.734002,-10.107282,2.986242,-1.560149,1.499062,2.349387
2025-12-31T15:46:14.640929,8.944370,-10.164710,2.986242,-1.777617,1.317025,2.054950
2025-12-31T15:46:14.650929,8.231309,-11.035697,3.842873,-1.976759,1.097113,1.739743
2025-12-31T15:46:14.660929,7.393821,-12.308679,5.082355,-2.010967,0.792902,1.372003
2025-12-31T15:46:14.669929,6.537191,-13.557732,6.518048,-1.620014,0.346971,0.889419
2025-12-31T15:46:14.679929,5.857629,-14.333007,8.427521,-0.744033,-0.260228,0.315206
2025-12-31T15:46:14.688929,5.828915,-14.715858,11.662617,0.507018,-1.015257,-0.321315
2025-12-31T15:46:14.698929,6.948756,-14.433505,14.356935,2.074497,-1.644448,-0.861319
2025-12-31T15:46:14.708929,8.379664,-12.902099,13.873585,3.720168,-1.872912,-1.167974
2025-12-31T15:46:14.717929,9.054440,-10.083354,12.854243,4.899138,-1.639561,-1.491732
2025-12-31T15:46:14.727929,8.695517,-7.154539,11.447263,5.393938,-1.105665,-1.813047
2025-12-31T15:46:14.736929,7.178467,-4.436293,9.590432,5.255883,-0.522900,-1.946216
2025-12-31T15:46:14.746929,4.972285,-2.904886,7.250252,4.460537,-0.169820,-1.966985
2025-12-31T15:46:14.756929,2.924029,-3.062812,5.350351,3.296228,-0.249232,-2.050063
2025-12-31T15:46:14.765929,1.938186,-4.120440,4.450650,2.300518,-0.762359,-2.201557
2025-12-31T15:46:14.775929,2.526820,-5.292923,4.177868,1.622457,-1.523497,-2.288300
2025-12-31T15:46:14.785929,4.259224,-6.293123,3.804587,1.226617,-2.299296,-2.345722
2025-12-31T15:46:14.794929,6.876972,-6.867400,3.905086,1.042135,-2.954143,-2.381152
2025-12-31T15:46:14.804929,9.614361,-6.900900,4.426721,1.006705,-3.353649,-2.388482
2025-12-31T15:46:14.813929,12.232109,-6.312266,5.158925,0.992044,-3.389079,-2.412917
2025-12-31T15:46:14.823929,13.859228,-5.536991,5.096712,0.808785,-2.962695,-2.399478
2025-12-31T15:46:14.833929,14.103296,-4.838287,5.087140,0.437379,-2.284635,-2.327396
2025-12-31T15:46:14.842929,13.174881,-4.450650,5.245067,-0.073303,-1.661553,-2.284635
2025-12-31T15:46:14.852929,11.188838,-4.709074,5.048855,-0.599869,-1.126435,-2.249205
2025-12-31T15:46:14.861929,8.800801,-5.221138,4.455435,-0.970053,-0.821002,-2.221105
2025-12-31T15:46:14.871929,6.613761,-5.498706,3.852444,-1.156978,-0.827111,-2.219883
2025-12-31T15:46:14.881929,5.297709,-5.828915,3.306880,-1.204625,-1.148426,-2.276083
2025-12-31T15:46:14.890929,4.986642,-5.838487,3.014956,-1.130100,-1.701870,-2.467895
2025-12-31T15:46:14.900929,6.202196,-5.809773,2.603390,-1.038470,-2.316400,-2.707354
2025-12-31T15:46:14.910929,8.470592,-5.905486,3.086741,-1.120326,-2.748893,-2.818531
2025-12-31T15:46:14.919929,10.839486,-6.977470,3.680161,-1.370781,-2.917491,-2.851518
2025-12-31T15:46:14.929929,12.815957,-8.059026,3.780659,-1.392772,-2.852740,-2.888170
2025-12-31T15:46:14.938929,13.998012,-8.312665,3.507877,-1.094670,-2.568076,-2.951700
2025-12-31T15:46:14.948929,14.041083,-7.714460,2.976671,-0.755029,-2.130697,-2.984686
2025-12-31T15:46:14.958929,13.194023,-6.565905,2.249253,-0.548556,-1.710422,-2.956587
2025-12-31T15:46:14.967929,11.810972,-5.379065,1.689332,-0.585208,-1.434311,-2.836857
2025-12-31T15:46:14.977929,10.356136,-4.905286,1.402194,-0.833220,-1.389107,-2.722014
2025-12-31T15:46:14.986929,9.437292,-5.082355,1.617548,-1.098335,-1.551597,-2.669480
2025-12-31T15:46:14.996929,9.107082,-5.230710,1.823330,-1.231504,-1.817934,-2.664593
2025-12-31T15:46:15.006929,9.265009,-5.024927,1.904686,-1.210734,-2.074497,-2.685363
2025-12-31T15:46:15.015929,9.872786,-4.431507,2.349751,-1.142317,-2.250427,-2.730567
2025-12-31T15:46:15.025929,10.604989,-3.833301,3.010170,-1.144761,-2.323730,-2.772105
2025-12-31T15:46:15.035929,11.370692,-3.440878,3.694518,-1.210734,-2.313957,-2.792875
2025-12-31T15:46:15.044929,11.801401,-3.010170,3.890729,-1.275486,-2.249205,-2.790431
2025-12-31T15:46:15.054929,12.074182,-2.435893,3.756731,-1.368337,-2.182010,-2.772105
2025-12-31T15:46:15.063929,12.423534,-2.464607,3.967299,-1.501506,-2.122145,-2.750114
2025-12-31T15:46:15.073929,12.433106,-3.871586,4.546362,-1.571145,-1.869247,-2.478890
2025-12-31T15:46:15.083929,10.365707,-0.421136,1.373480,-1.241277,-1.841147,-2.514320
2025-12-31T15:46:15.092929,11.332407,0.593420,2.273181,-1.837482,-2.373821,-2.729345
2025-12-31T15:46:15.102929,12.954741,-0.449850,2.067398,-2.450790,-2.695136,-2.756223
2025-12-31T15:46:15.111929,13.418949,-0.923629,1.067198,-2.720793,-2.636493,-2.487442
2025-12-31T15:46:15.121929,13.438091,-1.617548,0.411565,-3.115412,-2.513099,-2.283413
2025-12-31T15:46:15.131929,13.552947,-3.168097,0.162711,-3.467270,-2.393369,-2.273639
2025-12-31T15:46:15.140929,13.476376,-4.670789,0.124426,-3.393966,-2.241874,-2.290744
2025-12-31T15:46:15.150929,13.409377,-5.268995,0.368494,-3.020117,-2.094045,-2.271196
2025-12-31T15:46:15.160929,13.222737,-5.283352,0.602991,-2.592511,-1.943772,-2.260200
2025-12-31T15:46:15.169929,13.093525,-4.809573,0.808774,-2.133140,-1.771508,-2.254092
2025-12-31T15:46:15.179929,12.902099,-3.866801,1.095912,-1.701870,-1.589471,-2.211331
2025-12-31T15:46:15.188929,12.581461,-2.756531,1.071984,-1.412320,-1.418428,-2.136806
2025-12-31T15:46:15.198929,12.366107,-1.919043,0.847059,-1.266934,-1.291368,-2.035402
2025-12-31T15:46:15.208929,12.145967,-1.540977,0.679561,-1.215621,-1.214399,-1.896125
2025-12-31T15:46:15.217929,12.112468,-1.507478,0.358923,-1.203404,-1.148426,-1.738522
2025-12-31T15:46:15.227929,12.102896,-1.641476,0.076570,-1.169195,-1.061683,-1.562592
2025-12-31T15:46:15.236929,12.169895,-1.459621,1.052841,-1.258382,-0.886976,-1.326799
2025-12-31T15:46:15.246929,11.662617,-0.880558,1.421336,-1.343903,-0.509461,-1.122770
2025-12-31T15:46:15.256929,10.332207,-0.531206,0.689132,-1.411098,-0.155159,-0.891863
2025-12-31T15:46:15.265929,8.595018,-0.191425,0.550349,-1.484402,0.149051,-0.674395
2025-12-31T15:46:15.275929,6.781259,-0.856630,0.454636,-1.606575,0.419053,-0.598647
2025-12-31T15:46:15.285929,5.072783,-2.024327,0.598205,-1.582140,0.563217,-0.552222
2025-12-31T15:46:15.294929,3.814159,-2.545963,1.339980,-1.229060,0.489913,-0.488692
2025-12-31T15:46:15.304929,3.067598,-2.349751,1.785045,-0.785572,0.261450,-0.426383
2025-12-31T15:46:15.313929,3.010170,-1.799402,1.837687,-0.438601,0.004886,-0.373849
2025-12-31T15:46:15.323929,3.675375,-1.225125,1.521835,-0.296880,-0.230907,-0.313984
2025-12-31T15:46:15.333929,4.852644,-1.086341,1.526620,-0.315206,-0.381179,-0.244346
2025-12-31T15:46:15.342929,5.986842,-0.851844,1.679761,-0.332310,-0.338419,-0.177150
2025-12-31T15:46:15.352929,6.489334,-0.593420,1.277767,-0.452040,-0.094073,-0.063529
2025-12-31T15:46:15.361929,6.197410,-0.421136,0.966700,-0.656069,0.223576,0.023212
2025-12-31T15:46:15.371929,5.326423,-0.574277,1.325623,-0.875980,0.504574,0.075747
2025-12-31T15:46:15.381929,4.134797,-0.875773,1.249053,-0.987158,0.696386,0.156381
2025-12-31T15:46:15.390929,3.105883,-0.928415,1.320838,-0.955393,0.747698,0.200363
2025-12-31T15:46:15.400929,2.512463,-0.760917,1.325623,-0.930958,0.693942,0.246789
2025-12-31T15:46:15.410929,2.321037,-0.736989,1.521835,-0.919962,0.586430,0.300545
2025-12-31T15:46:15.419929,2.512463,-0.684347,1.598405,-0.891863,0.459370,0.348193
2025-12-31T15:46:15.429929,3.091526,-0.397208,1.344766,-0.849102,0.364075,0.401949
2025-12-31T15:46:15.438929,3.598805,-0.105284,1.296909,-0.819780,0.353080,0.425162
2025-12-31T15:46:15.448929,3.775874,-0.114855,1.296909,-0.834441,0.439822,0.432492
2025-12-31T15:46:15.458929,3.646661,-0.253639,1.406979,-0.836885,0.543669,0.421496
2025-12-31T15:46:15.467929,3.527020,-0.660419,1.502692,-0.790459,0.569326,0.408057
2025-12-31T15:46:15.477929,3.766302,-0.813559,1.459621,-0.686612,0.483805,0.378736
2025-12-31T15:46:15.486929,4.498506,-0.727418,1.220339,-0.548556,0.322536,0.320093
2025-12-31T15:46:15.496929,5.647061,-0.296710,0.885344,-0.437379,0.160046,0.262671
2025-12-31T15:46:15.506929,6.939185,0.301495,0.512064,-0.392175,0.020769,0.162490
2025-12-31T15:46:15.515929,8.370093,0.885344,0.038285,-0.425162,-0.108733,0.039095
2025-12-31T15:46:15.525929,9.757930,1.201196,-0.397208,-0.554665,-0.223576,-0.035430
2025-12-31T15:46:15.535929,11.150553,1.071984,-0.713061,-0.772133,-0.313984,-0.074525
2025-12-31T15:46:15.544929,12.404392,0.449850,-1.052841,-1.014036,-0.361632,-0.108733
2025-12-31T15:46:15.554929,13.385449,-0.435493,-1.268195,-1.169195,-0.311541,-0.125838
2025-12-31T15:46:15.563929,13.806586,-1.268195,-1.272981,-1.194852,-0.158824,-0.164933
2025-12-31T15:46:15.573929,13.663017,-1.942971,-0.808774,-1.089783,0.098960,-0.218689
2025-12-31T15:46:15.583929,12.825529,-2.124826,-0.311066,-0.828333,0.397062,-0.239459
2025-12-31T15:46:15.592929,11.184052,-1.617548,0.033499,-0.521678,0.647517,-0.208915
2025-12-31T15:46:15.602929,9.470791,-0.928415,0.244067,-0.291993,0.802676,-0.146607
2025-12-31T15:46:15.611929,7.934599,-0.291924,0.703489,-0.197920,0.828333,-0.037873
2025-12-31T15:46:15.621929,6.647261,-0.071784,1.062413,-0.200363,0.711046,0.103847
2025-12-31T15:46:15.631929,5.876772,-0.234496,1.225125,-0.194255,0.464257,0.233350
2025-12-31T15:46:15.640929,5.742774,-0.636490,1.162911,-0.122173,0.157603,0.310319
2025-12-31T15:46:15.650929,6.259623,-0.937986,1.019342,0.000000,-0.123394,0.344527
2025-12-31T15:46:15.660929,7.073183,-1.215553,1.138983,0.129503,-0.284663,0.359188
2025-12-31T15:46:15.669929,7.987241,-1.387837,1.091127,0.252898,-0.322536,0.344527
2025-12-31T15:46:15.679929,8.724231,-1.507478,1.105484,0.384845,-0.277332,0.315206
2025-12-31T15:46:15.688929,9.312865,-1.540977,1.153340,0.515570,-0.213802,0.277332
2025-12-31T15:46:15.698929,9.829715,-1.368694,1.100698,0.619417,-0.167377,0.234572
2025-12-31T15:46:15.708929,10.332207,-0.947557,1.086341,0.665842,-0.124616,0.217467
2025-12-31T15:46:15.717929,10.791629,-0.588634,0.966700,0.632856,-0.075747,0.226020
2025-12-31T15:46:15.727929,11.078768,-0.191425,0.641276,0.526565,-0.013439,0.267558
2025-12-31T15:46:15.736929,11.255837,0.081355,0.368494,0.355523,0.063529,0.329867
2025-12-31T15:46:15.746929,11.279765,0.153140,0.253639,0.128281,0.139277,0.410501
2025-12-31T15:46:15.756929,11.026126,-0.038285,0.191425,-0.107512,0.210137,0.497244
2025-12-31T15:46:15.765929,10.628917,-0.397208,0.239282,-0.318871,0.272445,0.582765
2025-12-31T15:46:15.775929,10.054640,-1.071984,0.344566,-0.491135,0.334754,0.664621
2025-12-31T15:46:15.785929,9.236295,-1.847259,0.339780,-0.541226,0.386066,0.726929
2025-12-31T15:46:15.794929,8.370093,-2.359323,0.349352,-0.467922,0.410501,0.753807
2025-12-31T15:46:15.804929,7.537391,-2.847458,0.550349,-0.320093,0.371405,0.736703
2025-12-31T15:46:15.813929,7.054041,-3.239881,0.741775,-0.094073,0.234572,0.698829
2025-12-31T15:46:15.823929,6.920042,-3.373879,0.851844,0.228463,0.018325,0.658512
2025-12-31T15:46:15.833929,7.269395,-3.105883,1.153340,0.605978,-0.188146,0.612086
2025-12-31T15:46:15.842929,7.896314,-2.522035,1.593619,0.933401,-0.291993,0.571769
2025-12-31T15:46:15.852929,8.288737,-1.880758,1.603191,1.138652,-0.237015,0.569326
2025-12-31T15:46:15.861929,8.283951,-1.416550,1.555334,1.222951,-0.081855,0.598647
2025-12-31T15:46:15.871929,7.633104,-1.186840,1.344766,1.216843,0.096516,0.648738
2025-12-31T15:46:15.881929,6.757331,-1.282552,1.043270,1.177747,0.213802,0.693942
2025-12-31T15:46:15.890929,5.929414,-1.526620,0.780060,1.187521,0.259006,0.740368
2025-12-31T15:46:15.900929,5.268995,-1.708475,0.717846,1.246164,0.232128,0.772133
2025-12-31T15:46:15.910929,4.752145,-1.823330,0.789631,1.341459,0.153938,0.800233
2025-12-31T15:46:15.919929,4.450650,-1.832902,0.861416,1.477071,0.046425,0.813672
2025-12-31T15:46:15.929929,4.388436,-1.674975,1.033699,1.626122,-0.051312,0.823446
2025-12-31T15:46:15.938929,4.565505,-1.296909,1.244267,1.753182,-0.106290,0.836885
2025-12-31T15:46:15.948929,4.565505,-1.095912,1.325623,1.824043,-0.094073,0.860098
2025-12-31T15:46:15.958929,4.527220,-0.784845,1.397408,1.828930,-0.030543,0.895528
2025-12-31T15:46:15.967929,4.388436,-0.646062,1.344766,1.786169,0.054977,0.941954
2025-12-31T15:46:15.977929,4.149154,-0.669990,1.148554,1.711644,0.123394,0.998153
2025-12-31T15:46:15.986929,3.933800,-0.985842,1.095912,1.633453,0.158824,1.047022
2025-12-31T15:46:15.996929,3.847658,-1.430907,1.091127,1.590692,0.162490,1.086118
2025-12-31T15:46:16.006929,3.900300,-1.670190,1.330409,1.596801,0.153938,1.115439
2025-12-31T15:46:16.015929,4.192225,-1.976471,1.646261,1.621236,0.129503,1.139874
2025-12-31T15:46:16.025929,4.895715,-2.344966,2.167897,1.616349,0.124616,1.185078
2025-12-31T15:46:16.035929,5.862415,-2.545963,2.536391,1.651779,0.168598,1.226617
2025-12-31T15:46:16.044929,6.843472,-2.091326,2.522035,1.722639,0.302989,1.277929
2025-12-31T15:46:16.054929,7.508677,-1.158126,1.986042,1.694539,0.535117,1.357342
2025-12-31T15:46:16.063929,7.776673,-0.210568,1.325623,1.489289,0.816115,1.453858
2025-12-31T15:46:16.073929,7.757530,0.473778,0.851844,1.109331,1.087339,1.584584
2025-12-31T15:46:16.083929,7.355536,0.421136,0.679561,0.593760,1.318246,1.733635
2025-12-31T15:46:16.092929,6.809973,-0.445065,0.550349,0.116064,1.466076,1.866803
2025-12-31T15:46:16.102929,6.326622,-1.282552,0.564706,-0.129503,1.514945,1.953546
2025-12-31T15:46:16.111929,5.905486,-1.593619,0.760917,-0.199142,1.507615,2.007302
2025-12-31T15:46:16.121929,5.699703,-1.871187,0.880558,-0.255341,1.457524,2.045176
2025-12-31T15:46:16.131929,5.833701,-2.258824,1.019342,-0.332310,1.354898,2.079384
2025-12-31T15:46:16.140929,6.355336,-2.507678,1.167697,-0.392175,1.214399,2.106262
2025-12-31T15:46:16.150929,7.130611,-2.675175,1.440479,-0.453261,1.078787,2.144136
2025-12-31T15:46:16.160929,7.963313,-2.727817,1.703689,-0.577878,0.983492,2.204001
2025-12-31T15:46:16.169929,8.810372,-2.880958,2.062613,-0.778242,0.918741,2.287078
