Timestamp,Acceleration_X,Acceleration_Y,Acceleration_Z,Gyro_X,Gyro_Y,Gyro_Z
2026-03-04T18:56:22.087737,-3.278166,-9.461220,1.383051,0.015882,-0.043982,0.020769
2026-03-04T18:56:22.097737,-3.244667,-9.470791,1.335195,0.017104,-0.043982,0.023212
2026-03-04T18:56:22.106737,-3.268595,-9.533005,1.292124,0.019547,-0.042760,0.023212
2026-03-04T18:56:22.116737,-3.278166,-9.499505,1.354337,0.024434,-0.043982,0.020769
2026-03-04T18:56:22.125737,-3.215953,-9.418149,1.349551,0.031764,-0.046425,0.019547
2026-03-04T18:56:22.135737,-3.235096,-9.451649,1.411765,0.030543,-0.047647,0.019547
2026-03-04T18:56:22.145737,-3.230310,-9.513862,1.349551,0.030543,-0.046425,0.019547
2026-03-04T18:56:22.154737,-3.220739,-9.437292,1.349551,0.031764,-0.045204,0.018325
2026-03-04T18:56:22.164737,-3.249453,-9.442077,1.368694,0.034208,-0.047647,0.018325
2026-03-04T18:56:22.174737,-3.259024,-9.466006,1.363908,0.032986,-0.047647,0.019547
2026-03-04T18:56:22.183737,-3.225524,-9.470791,1.363908,0.031764,-0.047647,0.018325
2026-03-04T18:56:22.193737,-3.206382,-9.446863,1.363908,0.029321,-0.046425,0.019547
2026-03-04T18:56:22.202737,-3.230310,-9.384650,1.406979,0.020769,-0.043982,0.021991
2026-03-04T18:56:22.212737,-3.230310,-9.427721,1.378265,0.013439,-0.041538,0.020769
2026-03-04T18:56:22.222737,-3.273381,-9.413364,1.421336,0.009773,-0.040317,0.018325
2026-03-04T18:56:22.231737,-3.259024,-9.427721,1.411765,0.007330,-0.039095,0.018325
2026-03-04T18:56:22.241737,-3.206382,-9.485148,1.383051,0.004886,-0.040317,0.020769
2026-03-04T18:56:22.250737,-3.239881,-9.466006,1.383051,0.008552,-0.041538,0.024434
2026-03-04T18:56:22.260737,-3.259024,-9.442077,1.325623,0.010995,-0.041538,0.021991
2026-03-04T18:56:22.270737,-3.259024,-9.442077,1.354337,0.014660,-0.042760,0.025656
2026-03-04T18:56:22.279737,-3.201596,-9.413364,1.282552,0.014660,-0.041538,0.021991
2026-03-04T18:56:22.289737,-3.282952,-9.427721,1.378265,0.012217,-0.042760,0.024434
2026-03-04T18:56:22.299737,-3.244667,-9.451649,1.373480,0.012217,-0.041538,0.025656
2026-03-04T18:56:22.308737,-3.273381,-9.403792,1.354337,0.010995,-0.040317,0.021991
2026-03-04T18:56:22.318737,-3.287738,-9.466006,1.325623,0.013439,-0.041538,0.020769
2026-03-04T18:56:22.327737,-3.263810,-9.446863,1.373480,0.018325,-0.046425,0.019547
2026-03-04T18:56:22.337737,-3.239881,-9.446863,1.387837,0.023212,-0.045204,0.017104
2026-03-04T18:56:22.347737,-3.249453,-9.442077,1.383051,0.021991,-0.046425,0.018325
2026-03-04T18:56:22.356737,-3.192025,-9.456434,1.383051,0.018325,-0.045204,0.018325
2026-03-04T18:56:22.366737,-3.215953,-9.456434,1.387837,0.014660,-0.043982,0.019547
2026-03-04T18:56:22.375737,-3.225524,-9.446863,1.383051,0.013439,-0.040317,0.014660
2026-03-04T18:56:22.385737,-3.268595,-9.413364,1.316052,0.010995,-0.041538,0.015882
2026-03-04T18:56:22.395737,-3.235096,-9.466006,1.354337,0.009773,-0.040317,0.015882
2026-03-04T18:56:22.404737,-3.282952,-9.489934,1.368694,0.013439,-0.042760,0.020769
2026-03-04T18:56:22.414737,-3.287738,-9.499505,1.320838,0.021991,-0.043982,0.018325
2026-03-04T18:56:22.424737,-3.235096,-9.466006,1.320838,0.026878,-0.045204,0.013439
2026-03-04T18:56:22.433737,-3.230310,-9.456434,1.354337,0.028099,-0.046425,0.015882
2026-03-04T18:56:22.443737,-3.220739,-9.418149,1.349551,0.030543,-0.046425,0.019547
2026-03-04T18:56:22.452737,-3.254238,-9.489934,1.406979,0.026878,-0.045204,0.020769
2026-03-04T18:56:22.462737,-3.244667,-9.461220,1.330409,0.023212,-0.045204,0.019547
2026-03-04T18:56:22.472737,-3.263810,-9.379864,1.383051,0.024434,-0.045204,0.018325
2026-03-04T18:56:22.481737,-3.215953,-9.427721,1.354337,0.020769,-0.045204,0.019547
2026-03-04T18:56:22.491737,-3.268595,-9.432506,1.373480,0.017104,-0.042760,0.019547
2026-03-04T18:56:22.500737,-3.225524,-9.456434,1.354337,0.013439,-0.042760,0.018325
2026-03-04T18:56:22.510737,-3.239881,-9.418149,1.339980,0.012217,-0.039095,0.019547
2026-03-04T18:56:22.520737,-3.292523,-9.489934,1.306481,0.015882,-0.041538,0.019547
2026-03-04T18:56:22.529737,-3.263810,-9.446863,1.330409,0.020769,-0.043982,0.018325
2026-03-04T18:56:22.539737,-3.225524,-9.432506,1.349551,0.021991,-0.045204,0.019547
2026-03-04T18:56:22.549737,-3.249453,-9.408578,1.354337,0.021991,-0.045204,0.023212
2026-03-04T18:56:22.558737,-3.263810,-9.470791,1.378265,0.020769,-0.041538,0.017104
2026-03-04T18:56:22.568737,-3.235096,-9.461220,1.383051,0.020769,-0.039095,0.013439
2026-03-04T18:56:22.577737,-3.235096,-9.480363,1.373480,0.017104,-0.041538,0.017104
2026-03-04T18:56:22.587737,-3.254238,-9.480363,1.311266,0.020769,-0.043982,0.018325
2026-03-04T18:56:22.597737,-3.297309,-9.470791,1.287338,0.026878,-0.043982,0.017104
2026-03-04T18:56:22.606737,-3.306880,-9.446863,1.359123,0.031764,-0.048869,0.019547
2026-03-04T18:56:22.616737,-3.297309,-9.432506,1.383051,0.030543,-0.047647,0.019547
2026-03-04T18:56:22.625737,-3.225524,-9.427721,1.392622,0.026878,-0.046425,0.018325
2026-03-04T18:56:22.635737,-3.311666,-9.427721,1.373480,0.019547,-0.043982,0.018325
2026-03-04T18:56:22.645737,-3.282952,-9.456434,1.325623,0.015882,-0.040317,0.018325
2026-03-04T18:56:22.654737,-3.273381,-9.442077,1.272981,0.014660,-0.041538,0.018325
2026-03-04T18:56:22.664737,-3.211167,-9.456434,1.378265,0.019547,-0.041538,0.018325
2026-03-04T18:56:22.674737,-3.273381,-9.427721,1.320838,0.020769,-0.040317,0.013439
2026-03-04T18:56:22.683737,-3.230310,-9.451649,1.354337,0.019547,-0.041538,0.015882
2026-03-04T18:56:22.693737,-3.259024,-9.442077,1.363908,0.023212,-0.043982,0.017104
2026-03-04T18:56:22.702737,-3.215953,-9.470791,1.354337,0.025656,-0.043982,0.014660
2026-03-04T18:56:22.712737,-3.282952,-9.413364,1.349551,0.029321,-0.046425,0.018325
2026-03-04T18:56:22.722737,-3.297309,-9.437292,1.373480,0.030543,-0.050090,0.028099
2026-03-04T18:56:22.731737,-3.263810,-9.475577,1.354337,0.034208,-0.048869,0.021991
2026-03-04T18:56:22.741737,-3.282952,-9.422935,1.359123,0.039095,-0.048869,0.020769
2026-03-04T18:56:22.750737,-3.316452,-9.461220,1.421336,0.037873,-0.048869,0.019547
2026-03-04T18:56:22.760737,-3.225524,-9.418149,1.430907,0.028099,-0.043982,0.021991
2026-03-04T18:56:22.770737,-3.268595,-9.370293,1.445264,0.015882,-0.040317,0.018325
2026-03-04T18:56:22.779737,-3.187239,-9.365507,1.397408,0.006108,-0.036651,0.018325
2026-03-04T18:56:22.789737,-3.306880,-9.446863,1.373480,-0.001221,-0.034208,0.014660
2026-03-04T18:56:22.799737,-3.287738,-9.446863,1.339980,0.000000,-0.035430,0.014660
2026-03-04T18:56:22.808737,-3.302095,-9.518648,1.325623,0.004886,-0.037873,0.017104
2026-03-04T18:56:22.818737,-3.268595,-9.480363,1.287338,0.012217,-0.039095,0.015882
2026-03-04T18:56:22.827737,-3.316452,-9.427721,1.339980,0.021991,-0.042760,0.018325
2026-03-04T18:56:22.837737,-3.220739,-9.475577,1.363908,0.029321,-0.046425,0.019547
2026-03-04T18:56:22.847737,-3.249453,-9.451649,1.339980,0.029321,-0.046425,0.020769
2026-03-04T18:56:22.856737,-3.239881,-9.437292,1.387837,0.030543,-0.046425,0.019547
2026-03-04T18:56:22.866737,-3.287738,-9.499505,1.378265,0.030543,-0.048869,0.018325
2026-03-04T18:56:22.875737,-3.244667,-9.432506,1.368694,0.031764,-0.047647,0.018325
2026-03-04T18:56:22.885737,-3.225524,-9.432506,1.383051,0.030543,-0.047647,0.018325
2026-03-04T18:56:22.895737,-3.254238,-9.422935,1.373480,0.025656,-0.045204,0.015882
2026-03-04T18:56:22.904737,-3.321237,-9.451649,1.344766,0.023212,-0.043982,0.015882
2026-03-04T18:56:22.914737,-3.235096,-9.413364,1.411765,0.020769,-0.043982,0.019547
2026-03-04T18:56:22.924737,-3.273381,-9.399007,1.325623,0.019547,-0.043982,0.019547
2026-03-04T18:56:22.933737,-3.268595,-9.399007,1.406979,0.019547,-0.045204,0.023212
2026-03-04T18:56:22.943737,-3.263810,-9.470791,1.344766,0.020769,-0.043982,0.019547
2026-03-04T18:56:22.952737,-3.244667,-9.451649,1.354337,0.021991,-0.043982,0.018325
2026-03-04T18:56:22.962737,-3.273381,-9.394221,1.354337,0.020769,-0.043982,0.020769
2026-03-04T18:56:22.972737,-3.273381,-9.489934,1.402194,0.020769,-0.043982,0.018325
2026-03-04T18:56:22.981737,-3.215953,-9.451649,1.402194,0.021991,-0.045204,0.017104
2026-03-04T18:56:22.991737,-3.259024,-9.437292,1.383051,0.023212,-0.043982,0.018325
2026-03-04T18:56:23.000737,-3.211167,-9.470791,1.392622,0.023212,-0.042760,0.018325
2026-03-04T18:56:23.010737,-3.259024,-9.427721,1.316052,0.025656,-0.042760,0.015882
2026-03-04T18:56:23.020737,-3.278166,-9.489934,1.373480,0.028099,-0.045204,0.018325
2026-03-04T18:56:23.029737,-3.206382,-9.399007,1.383051,0.029321,-0.046425,0.015882
2026-03-04T18:56:23.039737,-3.273381,-9.442077,1.416550,0.023212,-0.045204,0.019547
2026-03-04T18:56:23.049737,-3.316452,-9.432506,1.359123,0.019547,-0.042760,0.019547
2026-03-04T18:56:23.058737,-3.259024,-9.422935,1.339980,0.015882,-0.041538,0.017104
2026-03-04T18:56:23.068737,-3.244667,-9.394221,1.402194,0.014660,-0.039095,0.018325
2026-03-04T18:56:23.077737,-3.263810,-9.451649,1.378265,0.010995,-0.041538,0.017104
2026-03-04T18:56:23.087737,-3.239881,-9.427721,1.383051,0.013439,-0.040317,0.015882
2026-03-04T18:56:23.097737,-3.278166,-9.446863,1.359123,0.015882,-0.040317,0.015882
2026-03-04T18:56:23.106737,-3.287738,-9.437292,1.335195,0.018325,-0.042760,0.015882
2026-03-04T18:56:23.116737,-3.326023,-9.427721,1.335195,0.024434,-0.042760,0.015882
2026-03-04T18:56:23.125737,-3.254238,-9.427721,1.383051,0.024434,-0.046425,0.019547
2026-03-04T18:56:23.135737,-3.268595,-9.451649,1.296909,0.023212,-0.045204,0.018325
2026-03-04T18:56:23.145737,-3.244667,-9.432506,1.368694,0.029321,-0.043982,0.015882
2026-03-04T18:56:23.154737,-3.249453,-9.475577,1.339980,0.028099,-0.045204,0.015882
2026-03-04T18:56:23.164737,-3.263810,-9.432506,1.397408,0.026878,-0.045204,0.018325
2026-03-04T18:56:23.174737,-3.254238,-9.437292,1.330409,0.029321,-0.043982,0.018325
2026-03-04T18:56:23.183737,-3.254238,-9.451649,1.373480,0.030543,-0.042760,0.014660
2026-03-04T18:56:23.193737,-3.201596,-9.446863,1.383051,0.031764,-0.047647,0.019547
2026-03-04T18:56:23.202737,-3.259024,-9.475577,1.402194,0.032986,-0.047647,0.019547
2026-03-04T18:56:23.212737,-3.225524,-9.413364,1.464407,0.028099,-0.046425,0.020769
2026-03-04T18:56:23.222737,-3.230310,-9.442077,1.454836,0.019547,-0.042760,0.021991
2026-03-04T18:56:23.231737,-3.230310,-9.442077,1.368694,0.012217,-0.039095,0.017104
2026-03-04T18:56:23.241737,-3.268595,-9.418149,1.339980,0.010995,-0.040317,0.018325
2026-03-04T18:56:23.250737,-3.278166,-9.466006,1.378265,0.015882,-0.041538,0.017104
2026-03-04T18:56:23.260737,-3.345165,-9.418149,1.363908,0.019547,-0.042760,0.015882
2026-03-04T18:56:23.270737,-3.215953,-9.418149,1.373480,0.023212,-0.043982,0.015882
2026-03-04T18:56:23.279737,-3.259024,-9.461220,1.368694,0.028099,-0.045204,0.018325
2026-03-04T18:56:23.289737,-3.297309,-9.408578,1.368694,0.029321,-0.047647,0.015882
2026-03-04T18:56:23.299737,-3.263810,-9.461220,1.402194,0.029321,-0.045204,0.017104
2026-03-04T18:56:23.308737,-3.244667,-9.432506,1.426122,0.026878,-0.045204,0.018325
2026-03-04T18:56:23.318737,-3.278166,-9.466006,1.325623,0.025656,-0.045204,0.017104
2026-03-04T18:56:23.327737,-3.220739,-9.427721,1.416550,0.024434,-0.042760,0.015882
2026-03-04T18:56:23.337737,-3.278166,-9.451649,1.392622,0.025656,-0.042760,0.018325
2026-03-04T18:56:23.347737,-3.302095,-9.437292,1.411765,0.023212,-0.043982,0.017104
2026-03-04T18:56:23.356737,-3.263810,-9.456434,1.406979,0.023212,-0.046425,0.020769
2026-03-04T18:56:23.366737,-3.249453,-9.403792,1.339980,0.021991,-0.043982,0.018325
2026-03-04T18:56:23.375737,-3.273381,-9.475577,1.402194,0.024434,-0.042760,0.017104
2026-03-04T18:56:23.385737,-3.278166,-9.466006,1.363908,0.024434,-0.042760,0.019547
2026-03-04T18:56:23.395737,-3.268595,-9.461220,1.344766,0.023212,-0.042760,0.018325
2026-03-04T18:56:23.404737,-3.235096,-9.418149,1.387837,0.021991,-0.042760,0.019547
2026-03-04T18:56:23.414737,-3.297309,-9.360722,1.406979,0.017104,-0.041538,0.018325
2026-03-04T18:56:23.424737,-3.268595,-9.422935,1.368694,0.012217,-0.041538,0.015882
2026-03-04T18:56:23.433737,-3.235096,-9.403792,1.354337,0.010995,-0.037873,0.015882
2026-03-04T18:56:23.443737,-3.311666,-9.480363,1.354337,0.012217,-0.039095,0.017104
2026-03-04T18:56:23.452737,-3.239881,-9.509077,1.383051,0.015882,-0.039095,0.017104
2026-03-04T18:56:23.462737,-3.287738,-9.475577,1.330409,0.023212,-0.045204,0.015882
2026-03-04T18:56:23.472737,-3.330809,-9.427721,1.359123,0.028099,-0.045204,0.017104
2026-03-04T18:56:23.481737,-3.259024,-9.485148,1.349551,0.030543,-0.043982,0.014660
2026-03-04T18:56:23.491737,-3.239881,-9.432506,1.349551,0.029321,-0.045204,0.017104
2026-03-04T18:56:23.500737,-3.282952,-9.489934,1.392622,0.026878,-0.045204,0.015882
2026-03-04T18:56:23.510737,-3.263810,-9.466006,1.378265,0.024434,-0.043982,0.014660
2026-03-04T18:56:23.520737,-3.311666,-9.384650,1.406979,0.023212,-0.043982,0.020769
2026-03-04T18:56:23.529737,-3.302095,-9.509077,1.392622,0.021991,-0.041538,0.013439
2026-03-04T18:56:23.539737,-3.230310,-9.518648,1.402194,0.024434,-0.043982,0.014660
2026-03-04T18:56:23.549737,-3.268595,-9.375078,1.488335,0.024434,-0.043982,0.017104
2026-03-04T18:56:23.558737,-3.196810,-9.394221,1.445264,0.021991,-0.045204,0.018325
2026-03-04T18:56:23.568737,-3.211167,-9.437292,1.344766,0.014660,-0.040317,0.015882
2026-03-04T18:56:23.577737,-3.225524,-9.485148,1.416550,0.013439,-0.040317,0.017104
2026-03-04T18:56:23.587737,-3.273381,-9.456434,1.325623,0.017104,-0.042760,0.015882
2026-03-04T18:56:23.597737,-3.254238,-9.418149,1.387837,0.019547,-0.042760,0.017104
2026-03-04T18:56:23.606737,-3.268595,-9.408578,1.406979,0.023212,-0.042760,0.017104
2026-03-04T18:56:23.616737,-3.244667,-9.418149,1.339980,0.026878,-0.046425,0.015882
2026-03-04T18:56:23.625737,-3.249453,-9.427721,1.383051,0.025656,-0.045204,0.017104
2026-03-04T18:56:23.635737,-3.268595,-9.413364,1.378265,0.021991,-0.043982,0.018325
2026-03-04T18:56:23.645737,-3.244667,-9.384650,1.406979,0.019547,-0.040317,0.015882
2026-03-04T18:56:23.654737,-3.215953,-9.365507,1.454836,0.013439,-0.039095,0.019547
2026-03-04T18:56:23.664737,-3.244667,-9.427721,1.392622,0.009773,-0.037873,0.017104
2026-03-04T18:56:23.674737,-3.282952,-9.480363,1.397408,0.009773,-0.040317,0.014660
2026-03-04T18:56:23.683737,-3.254238,-9.446863,1.411765,0.010995,-0.040317,0.015882
2026-03-04T18:56:23.693737,-3.249453,-9.422935,1.430907,0.009773,-0.040317,0.017104
2026-03-04T18:56:23.702737,-3.187239,-9.413364,1.373480,0.008552,-0.039095,0.017104
2026-03-04T18:56:23.712737,-3.259024,-9.489934,1.411765,0.013439,-0.040317,0.017104
2026-03-04T18:56:23.722737,-3.268595,-9.499505,1.330409,0.014660,-0.042760,0.019547
2026-03-04T18:56:23.731737,-3.249453,-9.489934,1.383051,0.018325,-0.042760,0.021991
2026-03-04T18:56:23.741737,-3.311666,-9.389435,1.344766,0.021991,-0.045204,0.018325
2026-03-04T18:56:23.750737,-3.249453,-9.408578,1.349551,0.021991,-0.048869,0.025656
2026-03-04T18:56:23.760737,-3.302095,-9.466006,1.378265,0.024434,-0.043982,0.017104
2026-03-04T18:56:23.770737,-3.244667,-9.437292,1.411765,0.025656,-0.043982,0.014660
2026-03-04T18:56:23.779737,-3.287738,-9.403792,1.416550,0.025656,-0.043982,0.015882
2026-03-04T18:56:23.789737,-3.282952,-9.446863,1.397408,0.025656,-0.045204,0.017104
2026-03-04T18:56:23.799737,-3.297309,-9.413364,1.368694,0.025656,-0.043982,0.018325
2026-03-04T18:56:23.808737,-3.254238,-9.446863,1.387837,0.021991,-0.045204,0.024434
2026-03-04T18:56:23.818737,-3.239881,-9.389435,1.430907,0.018325,-0.042760,0.019547
2026-03-04T18:56:23.827737,-3.244667,-9.446863,1.359123,0.012217,-0.039095,0.020769
2026-03-04T18:56:23.837737,-3.273381,-9.442077,1.368694,0.010995,-0.040317,0.021991
2026-03-04T18:56:23.847737,-3.268595,-9.475577,1.359123,0.014660,-0.042760,0.017104
2026-03-04T18:56:23.856737,-3.292523,-9.499505,1.344766,0.019547,-0.042760,0.017104
2026-03-04T18:56:23.866737,-3.273381,-9.442077,1.378265,0.025656,-0.042760,0.014660
2026-03-04T18:56:23.875737,-3.254238,-9.456434,1.359123,0.026878,-0.042760,0.015882
2026-03-04T18:56:23.885737,-3.244667,-9.446863,1.421336,0.026878,-0.043982,0.018325
2026-03-04T18:56:23.895737,-3.282952,-9.437292,1.392622,0.024434,-0.045204,0.017104
2026-03-04T18:56:23.904737,-3.206382,-9.466006,1.368694,0.023212,-0.045204,0.019547
2026-03-04T18:56:23.914737,-3.254238,-9.432506,1.445264,0.018325,-0.041538,0.019547
2026-03-04T18:56:23.924737,-3.263810,-9.485148,1.406979,0.018325,-0.041538,0.017104
2026-03-04T18:56:23.933737,-3.282952,-9.403792,1.359123,0.020769,-0.041538,0.017104
2026-03-04T18:56:23.943737,-3.249453,-9.413364,1.368694,0.023212,-0.045204,0.018325
2026-03-04T18:56:23.952737,-3.239881,-9.461220,1.383051,0.024434,-0.042760,0.018325
2026-03-04T18:56:23.962737,-3.297309,-9.389435,1.445264,0.023212,-0.042760,0.018325
2026-03-04T18:56:23.972737,-3.278166,-9.475577,1.354337,0.021991,-0.041538,0.015882
2026-03-04T18:56:23.981737,-3.244667,-9.485148,1.373480,0.019547,-0.042760,0.014660
2026-03-04T18:56:23.991737,-3.244667,-9.408578,1.411765,0.017104,-0.040317,0.018325
2026-03-04T18:56:24.000737,-3.268595,-9.451649,1.387837,0.017104,-0.040317,0.017104
2026-03-04T18:56:24.010737,-3.273381,-9.480363,1.363908,0.018325,-0.040317,0.018325
2026-03-04T18:56:24.020737,-3.302095,-9.432506,1.397408,0.019547,-0.041538,0.013439
2026-03-04T18:56:24.029737,-3.287738,-9.466006,1.416550,0.019547,-0.040317,0.014660
2026-03-04T18:56:24.039737,-3.249453,-9.413364,1.363908,0.019547,-0.042760,0.015882
2026-03-04T18:56:24.049737,-3.282952,-9.427721,1.387837,0.018325,-0.042760,0.018325
2026-03-04T18:56:24.058737,-3.239881,-9.442077,1.339980,0.019547,-0.042760,0.017104
2026-03-04T18:56:24.068737,-3.263810,-9.432506,1.359123,0.025656,-0.045204,0.018325
2026-03-04T18:56:24.077737,-3.278166,-9.399007,1.435693,0.028099,-0.046425,0.018325
2026-03-04T18:56:24.087737,-3.311666,-9.446863,1.411765,0.025656,-0.045204,0.018325
2026-03-04T18:56:24.097737,-3.254238,-9.451649,1.430907,0.024434,-0.045204,0.020769
2026-03-04T18:56:24.106737,-3.292523,-9.451649,1.411765,0.021991,-0.041538,0.018325
2026-03-04T18:56:24.116737,-3.287738,-9.446863,1.387837,0.020769,-0.042760,0.017104
2026-03-04T18:56:24.125737,-3.273381,-9.456434,1.387837,0.023212,-0.043982,0.018325
2026-03-04T18:56:24.135737,-3.244667,-9.466006,1.363908,0.025656,-0.045204,0.017104
2026-03-04T18:56:24.145737,-3.249453,-9.413364,1.411765,0.023212,-0.042760,0.017104
2026-03-04T18:56:24.154737,-3.278166,-9.408578,1.392622,0.023212,-0.042760,0.017104
2026-03-04T18:56:24.164737,-3.292523,-9.422935,1.445264,0.020769,-0.041538,0.014660
2026-03-04T18:56:24.174737,-3.306880,-9.408578,1.421336,0.018325,-0.042760,0.017104
2026-03-04T18:56:24.183737,-3.282952,-9.475577,1.435693,0.017104,-0.041538,0.015882
2026-03-04T18:56:24.193737,-3.316452,-9.442077,1.402194,0.017104,-0.042760,0.015882
2026-03-04T18:56:24.202737,-3.249453,-9.427721,1.344766,0.018325,-0.041538,0.018325
2026-03-04T18:56:24.212737,-3.215953,-9.456434,1.421336,0.019547,-0.045204,0.020769
2026-03-04T18:56:24.222737,-3.244667,-9.427721,1.325623,0.019547,-0.043982,0.018325
2026-03-04T18:56:24.231737,-3.273381,-9.432506,1.378265,0.019547,-0.042760,0.017104
2026-03-04T18:56:24.241737,-3.230310,-9.451649,1.406979,0.019547,-0.043982,0.013439
2026-03-04T18:56:24.250737,-3.225524,-9.461220,1.406979,0.018325,-0.041538,0.014660
2026-03-04T18:56:24.260737,-3.268595,-9.437292,1.440479,0.020769,-0.043982,0.013439
2026-03-04T18:56:24.270737,-3.282952,-9.461220,1.421336,0.021991,-0.042760,0.014660
2026-03-04T18:56:24.279737,-3.192025,-9.422935,1.430907,0.023212,-0.045204,0.020769
2026-03-04T18:56:24.289737,-3.225524,-9.451649,1.411765,0.024434,-0.043982,0.019547
2026-03-04T18:56:24.299737,-3.254238,-9.456434,1.349551,0.021991,-0.041538,0.017104
2026-03-04T18:56:24.308737,-3.297309,-9.422935,1.402194,0.021991,-0.043982,0.015882
2026-03-04T18:56:24.318737,-3.225524,-9.384650,1.363908,0.019547,-0.041538,0.017104
2026-03-04T18:56:24.327737,-3.225524,-9.466006,1.430907,0.019547,-0.043982,0.017104
2026-03-04T18:56:24.337737,-3.259024,-9.427721,1.387837,0.018325,-0.041538,0.019547
2026-03-04T18:56:24.347737,-3.278166,-9.408578,1.378265,0.014660,-0.041538,0.018325
2026-03-04T18:56:24.356737,-3.211167,-9.437292,1.311266,0.012217,-0.040317,0.018325
2026-03-04T18:56:24.366737,-3.268595,-9.418149,1.416550,0.010995,-0.041538,0.018325
2026-03-04T18:56:24.375737,-3.244667,-9.437292,1.397408,0.013439,-0.040317,0.015882
2026-03-04T18:56:24.385737,-3.254238,-9.461220,1.373480,0.015882,-0.041538,0.018325
2026-03-04T18:56:24.395737,-3.239881,-9.422935,1.406979,0.017104,-0.042760,0.015882
2026-03-04T18:56:24.404737,-3.268595,-9.408578,1.421336,0.019547,-0.042760,0.014660
2026-03-04T18:56:24.414737,-3.292523,-9.418149,1.387837,0.018325,-0.041538,0.015882
2026-03-04T18:56:24.424737,-3.287738,-9.461220,1.416550,0.017104,-0.042760,0.017104
2026-03-04T18:56:24.433737,-3.244667,-9.437292,1.440479,0.017104,-0.041538,0.018325
2026-03-04T18:56:24.443737,-3.254238,-9.389435,1.416550,0.014660,-0.040317,0.017104
2026-03-04T18:56:24.452737,-3.278166,-9.446863,1.387837,0.013439,-0.040317,0.017104
2026-03-04T18:56:24.462737,-3.263810,-9.456434,1.378265,0.015882,-0.041538,0.018325
2026-03-04T18:56:24.472737,-3.292523,-9.466006,1.406979,0.019547,-0.042760,0.017104
2026-03-04T18:56:24.481737,-3.287738,-9.446863,1.406979,0.017104,-0.043982,0.018325
2026-03-04T18:56:24.491737,-3.254238,-9.432506,1.430907,0.018325,-0.042760,0.015882
2026-03-04T18:56:24.500737,-3.235096,-9.466006,1.344766,0.017104,-0.041538,0.018325
2026-03-04T18:56:24.510737,-3.278166,-9.442077,1.368694,0.014660,-0.039095,0.018325
2026-03-04T18:56:24.520737,-3.263810,-9.513862,1.421336,0.020769,-0.043982,0.015882
2026-03-04T18:56:24.529737,-3.244667,-9.470791,1.445264,0.020769,-0.043982,0.019547
2026-03-04T18:56:24.539737,-3.282952,-9.427721,1.406979,0.019547,-0.041538,0.018325
2026-03-04T18:56:24.549737,-3.263810,-9.442077,1.383051,0.018325,-0.041538,0.017104
2026-03-04T18:56:24.558737,-3.282952,-9.375078,1.411765,0.018325,-0.043982,0.015882
2026-03-04T18:56:24.568737,-3.211167,-9.422935,1.426122,0.017104,-0.037873,0.012217
2026-03-04T18:56:24.577737,-3.282952,-9.399007,1.387837,0.017104,-0.040317,0.014660
2026-03-04T18:56:24.587737,-3.244667,-9.456434,1.397408,0.015882,-0.040317,0.015882
2026-03-04T18:56:24.597737,-3.282952,-9.466006,1.354337,0.014660,-0.042760,0.021991
2026-03-04T18:56:24.606737,-3.215953,-9.432506,1.373480,0.019547,-0.042760,0.018325
2026-03-04T18:56:24.616737,-3.268595,-9.466006,1.406979,0.020769,-0.046425,0.021991
2026-03-04T18:56:24.625737,-3.259024,-9.389435,1.330409,0.021991,-0.045204,0.020769
2026-03-04T18:56:24.635737,-3.259024,-9.470791,1.416550,0.020769,-0.043982,0.019547
2026-03-04T18:56:24.645737,-3.249453,-9.370293,1.387837,0.019547,-0.041538,0.017104
2026-03-04T18:56:24.654737,-3.254238,-9.403792,1.397408,0.018325,-0.042760,0.018325
2026-03-04T18:56:24.664737,-3.254238,-9.470791,1.330409,0.019547,-0.046425,0.021991
2026-03-04T18:56:24.674737,-3.282952,-9.470791,1.373480,0.018325,-0.042760,0.017104
2026-03-04T18:56:24.683737,-3.239881,-9.513862,1.330409,0.017104,-0.042760,0.017104
2026-03-04T18:56:24.693737,-3.249453,-9.394221,1.406979,0.020769,-0.040317,0.014660
2026-03-04T18:56:24.702737,-3.292523,-9.485148,1.330409,0.017104,-0.041538,0.015882
2026-03-04T18:56:24.712737,-3.268595,-9.466006,1.320838,0.018325,-0.042760,0.015882
2026-03-04T18:56:24.722737,-3.215953,-9.418149,1.402194,0.020769,-0.041538,0.017104
2026-03-04T18:56:24.731737,-3.244667,-9.451649,1.402194,0.023212,-0.043982,0.018325
2026-03-04T18:56:24.741737,-3.254238,-9.432506,1.363908,0.025656,-0.047647,0.024434
2026-03-04T18:56:24.750737,-3.220739,-9.375078,1.335195,0.026878,-0.047647,0.020769
2026-03-04T18:56:24.760737,-3.235096,-9.480363,1.359123,0.025656,-0.045204,0.019547
2026-03-04T18:56:24.770737,-3.249453,-9.365507,1.421336,0.023212,-0.045204,0.019547
2026-03-04T18:56:24.779737,-3.273381,-9.442077,1.411765,0.021991,-0.042760,0.018325
2026-03-04T18:56:24.789737,-3.282952,-9.432506,1.430907,0.017104,-0.042760,0.015882
2026-03-04T18:56:24.799737,-3.278166,-9.442077,1.387837,0.015882,-0.040317,0.015882
2026-03-04T18:56:24.808737,-3.326023,-9.461220,1.421336,0.017104,-0.041538,0.015882
2026-03-04T18:56:24.818737,-3.268595,-9.509077,1.387837,0.017104,-0.040317,0.009773
2026-03-04T18:56:24.827737,-3.254238,-9.422935,1.406979,0.019547,-0.040317,0.012217
2026-03-04T18:56:24.837737,-3.321237,-9.413364,1.426122,0.019547,-0.042760,0.014660
2026-03-04T18:56:24.847737,-3.340380,-9.437292,1.426122,0.018325,-0.043982,0.015882
2026-03-04T18:56:24.856737,-3.263810,-9.442077,1.363908,0.018325,-0.042760,0.017104
2026-03-04T18:56:24.866737,-3.292523,-9.461220,1.368694,0.019547,-0.043982,0.017104
2026-03-04T18:56:24.875737,-3.239881,-9.489934,1.368694,0.020769,-0.045204,0.020769
2026-03-04T18:56:24.885737,-3.263810,-9.427721,1.411765,0.021991,-0.043982,0.019547
2026-03-04T18:56:24.895737,-3.311666,-9.394221,1.402194,0.020769,-0.041538,0.019547
2026-03-04T18:56:24.904737,-3.263810,-9.379864,1.402194,0.018325,-0.041538,0.018325
2026-03-04T18:56:24.914737,-3.263810,-9.442077,1.373480,0.015882,-0.041538,0.017104
2026-03-04T18:56:24.924737,-3.292523,-9.470791,1.339980,0.018325,-0.041538,0.017104
2026-03-04T18:56:24.933737,-3.273381,-9.480363,1.368694,0.019547,-0.043982,0.019547
2026-03-04T18:56:24.943737,-3.239881,-9.504291,1.354337,0.021991,-0.042760,0.014660
2026-03-04T18:56:24.952737,-3.268595,-9.480363,1.344766,0.021991,-0.043982,0.015882
2026-03-04T18:56:24.962737,-3.268595,-9.461220,1.368694,0.024434,-0.046425,0.017104
2026-03-04T18:56:24.972737,-3.263810,-9.489934,1.392622,0.026878,-0.046425,0.019547
2026-03-04T18:56:24.981737,-3.220739,-9.418149,1.383051,0.026878,-0.046425,0.018325
2026-03-04T18:56:24.991737,-3.182454,-9.418149,1.383051,0.029321,-0.046425,0.019547
2026-03-04T18:56:25.000737,-3.273381,-9.442077,1.450050,0.026878,-0.043982,0.018325
2026-03-04T18:56:25.010737,-3.316452,-9.442077,1.368694,0.020769,-0.042760,0.018325
2026-03-04T18:56:25.020737,-3.302095,-9.413364,1.440479,0.017104,-0.040317,0.018325
2026-03-04T18:56:25.029737,-3.249453,-9.437292,1.392622,0.014660,-0.040317,0.018325
2026-03-04T18:56:25.039737,-3.302095,-9.489934,1.383051,0.014660,-0.041538,0.018325
2026-03-04T18:56:25.049737,-3.187239,-9.437292,1.368694,0.015882,-0.041538,0.017104
2026-03-04T18:56:25.058737,-3.292523,-9.466006,1.359123,0.018325,-0.041538,0.017104
2026-03-04T18:56:25.068737,-3.273381,-9.432506,1.368694,0.018325,-0.040317,0.014660
2026-03-04T18:56:25.077737,-3.230310,-9.446863,1.373480,0.019547,-0.042760,0.017104
2026-03-04T18:56:25.087737,-3.254238,-9.456434,1.397408,0.021991,-0.043982,0.018325
2026-03-04T18:56:25.097737,-3.311666,-9.432506,1.359123,0.023212,-0.046425,0.019547
2026-03-04T18:56:25.106737,-3.345165,-9.418149,1.411765,0.024434,-0.045204,0.018325
2026-03-04T18:56:25.116737,-3.282952,-9.432506,1.426122,0.024434,-0.045204,0.018325
2026-03-04T18:56:25.125737,-3.263810,-9.413364,1.421336,0.021991,-0.042760,0.015882
2026-03-04T18:56:25.135737,-3.287738,-9.451649,1.426122,0.020769,-0.042760,0.017104
2026-03-04T18:56:25.145737,-3.254238,-9.446863,1.402194,0.019547,-0.041538,0.017104
2026-03-04T18:56:25.154737,-3.254238,-9.394221,1.416550,0.018325,-0.041538,0.019547
2026-03-04T18:56:25.164737,-3.239881,-9.432506,1.402194,0.019547,-0.041538,0.018325
2026-03-04T18:56:25.174737,-3.239881,-9.456434,1.378265,0.017104,-0.042760,0.015882
2026-03-04T18:56:25.183737,-3.292523,-9.485148,1.339980,0.017104,-0.042760,0.018325
2026-03-04T18:56:25.193737,-3.287738,-9.427721,1.354337,0.020769,-0.042760,0.018325
2026-03-04T18:56:25.202737,-3.311666,-9.470791,1.368694,0.021991,-0.043982,0.019547
2026-03-04T18:56:25.212737,-3.215953,-9.403792,1.359123,0.024434,-0.043982,0.017104
2026-03-04T18:56:25.222737,-3.244667,-9.442077,1.392622,0.030543,-0.043982,0.012217
2026-03-04T18:56:25.231737,-3.278166,-9.413364,1.416550,0.029321,-0.046425,0.017104
2026-03-04T18:56:25.241737,-3.282952,-9.432506,1.387837,0.025656,-0.046425,0.015882
2026-03-04T18:56:25.250737,-3.297309,-9.413364,1.387837,0.021991,-0.045204,0.013439
2026-03-04T18:56:25.260737,-3.244667,-9.365507,1.387837,0.019547,-0.043982,0.019547
2026-03-04T18:56:25.270737,-3.215953,-9.475577,1.426122,0.015882,-0.042760,0.017104
2026-03-04T18:56:25.279737,-3.349951,-9.451649,1.368694,0.013439,-0.039095,0.018325
2026-03-04T18:56:25.289737,-3.235096,-9.451649,1.397408,0.015882,-0.041538,0.019547
2026-03-04T18:56:25.299737,-3.263810,-9.418149,1.383051,0.015882,-0.041538,0.019547
2026-03-04T18:56:25.308737,-3.302095,-9.485148,1.363908,0.017104,-0.041538,0.017104
2026-03-04T18:56:25.318737,-3.249453,-9.475577,1.387837,0.019547,-0.042760,0.017104
2026-03-04T18:56:25.327737,-3.211167,-9.461220,1.344766,0.023212,-0.043982,0.018325
2026-03-04T18:56:25.337737,-3.235096,-9.437292,1.426122,0.023212,-0.045204,0.018325
2026-03-04T18:56:25.347737,-3.263810,-9.427721,1.397408,0.025656,-0.045204,0.017104
2026-03-04T18:56:25.356737,-3.254238,-9.432506,1.435693,0.023212,-0.043982,0.017104
2026-03-04T18:56:25.366737,-3.230310,-9.480363,1.440479,0.021991,-0.042760,0.014660
2026-03-04T18:56:25.375737,-3.287738,-9.427721,1.378265,0.021991,-0.042760,0.015882
2026-03-04T18:56:25.385737,-3.225524,-9.399007,1.421336,0.018325,-0.041538,0.017104
2026-03-04T18:56:25.395737,-3.282952,-9.446863,1.339980,0.015882,-0.040317,0.015882
2026-03-04T18:56:25.404737,-3.282952,-9.494720,1.383051,0.017104,-0.041538,0.015882
2026-03-04T18:56:25.414737,-3.230310,-9.422935,1.339980,0.019547,-0.040317,0.017104
2026-03-04T18:56:25.424737,-3.278166,-9.475577,1.426122,0.020769,-0.043982,0.019547
2026-03-04T18:56:25.433737,-3.244667,-9.403792,1.387837,0.020769,-0.045204,0.018325
2026-03-04T18:56:25.443737,-3.330809,-9.461220,1.373480,0.021991,-0.043982,0.018325
2026-03-04T18:56:25.452737,-3.316452,-9.466006,1.392622,0.025656,-0.043982,0.019547
2026-03-04T18:56:25.462737,-3.292523,-9.422935,1.349551,0.025656,-0.045204,0.018325
2026-03-04T18:56:25.472737,-3.249453,-9.399007,1.373480,0.024434,-0.045204,0.019547
2026-03-04T18:56:25.481737,-3.206382,-9.461220,1.421336,0.023212,-0.043982,0.018325
2026-03-04T18:56:25.491737,-3.273381,-9.418149,1.411765,0.019547,-0.042760,0.019547
2026-03-04T18:56:25.500737,-3.278166,-9.442077,1.392622,0.019547,-0.042760,0.015882
2026-03-04T18:56:25.510737,-3.302095,-9.446863,1.359123,0.018325,-0.040317,0.015882
2026-03-04T18:56:25.520737,-3.244667,-9.442077,1.402194,0.018325,-0.042760,0.017104
2026-03-04T18:56:25.529737,-3.225524,-9.446863,1.349551,0.018325,-0.042760,0.018325
2026-03-04T18:56:25.539737,-3.239881,-9.351150,1.411765,0.018325,-0.041538,0.015882
2026-03-04T18:56:25.549737,-3.326023,-9.461220,1.378265,0.018325,-0.043982,0.018325
2026-03-04T18:56:25.558737,-3.292523,-9.480363,1.373480,0.019547,-0.043982,0.017104
2026-03-04T18:56:25.568737,-3.230310,-9.480363,1.397408,0.020769,-0.043982,0.018325
2026-03-04T18:56:25.577737,-3.263810,-9.480363,1.416550,0.021991,-0.042760,0.015882
2026-03-04T18:56:25.587737,-3.235096,-9.475577,1.368694,0.023212,-0.043982,0.017104
2026-03-04T18:56:25.597737,-3.196810,-9.437292,1.363908,0.024434,-0.045204,0.018325
2026-03-04T18:56:25.606737,-3.211167,-9.451649,1.383051,0.023212,-0.043982,0.017104
2026-03-04T18:56:25.616737,-3.292523,-9.403792,1.430907,0.020769,-0.043982,0.015882
2026-03-04T18:56:25.625737,-3.287738,-9.461220,1.378265,0.020769,-0.040317,0.013439
2026-03-04T18:56:25.635737,-3.273381,-9.418149,1.383051,0.018325,-0.040317,0.012217
2026-03-04T18:56:25.645737,-3.206382,-9.427721,1.368694,0.017104,-0.040317,0.017104
2026-03-04T18:56:25.654737,-3.278166,-9.446863,1.406979,0.014660,-0.040317,0.014660
2026-03-04T18:56:25.664737,-3.297309,-9.451649,1.368694,0.009773,-0.040317,0.015882
2026-03-04T18:56:25.674737,-3.282952,-9.480363,1.335195,0.010995,-0.041538,0.015882
2026-03-04T18:56:25.683737,-3.273381,-9.442077,1.363908,0.013439,-0.041538,0.015882
2026-03-04T18:56:25.693737,-3.259024,-9.499505,1.359123,0.019547,-0.042760,0.018325
2026-03-04T18:56:25.702737,-3.263810,-9.485148,1.349551,0.023212,-0.046425,0.015882
2026-03-04T18:56:25.712737,-3.235096,-9.461220,1.339980,0.029321,-0.046425,0.017104
2026-03-04T18:56:25.722737,-3.273381,-9.456434,1.416550,0.030543,-0.043982,0.018325
2026-03-04T18:56:25.731737,-3.268595,-9.427721,1.387837,0.029321,-0.046425,0.020769
2026-03-04T18:56:25.741737,-3.244667,-9.480363,1.378265,0.024434,-0.045204,0.017104
2026-03-04T18:56:25.750737,-3.282952,-9.379864,1.416550,0.019547,-0.043982,0.015882
2026-03-04T18:56:25.760737,-3.230310,-9.528219,1.373480,0.015882,-0.039095,0.018325
2026-03-04T18:56:25.770737,-3.278166,-9.427721,1.387837,0.014660,-0.040317,0.017104
2026-03-04T18:56:25.779737,-3.211167,-9.461220,1.402194,0.012217,-0.040317,0.015882
2026-03-04T18:56:25.789737,-3.282952,-9.403792,1.416550,0.013439,-0.039095,0.015882
2026-03-04T18:56:25.799737,-3.335594,-9.456434,1.383051,0.012217,-0.040317,0.018325
2026-03-04T18:56:25.808737,-3.278166,-9.466006,1.354337,0.013439,-0.040317,0.015882
2026-03-04T18:56:25.818737,-3.187239,-9.432506,1.339980,0.014660,-0.041538,0.015882
2026-03-04T18:56:25.827737,-3.249453,-9.403792,1.349551,0.015882,-0.041538,0.018325
2026-03-04T18:56:25.837737,-3.254238,-9.489934,1.397408,0.017104,-0.041538,0.017104
2026-03-04T18:56:25.847737,-3.282952,-9.403792,1.416550,0.020769,-0.041538,0.015882
2026-03-04T18:56:25.856737,-3.268595,-9.418149,1.373480,0.021991,-0.042760,0.015882
2026-03-04T18:56:25.866737,-3.249453,-9.427721,1.378265,0.021991,-0.043982,0.018325
2026-03-04T18:56:25.875737,-3.244667,-9.456434,1.378265,0.023212,-0.042760,0.017104
2026-03-04T18:56:25.885737,-3.259024,-9.432506,1.406979,0.023212,-0.042760,0.015882
2026-03-04T18:56:25.895737,-3.259024,-9.480363,1.416550,0.019547,-0.042760,0.015882
2026-03-04T18:56:25.904737,-3.273381,-9.470791,1.339980,0.020769,-0.041538,0.015882
2026-03-04T18:56:25.914737,-3.254238,-9.403792,1.406979,0.017104,-0.041538,0.018325
2026-03-04T18:56:25.924737,-3.254238,-9.413364,1.450050,0.014660,-0.041538,0.015882
2026-03-04T18:56:25.933737,-3.330809,-9.442077,1.359123,0.014660,-0.041538,0.015882
2026-03-04T18:56:25.943737,-3.321237,-9.413364,1.402194,0.017104,-0.040317,0.017104
2026-03-04T18:56:25.952737,-3.230310,-9.485148,1.383051,0.017104,-0.041538,0.015882
2026-03-04T18:56:25.962737,-3.273381,-9.480363,1.406979,0.017104,-0.041538,0.017104
2026-03-04T18:56:25.972737,-3.306880,-9.480363,1.397408,0.019547,-0.043982,0.015882
2026-03-04T18:56:25.981737,-3.263810,-9.418149,1.397408,0.020769,-0.045204,0.014660
2026-03-04T18:56:25.991737,-3.359522,-9.413364,1.368694,0.023212,-0.043982,0.018325
2026-03-04T18:56:26.000737,-3.259024,-9.403792,1.378265,0.020769,-0.043982,0.017104
2026-03-04T18:56:26.010737,-3.259024,-9.494720,1.397408,0.019547,-0.043982,0.017104
2026-03-04T18:56:26.020737,-3.287738,-9.432506,1.440479,0.019547,-0.042760,0.019547
2026-03-04T18:56:26.029737,-3.282952,-9.422935,1.368694,0.019547,-0.042760,0.018325
2026-03-04T18:56:26.039737,-3.263810,-9.418149,1.406979,0.019547,-0.042760,0.018325
2026-03-04T18:56:26.049737,-3.249453,-9.422935,1.397408,0.019547,-0.042760,0.018325
2026-03-04T18:56:26.058737,-3.249453,-9.370293,1.378265,0.017104,-0.042760,0.017104
2026-03-04T18:56:26.068737,-3.273381,-9.475577,1.406979,0.012217,-0.040317,0.015882
2026-03-04T18:56:26.077737,-3.282952,-9.466006,1.339980,0.012217,-0.042760,0.019547
2026-03-04T18:56:26.087737,-3.263810,-9.437292,1.373480,0.013439,-0.041538,0.018325
2026-03-04T18:56:26.097737,-3.273381,-9.451649,1.440479,0.015882,-0.042760,0.015882
2026-03-04T18:56:26.106737,-3.273381,-9.451649,1.339980,0.019547,-0.043982,0.015882
2026-03-04T18:56:26.116737,-3.254238,-9.489934,1.359123,0.023212,-0.042760,0.015882
2026-03-04T18:56:26.125737,-3.268595,-9.403792,1.339980,0.023212,-0.043982,0.017104
2026-03-04T18:56:26.135737,-3.268595,-9.442077,1.454836,0.024434,-0.043982,0.017104
2026-03-04T18:56:26.145737,-3.249453,-9.461220,1.406979,0.023212,-0.042760,0.018325
2026-03-04T18:56:26.154737,-3.273381,-9.470791,1.392622,0.020769,-0.045204,0.017104
2026-03-04T18:56:26.164737,-3.306880,-9.422935,1.368694,0.019547,-0.042760,0.018325
2026-03-04T18:56:26.174737,-3.306880,-9.408578,1.392622,0.020769,-0.043982,0.018325
2026-03-04T18:56:26.183737,-3.273381,-9.461220,1.416550,0.019547,-0.043982,0.018325
2026-03-04T18:56:26.193737,-3.225524,-9.422935,1.411765,0.017104,-0.042760,0.018325
2026-03-04T18:56:26.202737,-3.316452,-9.437292,1.430907,0.015882,-0.041538,0.020769
2026-03-04T18:56:26.212737,-3.254238,-9.513862,1.373480,0.017104,-0.041538,0.017104
2026-03-04T18:56:26.222737,-3.254238,-9.413364,1.402194,0.018325,-0.042760,0.015882
2026-03-04T18:56:26.231737,-3.263810,-9.422935,1.363908,0.021991,-0.042760,0.014660
2026-03-04T18:56:26.241737,-3.220739,-9.422935,1.421336,0.023212,-0.043982,0.017104
2026-03-04T18:56:26.250737,-3.263810,-9.470791,1.411765,0.024434,-0.045204,0.019547
2026-03-04T18:56:26.260737,-3.297309,-9.408578,1.373480,0.024434,-0.043982,0.017104
2026-03-04T18:56:26.270737,-3.282952,-9.413364,1.387837,0.024434,-0.043982,0.018325
2026-03-04T18:56:26.279737,-3.268595,-9.442077,1.387837,0.024434,-0.043982,0.017104
2026-03-04T18:56:26.289737,-3.225524,-9.427721,1.411765,0.024434,-0.042760,0.014660
2026-03-04T18:56:26.299737,-3.244667,-9.422935,1.435693,0.021991,-0.041538,0.017104
2026-03-04T18:56:26.308737,-3.259024,-9.370293,1.421336,0.018325,-0.040317,0.014660
2026-03-04T18:56:26.318737,-3.259024,-9.432506,1.368694,0.015882,-0.041538,0.013439
2026-03-04T18:56:26.327737,-3.225524,-9.432506,1.387837,0.012217,-0.040317,0.013439
2026-03-04T18:56:26.337737,-3.340380,-9.466006,1.383051,0.009773,-0.041538,0.019547
2026-03-04T18:56:26.347737,-3.225524,-9.389435,1.387837,0.010995,-0.041538,0.017104
2026-03-04T18:56:26.356737,-3.254238,-9.470791,1.373480,0.013439,-0.037873,0.015882
2026-03-04T18:56:26.366737,-3.297309,-9.499505,1.378265,0.015882,-0.040317,0.014660
2026-03-04T18:56:26.375737,-3.278166,-9.422935,1.392622,0.015882,-0.039095,0.014660
2026-03-04T18:56:26.385737,-3.278166,-9.451649,1.368694,0.018325,-0.039095,0.013439
2026-03-04T18:56:26.395737,-3.306880,-9.475577,1.368694,0.018325,-0.039095,0.015882
2026-03-04T18:56:26.404737,-3.254238,-9.432506,1.339980,0.018325,-0.039095,0.012217
2026-03-04T18:56:26.414737,-3.316452,-9.408578,1.397408,0.018325,-0.041538,0.017104
2026-03-04T18:56:26.424737,-3.287738,-9.399007,1.344766,0.017104,-0.042760,0.017104
2026-03-04T18:56:26.433737,-3.254238,-9.470791,1.363908,0.015882,-0.043982,0.017104
2026-03-04T18:56:26.443737,-3.297309,-9.485148,1.368694,0.017104,-0.045204,0.021991
2026-03-04T18:56:26.452737,-3.268595,-9.456434,1.387837,0.021991,-0.042760,0.018325
2026-03-04T18:56:26.462737,-3.239881,-9.475577,1.325623,0.020769,-0.045204,0.017104
2026-03-04T18:56:26.472737,-3.268595,-9.442077,1.406979,0.020769,-0.041538,0.015882
2026-03-04T18:56:26.481737,-3.244667,-9.442077,1.368694,0.019547,-0.042760,0.018325
2026-03-04T18:56:26.491737,-3.282952,-9.456434,1.344766,0.017104,-0.041538,0.015882
2026-03-04T18:56:26.500737,-3.287738,-9.418149,1.349551,0.012217,-0.040317,0.017104
2026-03-04T18:56:26.510737,-3.201596,-9.446863,1.330409,0.010995,-0.040317,0.017104
2026-03-04T18:56:26.520737,-3.306880,-9.466006,1.325623,0.013439,-0.040317,0.017104
2026-03-04T18:56:26.529737,-3.254238,-9.466006,1.421336,0.013439,-0.041538,0.017104
2026-03-04T18:56:26.539737,-3.244667,-9.466006,1.363908,0.014660,-0.043982,0.014660
2026-03-04T18:56:26.549737,-3.249453,-9.442077,1.387837,0.017104,-0.042760,0.018325
2026-03-04T18:56:26.558737,-3.239881,-9.470791,1.349551,0.017104,-0.041538,0.015882
2026-03-04T18:56:26.568737,-3.297309,-9.422935,1.387837,0.017104,-0.042760,0.014660
2026-03-04T18:56:26.577737,-3.259024,-9.451649,1.406979,0.018325,-0.042760,0.017104
2026-03-04T18:56:26.587737,-3.254238,-9.456434,1.378265,0.017104,-0.042760,0.018325
2026-03-04T18:56:26.597737,-3.239881,-9.446863,1.349551,0.015882,-0.043982,0.019547
2026-03-04T18:56:26.606737,-3.292523,-9.422935,1.397408,0.017104,-0.042760,0.018325
2026-03-04T18:56:26.616737,-3.340380,-9.523433,1.406979,0.017104,-0.042760,0.017104
2026-03-04T18:56:26.625737,-3.249453,-9.456434,1.349551,0.017104,-0.042760,0.019547
2026-03-04T18:56:26.635737,-3.273381,-9.427721,1.354337,0.018325,-0.045204,0.019547
2026-03-04T18:56:26.645737,-3.273381,-9.422935,1.349551,0.017104,-0.041538,0.015882
2026-03-04T18:56:26.654737,-3.225524,-9.475577,1.354337,0.014660,-0.041538,0.015882
2026-03-04T18:56:26.664737,-3.297309,-9.461220,1.330409,0.013439,-0.042760,0.017104
2026-03-04T18:56:26.674737,-3.230310,-9.470791,1.378265,0.014660,-0.041538,0.014660
2026-03-04T18:56:26.683737,-3.297309,-9.422935,1.392622,0.013439,-0.042760,0.015882
2026-03-04T18:56:26.693737,-3.201596,-9.456434,1.325623,0.014660,-0.041538,0.014660
2026-03-04T18:56:26.702737,-3.239881,-9.466006,1.349551,0.015882,-0.040317,0.014660
2026-03-04T18:56:26.712737,-3.292523,-9.399007,1.435693,0.017104,-0.043982,0.014660
2026-03-04T18:56:26.722737,-3.282952,-9.399007,1.378265,0.017104,-0.042760,0.014660
2026-03-04T18:56:26.731737,-3.225524,-9.466006,1.373480,0.014660,-0.043982,0.020769
2026-03-04T18:56:26.741737,-3.302095,-9.470791,1.339980,0.014660,-0.041538,0.019547
2026-03-04T18:56:26.750737,-3.330809,-9.480363,1.426122,0.014660,-0.042760,0.019547
2026-03-04T18:56:26.760737,-3.268595,-9.422935,1.349551,0.014660,-0.040317,0.017104
2026-03-04T18:56:26.770737,-3.292523,-9.442077,1.421336,0.013439,-0.041538,0.015882
2026-03-04T18:56:26.779737,-3.239881,-9.384650,1.363908,0.013439,-0.041538,0.017104
2026-03-04T18:56:26.789737,-3.292523,-9.437292,1.373480,0.014660,-0.041538,0.018325
2026-03-04T18:56:26.799737,-3.306880,-9.461220,1.344766,0.018325,-0.041538,0.018325
2026-03-04T18:56:26.808737,-3.249453,-9.480363,1.359123,0.018325,-0.041538,0.017104
2026-03-04T18:56:26.818737,-3.278166,-9.461220,1.339980,0.018325,-0.040317,0.015882
2026-03-04T18:56:26.827737,-3.282952,-9.461220,1.335195,0.020769,-0.042760,0.017104
2026-03-04T18:56:26.837737,-3.268595,-9.466006,1.306481,0.021991,-0.042760,0.015882
2026-03-04T18:56:26.847737,-3.273381,-9.403792,1.335195,0.021991,-0.045204,0.015882
2026-03-04T18:56:26.856737,-3.273381,-9.480363,1.354337,0.020769,-0.043982,0.018325
2026-03-04T18:56:26.866737,-3.287738,-9.427721,1.363908,0.020769,-0.043982,0.015882
2026-03-04T18:56:26.875737,-3.220739,-9.422935,1.330409,0.021991,-0.045204,0.020769
2026-03-04T18:56:26.885737,-3.220739,-9.446863,1.349551,0.023212,-0.042760,0.020769
2026-03-04T18:56:26.895737,-3.201596,-9.446863,1.354337,0.021991,-0.042760,0.018325
2026-03-04T18:56:26.904737,-3.249453,-9.533005,1.363908,0.021991,-0.045204,0.018325
2026-03-04T18:56:26.914737,-3.273381,-9.475577,1.354337,0.024434,-0.045204,0.019547
2026-03-04T18:56:26.924737,-3.235096,-9.475577,1.363908,0.025656,-0.045204,0.019547
2026-03-04T18:56:26.933737,-3.206382,-9.451649,1.344766,0.026878,-0.043982,0.018325
2026-03-04T18:56:26.943737,-3.292523,-9.475577,1.359123,0.024434,-0.043982,0.015882
2026-03-04T18:56:26.952737,-3.254238,-9.485148,1.368694,0.023212,-0.043982,0.018325
2026-03-04T18:56:26.962737,-3.278166,-9.427721,1.392622,0.024434,-0.043982,0.021991
2026-03-04T18:56:26.972737,-3.287738,-9.403792,1.387837,0.026878,-0.043982,0.018325
2026-03-04T18:56:26.981737,-3.268595,-9.394221,1.402194,0.026878,-0.043982,0.017104
2026-03-04T18:56:26.991737,-3.235096,-9.466006,1.368694,0.024434,-0.041538,0.019547
2026-03-04T18:56:27.000737,-3.254238,-9.408578,1.402194,0.023212,-0.043982,0.018325
2026-03-04T18:56:27.010737,-3.278166,-9.422935,1.368694,0.023212,-0.045204,0.015882
2026-03-04T18:56:27.020737,-3.220739,-9.403792,1.426122,0.020769,-0.041538,0.015882
2026-03-04T18:56:27.029737,-3.287738,-9.466006,1.402194,0.019547,-0.042760,0.015882
2026-03-04T18:56:27.039737,-3.220739,-9.489934,1.440479,0.018325,-0.042760,0.014660
2026-03-04T18:56:27.049737,-3.273381,-9.466006,1.320838,0.020769,-0.040317,0.015882
2026-03-04T18:56:27.058737,-3.263810,-9.437292,1.387837,0.018325,-0.040317,0.017104
2026-03-04T18:56:27.068737,-3.287738,-9.466006,1.359123,0.019547,-0.041538,0.018325
2026-03-04T18:56:27.077737,-3.306880,-9.466006,1.378265,0.023212,-0.043982,0.017104
2026-03-04T18:56:27.087737,-3.249453,-9.456434,1.344766,0.025656,-0.042760,0.018325
2026-03-04T18:56:27.097737,-3.244667,-9.446863,1.392622,0.026878,-0.045204,0.018325
2026-03-04T18:56:27.106737,-3.268595,-9.408578,1.430907,0.026878,-0.046425,0.020769
2026-03-04T18:56:27.116737,-3.316452,-9.413364,1.368694,0.021991,-0.043982,0.020769
2026-03-04T18:56:27.125737,-3.297309,-9.466006,1.335195,0.019547,-0.042760,0.015882
2026-03-04T18:56:27.135737,-3.273381,-9.432506,1.330409,0.019547,-0.042760,0.019547
2026-03-04T18:56:27.145737,-3.297309,-9.456434,1.440479,0.023212,-0.046425,0.018325
2026-03-04T18:56:27.154737,-3.311666,-9.475577,1.387837,0.020769,-0.041538,0.015882
2026-03-04T18:56:27.164737,-3.292523,-9.446863,1.344766,0.018325,-0.040317,0.017104
2026-03-04T18:56:27.174737,-3.230310,-9.432506,1.368694,0.018325,-0.041538,0.017104
2026-03-04T18:56:27.183737,-3.316452,-9.427721,1.330409,0.017104,-0.041538,0.015882
2026-03-04T18:56:27.193737,-3.292523,-9.489934,1.339980,0.020769,-0.041538,0.017104
2026-03-04T18:56:27.202737,-3.306880,-9.446863,1.411765,0.024434,-0.042760,0.015882
2026-03-04T18:56:27.212737,-3.263810,-9.446863,1.363908,0.028099,-0.043982,0.017104
2026-03-04T18:56:27.222737,-3.287738,-9.489934,1.344766,0.028099,-0.043982,0.018325
2026-03-04T18:56:27.231737,-3.311666,-9.418149,1.411765,0.031764,-0.045204,0.019547
2026-03-04T18:56:27.241737,-3.287738,-9.413364,1.363908,0.029321,-0.043982,0.019547
2026-03-04T18:56:27.250737,-3.254238,-9.413364,1.406979,0.025656,-0.042760,0.024434
2026-03-04T18:56:27.260737,-3.306880,-9.427721,1.363908,0.021991,-0.042760,0.023212
2026-03-04T18:56:27.270737,-3.254238,-9.437292,1.402194,0.020769,-0.042760,0.019547
2026-03-04T18:56:27.279737,-3.282952,-9.451649,1.402194,0.020769,-0.041538,0.018325
2026-03-04T18:56:27.289737,-3.263810,-9.451649,1.406979,0.019547,-0.045204,0.019547
2026-03-04T18:56:27.299737,-3.235096,-9.456434,1.406979,0.021991,-0.045204,0.018325
2026-03-04T18:56:27.308737,-3.282952,-9.494720,1.392622,0.025656,-0.046425,0.017104
2026-03-04T18:56:27.318737,-3.292523,-9.403792,1.383051,0.028099,-0.043982,0.018325
2026-03-04T18:56:27.327737,-3.215953,-9.413364,1.435693,0.029321,-0.046425,0.019547
2026-03-04T18:56:27.337737,-3.249453,-9.456434,1.373480,0.025656,-0.045204,0.019547
2026-03-04T18:56:27.347737,-3.220739,-9.427721,1.397408,0.024434,-0.045204,0.015882
2026-03-04T18:56:27.356737,-3.239881,-9.418149,1.402194,0.018325,-0.040317,0.013439
2026-03-04T18:56:27.366737,-3.259024,-9.442077,1.406979,0.015882,-0.041538,0.013439
2026-03-04T18:56:27.375737,-3.259024,-9.451649,1.349551,0.017104,-0.040317,0.017104
2026-03-04T18:56:27.385737,-3.326023,-9.470791,1.363908,0.020769,-0.043982,0.018325
2026-03-04T18:56:27.395737,-3.273381,-9.422935,1.354337,0.020769,-0.042760,0.017104
2026-03-04T18:56:27.404737,-3.239881,-9.446863,1.373480,0.023212,-0.043982,0.019547
2026-03-04T18:56:27.414737,-3.263810,-9.422935,1.383051,0.023212,-0.043982,0.015882
2026-03-04T18:56:27.424737,-3.287738,-9.379864,1.411765,0.020769,-0.043982,0.017104
2026-03-04T18:56:27.433737,-3.335594,-9.470791,1.325623,0.018325,-0.041538,0.017104
2026-03-04T18:56:27.443737,-3.268595,-9.389435,1.378265,0.014660,-0.040317,0.015882
2026-03-04T18:56:27.452737,-3.220739,-9.422935,1.378265,0.018325,-0.041538,0.017104
2026-03-04T18:56:27.462737,-3.321237,-9.422935,1.426122,0.019547,-0.042760,0.015882
2026-03-04T18:56:27.472737,-3.235096,-9.475577,1.368694,0.019547,-0.043982,0.019547
2026-03-04T18:56:27.481737,-3.268595,-9.451649,1.383051,0.019547,-0.042760,0.019547
2026-03-04T18:56:27.491737,-3.268595,-9.475577,1.363908,0.019547,-0.042760,0.015882
2026-03-04T18:56:27.500737,-3.244667,-9.466006,1.440479,0.019547,-0.042760,0.017104
2026-03-04T18:56:27.510737,-3.311666,-9.442077,1.397408,0.021991,-0.041538,0.018325
2026-03-04T18:56:27.520737,-3.292523,-9.437292,1.416550,0.020769,-0.043982,0.018325
2026-03-04T18:56:27.529737,-3.230310,-9.418149,1.373480,0.021991,-0.041538,0.018325
2026-03-04T18:56:27.539737,-3.302095,-9.451649,1.392622,0.023212,-0.042760,0.017104
2026-03-04T18:56:27.549737,-3.278166,-9.418149,1.445264,0.026878,-0.043982,0.015882
2026-03-04T18:56:27.558737,-3.263810,-9.427721,1.435693,0.026878,-0.046425,0.019547
2026-03-04T18:56:27.568737,-3.278166,-9.427721,1.392622,0.024434,-0.042760,0.019547
2026-03-04T18:56:27.577737,-3.292523,-9.408578,1.406979,0.021991,-0.040317,0.017104
2026-03-04T18:56:27.587737,-3.316452,-9.451649,1.378265,0.018325,-0.040317,0.017104
2026-03-04T18:56:27.597737,-3.321237,-9.451649,1.344766,0.019547,-0.042760,0.017104
2026-03-04T18:56:27.606737,-3.316452,-9.451649,1.392622,0.018325,-0.042760,0.015882
2026-03-04T18:56:27.616737,-3.292523,-9.422935,1.349551,0.020769,-0.042760,0.015882
2026-03-04T18:56:27.625737,-3.244667,-9.427721,1.411765,0.021991,-0.042760,0.014660
2026-03-04T18:56:27.635737,-3.249453,-9.432506,1.373480,0.021991,-0.042760,0.015882
2026-03-04T18:56:27.645737,-3.220739,-9.427721,1.373480,0.019547,-0.043982,0.021991
2026-03-04T18:56:27.654737,-3.249453,-9.446863,1.383051,0.019547,-0.043982,0.020769
2026-03-04T18:56:27.664737,-3.278166,-9.432506,1.450050,0.018325,-0.041538,0.020769
2026-03-04T18:56:27.674737,-3.244667,-9.442077,1.368694,0.018325,-0.042760,0.019547
2026-03-04T18:56:27.683737,-3.254238,-9.408578,1.373480,0.020769,-0.045204,0.023212
2026-03-04T18:56:27.693737,-3.235096,-9.485148,1.402194,0.020769,-0.045204,0.020769
2026-03-04T18:56:27.702737,-3.321237,-9.475577,1.402194,0.018325,-0.043982,0.019547
2026-03-04T18:56:27.712737,-3.244667,-9.394221,1.373480,0.015882,-0.042760,0.017104
2026-03-04T18:56:27.722737,-3.230310,-9.422935,1.383051,0.015882,-0.041538,0.015882
2026-03-04T18:56:27.731737,-3.239881,-9.394221,1.368694,0.018325,-0.041538,0.015882
2026-03-04T18:56:27.741737,-3.263810,-9.427721,1.421336,0.019547,-0.043982,0.014660
2026-03-04T18:56:27.750737,-3.292523,-9.437292,1.359123,0.018325,-0.042760,0.018325
2026-03-04T18:56:27.760737,-3.278166,-9.451649,1.421336,0.019547,-0.042760,0.018325
2026-03-04T18:56:27.770737,-3.297309,-9.480363,1.378265,0.020769,-0.041538,0.015882
2026-03-04T18:56:27.779737,-3.244667,-9.489934,1.411765,0.020769,-0.041538,0.018325
2026-03-04T18:56:27.789737,-3.292523,-9.432506,1.406979,0.023212,-0.045204,0.015882
2026-03-04T18:56:27.799737,-3.249453,-9.470791,1.368694,0.021991,-0.043982,0.015882
2026-03-04T18:56:27.808737,-3.254238,-9.489934,1.359123,0.021991,-0.043982,0.015882
2026-03-04T18:56:27.818737,-3.321237,-9.437292,1.373480,0.020769,-0.045204,0.020769
2026-03-04T18:56:27.827737,-3.306880,-9.461220,1.354337,0.021991,-0.045204,0.020769
2026-03-04T18:56:27.837737,-3.201596,-9.451649,1.363908,0.023212,-0.045204,0.015882
2026-03-04T18:56:27.847737,-3.230310,-9.399007,1.402194,0.020769,-0.042760,0.017104
2026-03-04T18:56:27.856737,-3.316452,-9.394221,1.368694,0.019547,-0.042760,0.018325
2026-03-04T18:56:27.866737,-3.278166,-9.466006,1.406979,0.023212,-0.043982,0.017104
2026-03-04T18:56:27.875737,-3.287738,-9.418149,1.397408,0.024434,-0.043982,0.015882
2026-03-04T18:56:27.885737,-3.268595,-9.389435,1.387837,0.023212,-0.045204,0.015882
2026-03-04T18:56:27.895737,-3.306880,-9.432506,1.445264,0.020769,-0.043982,0.018325
2026-03-04T18:56:27.904737,-3.263810,-9.446863,1.402194,0.021991,-0.045204,0.017104
2026-03-04T18:56:27.914737,-3.259024,-9.422935,1.349551,0.021991,-0.043982,0.017104
2026-03-04T18:56:27.924737,-3.230310,-9.470791,1.383051,0.019547,-0.043982,0.018325
2026-03-04T18:56:27.933737,-3.259024,-9.456434,1.349551,0.021991,-0.043982,0.018325
2026-03-04T18:56:27.943737,-3.225524,-9.370293,1.392622,0.023212,-0.041538,0.013439
2026-03-04T18:56:27.952737,-3.254238,-9.466006,1.392622,0.018325,-0.042760,0.018325
2026-03-04T18:56:27.962737,-3.282952,-9.422935,1.373480,0.018325,-0.043982,0.017104
2026-03-04T18:56:27.972737,-3.244667,-9.446863,1.368694,0.020769,-0.042760,0.017104
2026-03-04T18:56:27.981737,-3.249453,-9.422935,1.406979,0.021991,-0.043982,0.018325
2026-03-04T18:56:27.991737,-3.292523,-9.432506,1.435693,0.025656,-0.043982,0.017104
2026-03-04T18:56:28.000737,-3.225524,-9.451649,1.421336,0.023212,-0.042760,0.017104
2026-03-04T18:56:28.010737,-3.230310,-9.480363,1.430907,0.020769,-0.043982,0.017104
2026-03-04T18:56:28.020737,-3.326023,-9.451649,1.397408,0.018325,-0.041538,0.014660
2026-03-04T18:56:28.029737,-3.206382,-9.422935,1.406979,0.017104,-0.040317,0.015882
2026-03-04T18:56:28.039737,-3.311666,-9.446863,1.430907,0.015882,-0.041538,0.017104
2026-03-04T18:56:28.049737,-3.235096,-9.408578,1.339980,0.017104,-0.040317,0.017104
2026-03-04T18:56:28.058737,-3.259024,-9.442077,1.416550,0.020769,-0.042760,0.018325
2026-03-04T18:56:28.068737,-3.287738,-9.466006,1.373480,0.021991,-0.043982,0.019547
2026-03-04T18:56:28.077737,-3.282952,-9.466006,1.363908,0.023212,-0.042760,0.019547
2026-03-04T18:56:28.087737,-3.302095,-9.413364,1.349551,0.024434,-0.042760,0.017104
2026-03-04T18:56:28.097737,-3.268595,-9.437292,1.411765,0.019547,-0.042760,0.019547
2026-03-04T18:56:28.106737,-3.235096,-9.446863,1.406979,0.020769,-0.043982,0.017104
2026-03-04T18:56:28.116737,-3.263810,-9.475577,1.368694,0.019547,-0.045204,0.017104
2026-03-04T18:56:28.125737,-3.306880,-9.451649,1.316052,0.019547,-0.042760,0.018325
2026-03-04T18:56:28.135737,-3.230310,-9.394221,1.349551,0.020769,-0.041538,0.015882
2026-03-04T18:56:28.145737,-3.273381,-9.399007,1.392622,0.019547,-0.041538,0.018325
2026-03-04T18:56:28.154737,-3.244667,-9.403792,1.416550,0.018325,-0.041538,0.018325
2026-03-04T18:56:28.164737,-3.287738,-9.461220,1.402194,0.019547,-0.041538,0.018325
2026-03-04T18:56:28.174737,-3.244667,-9.427721,1.416550,0.021991,-0.045204,0.017104
2026-03-04T18:56:28.183737,-3.297309,-9.413364,1.392622,0.020769,-0.046425,0.023212
2026-03-04T18:56:28.193737,-3.259024,-9.475577,1.383051,0.018325,-0.047647,0.020769
2026-03-04T18:56:28.202737,-3.302095,-9.432506,1.378265,0.020769,-0.042760,0.015882
2026-03-04T18:56:28.212737,-3.235096,-9.432506,1.406979,0.021991,-0.041538,0.017104
2026-03-04T18:56:28.222737,-3.239881,-9.442077,1.349551,0.019547,-0.039095,0.017104
2026-03-04T18:56:28.231737,-3.249453,-9.470791,1.411765,0.018325,-0.040317,0.018325
2026-03-04T18:56:28.241737,-3.273381,-9.470791,1.402194,0.017104,-0.040317,0.018325
2026-03-04T18:56:28.250737,-3.268595,-9.432506,1.378265,0.018325,-0.042760,0.019547
2026-03-04T18:56:28.260737,-3.239881,-9.446863,1.421336,0.018325,-0.041538,0.018325
2026-03-04T18:56:28.270737,-3.263810,-9.470791,1.392622,0.018325,-0.042760,0.017104
2026-03-04T18:56:28.279737,-3.302095,-9.456434,1.363908,0.019547,-0.041538,0.017104
2026-03-04T18:56:28.289737,-3.244667,-9.422935,1.426122,0.020769,-0.042760,0.017104
2026-03-04T18:56:28.299737,-3.259024,-9.432506,1.392622,0.020769,-0.040317,0.015882
2026-03-04T18:56:28.308737,-3.278166,-9.408578,1.363908,0.019547,-0.041538,0.015882
2026-03-04T18:56:28.318737,-3.259024,-9.475577,1.430907,0.019547,-0.040317,0.012217
2026-03-04T18:56:28.327737,-3.254238,-9.399007,1.416550,0.019547,-0.041538,0.014660
2026-03-04T18:56:28.337737,-3.287738,-9.418149,1.426122,0.019547,-0.040317,0.015882
2026-03-04T18:56:28.347737,-3.340380,-9.446863,1.387837,0.021991,-0.043982,0.020769
2026-03-04T18:56:28.356737,-3.278166,-9.475577,1.402194,0.021991,-0.043982,0.018325
2026-03-04T18:56:28.366737,-3.254238,-9.418149,1.383051,0.021991,-0.042760,0.015882
2026-03-04T18:56:28.375737,-3.235096,-9.422935,1.354337,0.018325,-0.042760,0.021991
2026-03-04T18:56:28.385737,-3.235096,-9.394221,1.440479,0.021991,-0.041538,0.018325
2026-03-04T18:56:28.395737,-3.249453,-9.408578,1.397408,0.021991,-0.041538,0.015882
2026-03-04T18:56:28.404737,-3.297309,-9.427721,1.426122,0.021991,-0.041538,0.018325
2026-03-04T18:56:28.414737,-3.249453,-9.427721,1.363908,0.020769,-0.042760,0.018325
2026-03-04T18:56:28.424737,-3.263810,-9.509077,1.440479,0.023212,-0.045204,0.018325
2026-03-04T18:56:28.433737,-3.263810,-9.446863,1.359123,0.024434,-0.043982,0.019547
2026-03-04T18:56:28.443737,-3.268595,-9.499505,1.445264,0.025656,-0.045204,0.017104
2026-03-04T18:56:28.452737,-3.297309,-9.451649,1.387837,0.020769,-0.045204,0.017104
2026-03-04T18:56:28.462737,-3.235096,-9.437292,1.373480,0.018325,-0.042760,0.017104
2026-03-04T18:56:28.472737,-3.273381,-9.466006,1.435693,0.017104,-0.040317,0.018325
2026-03-04T18:56:28.481737,-3.259024,-9.413364,1.392622,0.017104,-0.041538,0.017104
2026-03-04T18:56:28.491737,-3.282952,-9.408578,1.402194,0.017104,-0.041538,0.013439
2026-03-04T18:56:28.500737,-3.273381,-9.475577,1.397408,0.019547,-0.042760,0.017104
2026-03-04T18:56:28.510737,-3.354737,-9.432506,1.359123,0.020769,-0.042760,0.017104
2026-03-04T18:56:28.520737,-3.282952,-9.480363,1.368694,0.023212,-0.043982,0.017104
2026-03-04T18:56:28.529737,-3.249453,-9.394221,1.373480,0.020769,-0.041538,0.015882
2026-03-04T18:56:28.539737,-3.244667,-9.446863,1.397408,0.019547,-0.045204,0.015882
2026-03-04T18:56:28.549737,-3.311666,-9.394221,1.397408,0.019547,-0.043982,0.017104
2026-03-04T18:56:28.558737,-3.244667,-9.432506,1.368694,0.019547,-0.042760,0.015882
2026-03-04T18:56:28.568737,-3.254238,-9.418149,1.383051,0.021991,-0.041538,0.014660
2026-03-04T18:56:28.577737,-3.249453,-9.437292,1.435693,0.020769,-0.042760,0.018325
2026-03-04T18:56:28.587737,-3.235096,-9.451649,1.349551,0.020769,-0.042760,0.018325
2026-03-04T18:56:28.597737,-3.273381,-9.437292,1.402194,0.017104,-0.040317,0.017104
2026-03-04T18:56:28.606737,-3.321237,-9.451649,1.402194,0.015882,-0.040317,0.017104
2026-03-04T18:56:28.616737,-3.215953,-9.408578,1.378265,0.020769,-0.040317,0.017104
2026-03-04T18:56:28.625737,-3.249453,-9.442077,1.440479,0.020769,-0.041538,0.017104
2026-03-04T18:56:28.635737,-3.244667,-9.403792,1.426122,0.019547,-0.042760,0.017104
2026-03-04T18:56:28.645737,-3.282952,-9.379864,1.344766,0.018325,-0.043982,0.024434
2026-03-04T18:56:28.654737,-3.268595,-9.418149,1.406979,0.017104,-0.042760,0.018325
2026-03-04T18:56:28.664737,-3.302095,-9.442077,1.359123,0.017104,-0.041538,0.019547
2026-03-04T18:56:28.674737,-3.230310,-9.418149,1.378265,0.018325,-0.041538,0.018325
2026-03-04T18:56:28.683737,-3.268595,-9.437292,1.359123,0.017104,-0.040317,0.015882
2026-03-04T18:56:28.693737,-3.268595,-9.432506,1.397408,0.017104,-0.042760,0.017104
2026-03-04T18:56:28.702737,-3.259024,-9.413364,1.354337,0.017104,-0.039095,0.014660
2026-03-04T18:56:28.712737,-3.244667,-9.427721,1.421336,0.017104,-0.040317,0.014660
2026-03-04T18:56:28.722737,-3.249453,-9.470791,1.387837,0.015882,-0.042760,0.015882
2026-03-04T18:56:28.731737,-3.297309,-9.451649,1.392622,0.019547,-0.043982,0.018325
2026-03-04T18:56:28.741737,-3.263810,-9.418149,1.435693,0.024434,-0.042760,0.015882
2026-03-04T18:56:28.750737,-3.287738,-9.408578,1.421336,0.025656,-0.045204,0.020769
2026-03-04T18:56:28.760737,-3.282952,-9.375078,1.383051,0.021991,-0.045204,0.015882
2026-03-04T18:56:28.770737,-3.287738,-9.403792,1.373480,0.019547,-0.043982,0.014660
2026-03-04T18:56:28.779737,-3.254238,-9.403792,1.426122,0.019547,-0.042760,0.018325
2026-03-04T18:56:28.789737,-3.263810,-9.451649,1.421336,0.018325,-0.042760,0.017104
2026-03-04T18:56:28.799737,-3.249453,-9.442077,1.402194,0.017104,-0.042760,0.019547
2026-03-04T18:56:28.808737,-3.326023,-9.399007,1.450050,0.014660,-0.040317,0.018325
2026-03-04T18:56:28.818737,-3.321237,-9.470791,1.397408,0.012217,-0.040317,0.014660
2026-03-04T18:56:28.827737,-3.244667,-9.470791,1.339980,0.013439,-0.042760,0.015882
2026-03-04T18:56:28.837737,-3.244667,-9.403792,1.373480,0.017104,-0.041538,0.017104
2026-03-04T18:56:28.847737,-3.302095,-9.437292,1.411765,0.020769,-0.041538,0.015882
2026-03-04T18:56:28.856737,-3.273381,-9.461220,1.392622,0.021991,-0.042760,0.015882
2026-03-04T18:56:28.866737,-3.263810,-9.513862,1.335195,0.023212,-0.043982,0.019547
2026-03-04T18:56:28.875737,-3.249453,-9.475577,1.387837,0.025656,-0.045204,0.023212
2026-03-04T18:56:28.885737,-3.278166,-9.442077,1.383051,0.028099,-0.046425,0.020769
2026-03-04T18:56:28.895737,-3.244667,-9.413364,1.440479,0.026878,-0.043982,0.018325
2026-03-04T18:56:28.904737,-3.282952,-9.485148,1.430907,0.024434,-0.043982,0.017104
2026-03-04T18:56:28.914737,-3.306880,-9.413364,1.450050,0.020769,-0.042760,0.019547
2026-03-04T18:56:28.924737,-3.244667,-9.399007,1.397408,0.014660,-0.041538,0.018325
2026-03-04T18:56:28.933737,-3.282952,-9.461220,1.402194,0.013439,-0.041538,0.017104
2026-03-04T18:56:28.943737,-3.311666,-9.408578,1.363908,0.014660,-0.041538,0.018325
2026-03-04T18:56:28.952737,-3.244667,-9.456434,1.339980,0.014660,-0.041538,0.015882
2026-03-04T18:56:28.962737,-3.263810,-9.437292,1.344766,0.015882,-0.041538,0.017104
2026-03-04T18:56:28.972737,-3.287738,-9.437292,1.387837,0.017104,-0.040317,0.017104
2026-03-04T18:56:28.981737,-3.215953,-9.456434,1.373480,0.019547,-0.041538,0.015882
2026-03-04T18:56:28.991737,-3.254238,-9.485148,1.316052,0.021991,-0.042760,0.014660
2026-03-04T18:56:29.000737,-3.287738,-9.408578,1.387837,0.026878,-0.043982,0.017104
2026-03-04T18:56:29.010737,-3.230310,-9.360722,1.426122,0.026878,-0.045204,0.017104
2026-03-04T18:56:29.020737,-3.302095,-9.394221,1.392622,0.021991,-0.043982,0.017104
2026-03-04T18:56:29.029737,-3.326023,-9.494720,1.359123,0.018325,-0.041538,0.018325
2026-03-04T18:56:29.039737,-3.235096,-9.432506,1.378265,0.017104,-0.041538,0.015882
2026-03-04T18:56:29.049737,-3.263810,-9.384650,1.430907,0.012217,-0.040317,0.017104
2026-03-04T18:56:29.058737,-3.244667,-9.466006,1.402194,0.008552,-0.039095,0.017104
2026-03-04T18:56:29.068737,-3.287738,-9.437292,1.373480,0.009773,-0.039095,0.017104
2026-03-04T18:56:29.077737,-3.302095,-9.427721,1.406979,0.014660,-0.041538,0.015882
2026-03-04T18:56:29.087737,-3.292523,-9.475577,1.368694,0.018325,-0.041538,0.017104
2026-03-04T18:56:29.097737,-3.273381,-9.432506,1.406979,0.023212,-0.043982,0.015882
2026-03-04T18:56:29.106737,-3.349951,-9.418149,1.406979,0.024434,-0.045204,0.018325
2026-03-04T18:56:29.116737,-3.316452,-9.413364,1.383051,0.026878,-0.046425,0.018325
2026-03-04T18:56:29.125737,-3.287738,-9.427721,1.387837,0.023212,-0.042760,0.019547
2026-03-04T18:56:29.135737,-3.302095,-9.399007,1.335195,0.023212,-0.042760,0.015882
2026-03-04T18:56:29.145737,-3.254238,-9.422935,1.416550,0.023212,-0.042760,0.015882
2026-03-04T18:56:29.154737,-3.292523,-9.437292,1.392622,0.019547,-0.042760,0.015882
2026-03-04T18:56:29.164737,-3.254238,-9.475577,1.397408,0.018325,-0.041538,0.015882
2026-03-04T18:56:29.174737,-3.273381,-9.489934,1.339980,0.018325,-0.040317,0.017104
2026-03-04T18:56:29.183737,-3.239881,-9.442077,1.416550,0.019547,-0.040317,0.017104
2026-03-04T18:56:29.193737,-3.287738,-9.461220,1.402194,0.019547,-0.042760,0.017104
2026-03-04T18:56:29.202737,-3.292523,-9.394221,1.368694,0.021991,-0.042760,0.019547
2026-03-04T18:56:29.212737,-3.273381,-9.422935,1.411765,0.019547,-0.042760,0.018325
2026-03-04T18:56:29.222737,-3.220739,-9.451649,1.349551,0.019547,-0.041538,0.017104
2026-03-04T18:56:29.231737,-3.282952,-9.432506,1.440479,0.021991,-0.041538,0.015882
2026-03-04T18:56:29.241737,-3.268595,-9.418149,1.411765,0.021991,-0.041538,0.014660
2026-03-04T18:56:29.250737,-3.287738,-9.422935,1.421336,0.019547,-0.043982,0.018325
2026-03-04T18:56:29.260737,-3.282952,-9.485148,1.373480,0.018325,-0.042760,0.017104
2026-03-04T18:56:29.270737,-3.263810,-9.446863,1.383051,0.019547,-0.041538,0.017104
2026-03-04T18:56:29.279737,-3.230310,-9.432506,1.368694,0.021991,-0.041538,0.017104
2026-03-04T18:56:29.289737,-3.306880,-9.489934,1.406979,0.017104,-0.040317,0.017104
2026-03-04T18:56:29.299737,-3.259024,-9.480363,1.349551,0.013439,-0.043982,0.024434
2026-03-04T18:56:29.308737,-3.297309,-9.442077,1.349551,0.018325,-0.042760,0.021991
2026-03-04T18:56:29.318737,-3.268595,-9.446863,1.378265,0.015882,-0.040317,0.018325
2026-03-04T18:56:29.327737,-3.225524,-9.413364,1.359123,0.015882,-0.040317,0.015882
2026-03-04T18:56:29.337737,-3.263810,-9.437292,1.363908,0.015882,-0.042760,0.015882
2026-03-04T18:56:29.347737,-3.263810,-9.456434,1.378265,0.017104,-0.042760,0.015882
2026-03-04T18:56:29.356737,-3.282952,-9.408578,1.368694,0.017104,-0.043982,0.015882
2026-03-04T18:56:29.366737,-3.235096,-9.413364,1.402194,0.019547,-0.043982,0.017104
2026-03-04T18:56:29.375737,-3.278166,-9.432506,1.344766,0.018325,-0.042760,0.015882
2026-03-04T18:56:29.385737,-3.259024,-9.489934,1.344766,0.020769,-0.042760,0.015882
2026-03-04T18:56:29.395737,-3.316452,-9.422935,1.359123,0.023212,-0.041538,0.014660
2026-03-04T18:56:29.404737,-3.263810,-9.442077,1.406979,0.023212,-0.042760,0.013439
2026-03-04T18:56:29.414737,-3.225524,-9.427721,1.402194,0.020769,-0.041538,0.014660
2026-03-04T18:56:29.424737,-3.278166,-9.399007,1.363908,0.020769,-0.042760,0.017104
2026-03-04T18:56:29.433737,-3.335594,-9.413364,1.402194,0.019547,-0.042760,0.018325
2026-03-04T18:56:29.443737,-3.235096,-9.480363,1.344766,0.020769,-0.043982,0.019547
2026-03-04T18:56:29.452737,-3.220739,-9.394221,1.430907,0.020769,-0.043982,0.020769
2026-03-04T18:56:29.462737,-3.273381,-9.403792,1.411765,0.021991,-0.043982,0.017104
2026-03-04T18:56:29.472737,-3.292523,-9.432506,1.320838,0.020769,-0.043982,0.019547
2026-03-04T18:56:29.481737,-3.225524,-9.494720,1.349551,0.024434,-0.045204,0.018325
2026-03-04T18:56:29.491737,-3.278166,-9.418149,1.402194,0.025656,-0.043982,0.019547
2026-03-04T18:56:29.500737,-3.273381,-9.446863,1.392622,0.028099,-0.045204,0.018325
2026-03-04T18:56:29.510737,-3.282952,-9.509077,1.325623,0.029321,-0.046425,0.018325
2026-03-04T18:56:29.520737,-3.302095,-9.461220,1.363908,0.032986,-0.047647,0.017104
2026-03-04T18:56:29.529737,-3.239881,-9.456434,1.383051,0.031764,-0.045204,0.017104
2026-03-04T18:56:29.539737,-3.292523,-9.408578,1.430907,0.029321,-0.046425,0.017104
2026-03-04T18:56:29.549737,-3.259024,-9.413364,1.445264,0.024434,-0.043982,0.018325
2026-03-04T18:56:29.558737,-3.215953,-9.389435,1.454836,0.018325,-0.040317,0.018325
2026-03-04T18:56:29.568737,-3.330809,-9.446863,1.426122,0.015882,-0.037873,0.012217
2026-03-04T18:56:29.577737,-3.297309,-9.470791,1.392622,0.010995,-0.039095,0.014660
2026-03-04T18:56:29.587737,-3.297309,-9.509077,1.435693,0.012217,-0.039095,0.019547
2026-03-04T18:56:29.597737,-3.302095,-9.422935,1.349551,0.012217,-0.042760,0.023212
2026-03-04T18:56:29.606737,-3.282952,-9.475577,1.368694,0.017104,-0.041538,0.017104
2026-03-04T18:56:29.616737,-3.297309,-9.442077,1.416550,0.015882,-0.041538,0.015882
2026-03-04T18:56:29.625737,-3.249453,-9.418149,1.406979,0.017104,-0.041538,0.013439
2026-03-04T18:56:29.635737,-3.263810,-9.442077,1.344766,0.017104,-0.041538,0.017104
2026-03-04T18:56:29.645737,-3.292523,-9.456434,1.359123,0.015882,-0.040317,0.015882
2026-03-04T18:56:29.654737,-3.278166,-9.456434,1.349551,0.017104,-0.039095,0.010995
2026-03-04T18:56:29.664737,-3.278166,-9.432506,1.469193,0.018325,-0.041538,0.013439
2026-03-04T18:56:29.674737,-3.311666,-9.427721,1.426122,0.014660,-0.040317,0.019547
2026-03-04T18:56:29.683737,-3.268595,-9.418149,1.430907,0.008552,-0.039095,0.015882
2026-03-04T18:56:29.693737,-3.254238,-9.442077,1.397408,0.007330,-0.040317,0.015882
2026-03-04T18:56:29.702737,-3.259024,-9.413364,1.406979,0.008552,-0.039095,0.017104
2026-03-04T18:56:29.712737,-3.292523,-9.437292,1.344766,0.009773,-0.041538,0.017104
2026-03-04T18:56:29.722737,-3.292523,-9.432506,1.349551,0.010995,-0.040317,0.015882
2026-03-04T18:56:29.731737,-3.292523,-9.451649,1.378265,0.017104,-0.042760,0.017104
2026-03-04T18:56:29.741737,-3.311666,-9.504291,1.354337,0.020769,-0.043982,0.017104
2026-03-04T18:56:29.750737,-3.268595,-9.451649,1.363908,0.024434,-0.046425,0.015882
2026-03-04T18:56:29.760737,-3.278166,-9.451649,1.435693,0.025656,-0.046425,0.019547
2026-03-04T18:56:29.770737,-3.278166,-9.456434,1.363908,0.026878,-0.046425,0.019547
2026-03-04T18:56:29.779737,-3.297309,-9.418149,1.383051,0.026878,-0.043982,0.015882
2026-03-04T18:56:29.789737,-3.316452,-9.461220,1.378265,0.026878,-0.043982,0.018325
2026-03-04T18:56:29.799737,-3.268595,-9.461220,1.411765,0.025656,-0.043982,0.018325
2026-03-04T18:56:29.808737,-3.259024,-9.480363,1.459621,0.023212,-0.045204,0.020769
2026-03-04T18:56:29.818737,-3.287738,-9.422935,1.416550,0.017104,-0.041538,0.019547
2026-03-04T18:56:29.827737,-3.282952,-9.408578,1.363908,0.015882,-0.041538,0.020769
2026-03-04T18:56:29.837737,-3.292523,-9.446863,1.383051,0.014660,-0.041538,0.020769
2026-03-04T18:56:29.847737,-3.287738,-9.403792,1.426122,0.017104,-0.042760,0.020769
2026-03-04T18:56:29.856737,-3.302095,-9.437292,1.416550,0.017104,-0.042760,0.020769
2026-03-04T18:56:29.866737,-3.239881,-9.475577,1.359123,0.020769,-0.043982,0.018325
2026-03-04T18:56:29.875737,-3.311666,-9.461220,1.339980,0.021991,-0.043982,0.017104
2026-03-04T18:56:29.885737,-3.273381,-9.399007,1.397408,0.024434,-0.043982,0.018325
2026-03-04T18:56:29.895737,-3.230310,-9.403792,1.459621,0.020769,-0.045204,0.017104
2026-03-04T18:56:29.904737,-3.287738,-9.399007,1.354337,0.015882,-0.041538,0.015882
2026-03-04T18:56:29.914737,-3.268595,-9.394221,1.378265,0.013439,-0.039095,0.014660
2026-03-04T18:56:29.924737,-3.263810,-9.389435,1.402194,0.013439,-0.039095,0.014660
2026-03-04T18:56:29.933737,-3.263810,-9.403792,1.392622,0.009773,-0.040317,0.010995
2026-03-04T18:56:29.943737,-3.239881,-9.408578,1.440479,0.008552,-0.041538,0.018325
2026-03-04T18:56:29.952737,-3.292523,-9.370293,1.426122,0.008552,-0.036651,0.017104
2026-03-04T18:56:29.962737,-3.268595,-9.437292,1.373480,0.007330,-0.036651,0.017104
2026-03-04T18:56:29.972737,-3.326023,-9.466006,1.363908,0.009773,-0.040317,0.017104
2026-03-04T18:56:29.981737,-3.268595,-9.461220,1.359123,0.012217,-0.041538,0.014660
2026-03-04T18:56:29.991737,-3.278166,-9.475577,1.344766,0.015882,-0.041538,0.012217
2026-03-04T18:56:30.000737,-3.263810,-9.456434,1.387837,0.018325,-0.042760,0.015882
2026-03-04T18:56:30.010737,-3.273381,-9.422935,1.378265,0.020769,-0.042760,0.015882
2026-03-04T18:56:30.020737,-3.321237,-9.427721,1.421336,0.019547,-0.042760,0.015882
2026-03-04T18:56:30.029737,-3.249453,-9.437292,1.406979,0.018325,-0.041538,0.015882
2026-03-04T18:56:30.039737,-3.259024,-9.461220,1.349551,0.017104,-0.040317,0.012217
2026-03-04T18:56:30.049737,-3.268595,-9.418149,1.373480,0.014660,-0.041538,0.013439
2026-03-04T18:56:30.058737,-3.220739,-9.375078,1.363908,0.012217,-0.039095,0.014660
2026-03-04T18:56:30.068737,-3.292523,-9.470791,1.373480,0.010995,-0.039095,0.014660
2026-03-04T18:56:30.077737,-3.278166,-9.422935,1.316052,0.010995,-0.041538,0.018325
2026-03-04T18:56:30.087737,-3.321237,-9.427721,1.325623,0.014660,-0.041538,0.017104
2026-03-04T18:56:30.097737,-3.254238,-9.480363,1.421336,0.017104,-0.040317,0.015882
2026-03-04T18:56:30.106737,-3.273381,-9.504291,1.378265,0.020769,-0.041538,0.015882
2026-03-04T18:56:30.116737,-3.273381,-9.408578,1.421336,0.024434,-0.043982,0.017104
2026-03-04T18:56:30.125737,-3.259024,-9.451649,1.359123,0.025656,-0.043982,0.018325
2026-03-04T18:56:30.135737,-3.249453,-9.437292,1.387837,0.028099,-0.045204,0.017104
2026-03-04T18:56:30.145737,-3.249453,-9.466006,1.368694,0.028099,-0.045204,0.018325
2026-03-04T18:56:30.154737,-3.287738,-9.418149,1.359123,0.028099,-0.045204,0.015882
2026-03-04T18:56:30.164737,-3.249453,-9.418149,1.363908,0.026878,-0.043982,0.015882
2026-03-04T18:56:30.174737,-3.302095,-9.451649,1.406979,0.024434,-0.046425,0.017104
2026-03-04T18:56:30.183737,-3.249453,-9.446863,1.411765,0.021991,-0.041538,0.012217
2026-03-04T18:56:30.193737,-3.287738,-9.394221,1.339980,0.019547,-0.041538,0.012217
2026-03-04T18:56:30.202737,-3.292523,-9.494720,1.397408,0.018325,-0.041538,0.017104
2026-03-04T18:56:30.212737,-3.268595,-9.389435,1.349551,0.018325,-0.041538,0.018325
2026-03-04T18:56:30.222737,-3.326023,-9.413364,1.387837,0.018325,-0.042760,0.017104
2026-03-04T18:56:30.231737,-3.259024,-9.480363,1.368694,0.018325,-0.042760,0.015882
2026-03-04T18:56:30.241737,-3.297309,-9.389435,1.354337,0.019547,-0.041538,0.017104
2026-03-04T18:56:30.250737,-3.263810,-9.427721,1.373480,0.021991,-0.043982,0.017104
2026-03-04T18:56:30.260737,-3.302095,-9.446863,1.349551,0.021991,-0.043982,0.018325
2026-03-04T18:56:30.270737,-3.316452,-9.427721,1.344766,0.025656,-0.043982,0.019547
2026-03-04T18:56:30.279737,-3.235096,-9.418149,1.359123,0.028099,-0.043982,0.018325
2026-03-04T18:56:30.289737,-3.225524,-9.466006,1.387837,0.031764,-0.047647,0.017104
2026-03-04T18:56:30.299737,-3.316452,-9.427721,1.392622,0.031764,-0.046425,0.017104
2026-03-04T18:56:30.308737,-3.278166,-9.389435,1.411765,0.029321,-0.043982,0.015882
2026-03-04T18:56:30.318737,-3.302095,-9.389435,1.426122,0.024434,-0.043982,0.018325
2026-03-04T18:56:30.327737,-3.244667,-9.437292,1.411765,0.018325,-0.041538,0.017104
2026-03-04T18:56:30.337737,-3.263810,-9.399007,1.339980,0.013439,-0.043982,0.015882
2026-03-04T18:56:30.347737,-3.297309,-9.485148,1.359123,0.012217,-0.042760,0.018325
2026-03-04T18:56:30.356737,-3.259024,-9.513862,1.373480,0.010995,-0.042760,0.019547
2026-03-04T18:56:30.366737,-3.244667,-9.413364,1.383051,0.013439,-0.040317,0.019547
2026-03-04T18:56:30.375737,-3.278166,-9.489934,1.392622,0.014660,-0.039095,0.014660
2026-03-04T18:56:30.385737,-3.220739,-9.509077,1.354337,0.017104,-0.041538,0.018325
2026-03-04T18:56:30.395737,-3.259024,-9.470791,1.406979,0.018325,-0.042760,0.018325
2026-03-04T18:56:30.404737,-3.306880,-9.432506,1.416550,0.019547,-0.042760,0.015882
2026-03-04T18:56:30.414737,-3.259024,-9.442077,1.411765,0.021991,-0.043982,0.015882
2026-03-04T18:56:30.424737,-3.215953,-9.442077,1.387837,0.023212,-0.042760,0.017104
2026-03-04T18:56:30.433737,-3.220739,-9.413364,1.359123,0.023212,-0.042760,0.014660
2026-03-04T18:56:30.443737,-3.268595,-9.475577,1.421336,0.019547,-0.043982,0.017104
2026-03-04T18:56:30.452737,-3.282952,-9.403792,1.402194,0.018325,-0.041538,0.019547
2026-03-04T18:56:30.462737,-3.259024,-9.408578,1.392622,0.018325,-0.042760,0.015882
2026-03-04T18:56:30.472737,-3.225524,-9.437292,1.392622,0.014660,-0.042760,0.015882
2026-03-04T18:56:30.481737,-3.254238,-9.461220,1.387837,0.015882,-0.043982,0.014660
2026-03-04T18:56:30.491737,-3.287738,-9.432506,1.339980,0.017104,-0.041538,0.015882
2026-03-04T18:56:30.500737,-3.196810,-9.442077,1.411765,0.020769,-0.042760,0.017104
2026-03-04T18:56:30.510737,-3.306880,-9.485148,1.354337,0.021991,-0.041538,0.017104
2026-03-04T18:56:30.520737,-3.263810,-9.437292,1.359123,0.024434,-0.041538,0.014660
2026-03-04T18:56:30.529737,-3.244667,-9.461220,1.373480,0.024434,-0.042760,0.017104
2026-03-04T18:56:30.539737,-3.297309,-9.466006,1.373480,0.024434,-0.043982,0.018325
2026-03-04T18:56:30.549737,-3.244667,-9.427721,1.416550,0.020769,-0.042760,0.017104
2026-03-04T18:56:30.558737,-3.268595,-9.418149,1.402194,0.021991,-0.041538,0.012217
2026-03-04T18:56:30.568737,-3.244667,-9.408578,1.363908,0.018325,-0.039095,0.014660
2026-03-04T18:56:30.577737,-3.239881,-9.403792,1.402194,0.017104,-0.039095,0.015882
2026-03-04T18:56:30.587737,-3.259024,-9.451649,1.411765,0.018325,-0.041538,0.018325
2026-03-04T18:56:30.597737,-3.239881,-9.432506,1.402194,0.017104,-0.042760,0.017104
2026-03-04T18:56:30.606737,-3.230310,-9.485148,1.344766,0.017104,-0.041538,0.019547
2026-03-04T18:56:30.616737,-3.220739,-9.389435,1.339980,0.019547,-0.045204,0.018325
2026-03-04T18:56:30.625737,-3.330809,-9.466006,1.363908,0.021991,-0.043982,0.017104
2026-03-04T18:56:30.635737,-3.306880,-9.475577,1.359123,0.023212,-0.043982,0.018325
2026-03-04T18:56:30.645737,-3.287738,-9.456434,1.373480,0.023212,-0.043982,0.018325
2026-03-04T18:56:30.654737,-3.306880,-9.437292,1.373480,0.020769,-0.043982,0.018325
2026-03-04T18:56:30.664737,-3.311666,-9.399007,1.368694,0.017104,-0.040317,0.018325
2026-03-04T18:56:30.674737,-3.311666,-9.466006,1.359123,0.015882,-0.041538,0.017104
2026-03-04T18:56:30.683737,-3.282952,-9.379864,1.344766,0.014660,-0.042760,0.017104
2026-03-04T18:56:30.693737,-3.249453,-9.384650,1.330409,0.015882,-0.040317,0.013439
2026-03-04T18:56:30.702737,-3.278166,-9.408578,1.411765,0.017104,-0.041538,0.012217
2026-03-04T18:56:30.712737,-3.254238,-9.442077,1.344766,0.018325,-0.041538,0.015882
2026-03-04T18:56:30.722737,-3.244667,-9.437292,1.383051,0.018325,-0.041538,0.017104
2026-03-04T18:56:30.731737,-3.259024,-9.451649,1.320838,0.019547,-0.042760,0.017104
2026-03-04T18:56:30.741737,-3.282952,-9.437292,1.435693,0.019547,-0.043982,0.019547
2026-03-04T18:56:30.750737,-3.287738,-9.432506,1.316052,0.023212,-0.043982,0.020769
2026-03-04T18:56:30.760737,-3.268595,-9.451649,1.397408,0.024434,-0.043982,0.019547
2026-03-04T18:56:30.770737,-3.297309,-9.375078,1.368694,0.023212,-0.043982,0.018325
2026-03-04T18:56:30.779737,-3.282952,-9.413364,1.402194,0.020769,-0.042760,0.017104
2026-03-04T18:56:30.789737,-3.330809,-9.470791,1.426122,0.019547,-0.041538,0.013439
2026-03-04T18:56:30.799737,-3.249453,-9.489934,1.411765,0.019547,-0.042760,0.017104
2026-03-04T18:56:30.808737,-3.268595,-9.437292,1.411765,0.017104,-0.042760,0.013439
2026-03-04T18:56:30.818737,-3.259024,-9.427721,1.349551,0.018325,-0.040317,0.013439
2026-03-04T18:56:30.827737,-3.326023,-9.437292,1.373480,0.015882,-0.041538,0.014660
2026-03-04T18:56:30.837737,-3.302095,-9.437292,1.368694,0.013439,-0.037873,0.015882
2026-03-04T18:56:30.847737,-3.244667,-9.427721,1.335195,0.017104,-0.040317,0.017104
2026-03-04T18:56:30.856737,-3.263810,-9.427721,1.411765,0.017104,-0.042760,0.015882
2026-03-04T18:56:30.866737,-3.302095,-9.542576,1.339980,0.019547,-0.043982,0.019547
2026-03-04T18:56:30.875737,-3.302095,-9.466006,1.330409,0.019547,-0.043982,0.018325
2026-03-04T18:56:30.885737,-3.282952,-9.399007,1.383051,0.021991,-0.043982,0.018325
2026-03-04T18:56:30.895737,-3.259024,-9.485148,1.397408,0.020769,-0.042760,0.015882
2026-03-04T18:56:30.904737,-3.273381,-9.408578,1.402194,0.020769,-0.043982,0.015882
2026-03-04T18:56:30.914737,-3.259024,-9.370293,1.354337,0.019547,-0.042760,0.020769
2026-03-04T18:56:30.924737,-3.297309,-9.466006,1.335195,0.018325,-0.042760,0.018325
2026-03-04T18:56:30.933737,-3.225524,-9.403792,1.454836,0.018325,-0.042760,0.019547
2026-03-04T18:56:30.943737,-3.211167,-9.432506,1.378265,0.015882,-0.041538,0.019547
2026-03-04T18:56:30.952737,-3.273381,-9.499505,1.363908,0.017104,-0.040317,0.017104
2026-03-04T18:56:30.962737,-3.326023,-9.422935,1.296909,0.019547,-0.041538,0.015882
2026-03-04T18:56:30.972737,-3.196810,-9.489934,1.378265,0.021991,-0.043982,0.017104
2026-03-04T18:56:30.981737,-3.278166,-9.451649,1.378265,0.025656,-0.045204,0.017104
2026-03-04T18:56:30.991737,-3.268595,-9.418149,1.344766,0.026878,-0.045204,0.014660
2026-03-04T18:56:31.000737,-3.278166,-9.413364,1.378265,0.026878,-0.045204,0.017104
2026-03-04T18:56:31.010737,-3.268595,-9.432506,1.426122,0.024434,-0.043982,0.018325
2026-03-04T18:56:31.020737,-3.278166,-9.413364,1.373480,0.024434,-0.043982,0.017104
2026-03-04T18:56:31.029737,-3.268595,-9.442077,1.402194,0.021991,-0.042760,0.015882
2026-03-04T18:56:31.039737,-3.220739,-9.384650,1.363908,0.017104,-0.041538,0.017104
2026-03-04T18:56:31.049737,-3.282952,-9.451649,1.359123,0.013439,-0.040317,0.019547
2026-03-04T18:56:31.058737,-3.254238,-9.432506,1.349551,0.013439,-0.041538,0.018325
2026-03-04T18:56:31.068737,-3.263810,-9.442077,1.392622,0.014660,-0.040317,0.018325
2026-03-04T18:56:31.077737,-3.235096,-9.475577,1.392622,0.014660,-0.040317,0.018325
2026-03-04T18:56:31.087737,-3.282952,-9.437292,1.325623,0.015882,-0.042760,0.019547
2026-03-04T18:56:31.097737,-3.335594,-9.480363,1.392622,0.018325,-0.042760,0.019547
2026-03-04T18:56:31.106737,-3.249453,-9.394221,1.349551,0.020769,-0.042760,0.015882
2026-03-04T18:56:31.116737,-3.259024,-9.432506,1.330409,0.021991,-0.042760,0.015882
2026-03-04T18:56:31.125737,-3.268595,-9.461220,1.392622,0.024434,-0.041538,0.019547
2026-03-04T18:56:31.135737,-3.282952,-9.451649,1.354337,0.026878,-0.043982,0.019547
2026-03-04T18:56:31.145737,-3.206382,-9.494720,1.339980,0.024434,-0.043982,0.018325
2026-03-04T18:56:31.154737,-3.263810,-9.442077,1.363908,0.024434,-0.043982,0.017104
2026-03-04T18:56:31.164737,-3.230310,-9.437292,1.411765,0.021991,-0.043982,0.017104
2026-03-04T18:56:31.174737,-3.278166,-9.475577,1.402194,0.018325,-0.040317,0.015882
2026-03-04T18:56:31.183737,-3.311666,-9.427721,1.387837,0.017104,-0.041538,0.017104
2026-03-04T18:56:31.193737,-3.287738,-9.403792,1.368694,0.015882,-0.041538,0.018325
2026-03-04T18:56:31.202737,-3.249453,-9.427721,1.378265,0.015882,-0.040317,0.017104
2026-03-04T18:56:31.212737,-3.268595,-9.418149,1.363908,0.014660,-0.041538,0.017104
2026-03-04T18:56:31.222737,-3.311666,-9.461220,1.378265,0.019547,-0.042760,0.015882
2026-03-04T18:56:31.231737,-3.316452,-9.437292,1.368694,0.023212,-0.042760,0.018325
2026-03-04T18:56:31.241737,-3.345165,-9.470791,1.397408,0.023212,-0.043982,0.020769
2026-03-04T18:56:31.250737,-3.282952,-9.466006,1.406979,0.023212,-0.046425,0.021991
2026-03-04T18:56:31.260737,-3.249453,-9.442077,1.359123,0.024434,-0.043982,0.018325
2026-03-04T18:56:31.270737,-3.254238,-9.461220,1.387837,0.025656,-0.043982,0.015882
2026-03-04T18:56:31.279737,-3.302095,-9.384650,1.373480,0.021991,-0.042760,0.017104
2026-03-04T18:56:31.289737,-3.302095,-9.413364,1.406979,0.018325,-0.041538,0.014660
2026-03-04T18:56:31.299737,-3.254238,-9.379864,1.402194,0.014660,-0.040317,0.014660
2026-03-04T18:56:31.308737,-3.273381,-9.437292,1.402194,0.013439,-0.042760,0.018325
2026-03-04T18:56:31.318737,-3.287738,-9.403792,1.373480,0.013439,-0.041538,0.017104
2026-03-04T18:56:31.327737,-3.340380,-9.403792,1.392622,0.014660,-0.041538,0.017104
2026-03-04T18:56:31.337737,-3.297309,-9.513862,1.402194,0.017104,-0.041538,0.017104
2026-03-04T18:56:31.347737,-3.340380,-9.427721,1.368694,0.018325,-0.042760,0.018325
2026-03-04T18:56:31.356737,-3.263810,-9.456434,1.430907,0.019547,-0.041538,0.018325
2026-03-04T18:56:31.366737,-3.278166,-9.461220,1.402194,0.018325,-0.042760,0.015882
2026-03-04T18:56:31.375737,-3.287738,-9.533005,1.411765,0.019547,-0.041538,0.014660
2026-03-04T18:56:31.385737,-3.302095,-9.485148,1.363908,0.021991,-0.043982,0.015882
2026-03-04T18:56:31.395737,-3.235096,-9.456434,1.440479,0.023212,-0.045204,0.018325
2026-03-04T18:56:31.404737,-3.278166,-9.475577,1.368694,0.021991,-0.043982,0.017104
2026-03-04T18:56:31.414737,-3.225524,-9.432506,1.349551,0.018325,-0.043982,0.017104
2026-03-04T18:56:31.424737,-3.239881,-9.418149,1.359123,0.017104,-0.043982,0.017104
2026-03-04T18:56:31.433737,-3.259024,-9.446863,1.368694,0.017104,-0.042760,0.017104
2026-03-04T18:56:31.443737,-3.263810,-9.399007,1.344766,0.015882,-0.041538,0.017104
2026-03-04T18:56:31.452737,-3.273381,-9.442077,1.378265,0.018325,-0.042760,0.018325
2026-03-04T18:56:31.462737,-3.239881,-9.442077,1.411765,0.018325,-0.042760,0.018325
2026-03-04T18:56:31.472737,-3.287738,-9.446863,1.383051,0.019547,-0.043982,0.018325
2026-03-04T18:56:31.481737,-3.282952,-9.403792,1.373480,0.025656,-0.045204,0.018325
2026-03-04T18:56:31.491737,-3.292523,-9.442077,1.339980,0.025656,-0.043982,0.017104
2026-03-04T18:56:31.500737,-3.249453,-9.480363,1.411765,0.025656,-0.043982,0.018325
2026-03-04T18:56:31.510737,-3.273381,-9.451649,1.339980,0.025656,-0.043982,0.017104
2026-03-04T18:56:31.520737,-3.268595,-9.408578,1.387837,0.023212,-0.045204,0.017104
2026-03-04T18:56:31.529737,-3.268595,-9.408578,1.411765,0.020769,-0.041538,0.015882
2026-03-04T18:56:31.539737,-3.292523,-9.442077,1.320838,0.017104,-0.041538,0.018325
2026-03-04T18:56:31.549737,-3.287738,-9.475577,1.378265,0.017104,-0.040317,0.017104
2026-03-04T18:56:31.558737,-3.273381,-9.456434,1.392622,0.017104,-0.040317,0.015882
2026-03-04T18:56:31.568737,-3.268595,-9.432506,1.373480,0.017104,-0.041538,0.017104
2026-03-04T18:56:31.577737,-3.259024,-9.466006,1.392622,0.018325,-0.042760,0.017104
2026-03-04T18:56:31.587737,-3.297309,-9.451649,1.325623,0.019547,-0.041538,0.015882
2026-03-04T18:56:31.597737,-3.292523,-9.470791,1.392622,0.021991,-0.043982,0.015882
2026-03-04T18:56:31.606737,-3.330809,-9.399007,1.320838,0.020769,-0.042760,0.018325
2026-03-04T18:56:31.616737,-3.244667,-9.384650,1.363908,0.019547,-0.042760,0.018325
2026-03-04T18:56:31.625737,-3.254238,-9.442077,1.397408,0.019547,-0.040317,0.018325
2026-03-04T18:56:31.635737,-3.273381,-9.456434,1.378265,0.017104,-0.043982,0.019547
2026-03-04T18:56:31.645737,-3.340380,-9.466006,1.354337,0.017104,-0.043982,0.017104
2026-03-04T18:56:31.654737,-3.287738,-9.446863,1.397408,0.018325,-0.042760,0.017104
2026-03-04T18:56:31.664737,-3.273381,-9.446863,1.349551,0.018325,-0.042760,0.015882
2026-03-04T18:56:31.674737,-3.249453,-9.432506,1.383051,0.017104,-0.041538,0.015882
2026-03-04T18:56:31.683737,-3.249453,-9.456434,1.373480,0.020769,-0.041538,0.017104
2026-03-04T18:56:31.693737,-3.273381,-9.403792,1.359123,0.021991,-0.042760,0.018325
2026-03-04T18:56:31.702737,-3.220739,-9.422935,1.397408,0.023212,-0.043982,0.018325
2026-03-04T18:56:31.712737,-3.254238,-9.418149,1.397408,0.024434,-0.045204,0.019547
2026-03-04T18:56:31.722737,-3.268595,-9.413364,1.397408,0.023212,-0.042760,0.017104
2026-03-04T18:56:31.731737,-3.278166,-9.427721,1.397408,0.023212,-0.042760,0.018325
2026-03-04T18:56:31.741737,-3.263810,-9.418149,1.406979,0.019547,-0.041538,0.015882
2026-03-04T18:56:31.750737,-3.254238,-9.470791,1.335195,0.019547,-0.041538,0.017104
2026-03-04T18:56:31.760737,-3.268595,-9.432506,1.378265,0.020769,-0.043982,0.015882
2026-03-04T18:56:31.770737,-3.273381,-9.408578,1.392622,0.018325,-0.042760,0.015882
2026-03-04T18:56:31.779737,-3.321237,-9.480363,1.378265,0.017104,-0.041538,0.015882
2026-03-04T18:56:31.789737,-3.263810,-9.446863,1.306481,0.018325,-0.042760,0.018325
2026-03-04T18:56:31.799737,-3.297309,-9.427721,1.368694,0.019547,-0.041538,0.014660
2026-03-04T18:56:31.808737,-3.235096,-9.432506,1.359123,0.020769,-0.040317,0.014660
2026-03-04T18:56:31.818737,-3.215953,-9.475577,1.392622,0.020769,-0.039095,0.015882
2026-03-04T18:56:31.827737,-3.292523,-9.480363,1.368694,0.018325,-0.042760,0.018325
2026-03-04T18:56:31.837737,-3.225524,-9.446863,1.397408,0.019547,-0.042760,0.015882
2026-03-04T18:56:31.847737,-3.254238,-9.446863,1.344766,0.021991,-0.043982,0.017104
2026-03-04T18:56:31.856737,-3.306880,-9.437292,1.387837,0.024434,-0.042760,0.017104
2026-03-04T18:56:31.866737,-3.220739,-9.422935,1.392622,0.020769,-0.043982,0.019547
2026-03-04T18:56:31.875737,-3.282952,-9.466006,1.368694,0.020769,-0.043982,0.018325
2026-03-04T18:56:31.885737,-3.235096,-9.485148,1.378265,0.020769,-0.045204,0.019547
2026-03-04T18:56:31.895737,-3.311666,-9.451649,1.378265,0.021991,-0.042760,0.015882
2026-03-04T18:56:31.904737,-3.211167,-9.437292,1.354337,0.019547,-0.042760,0.014660
2026-03-04T18:56:31.914737,-3.287738,-9.399007,1.411765,0.018325,-0.041538,0.017104
2026-03-04T18:56:31.924737,-3.211167,-9.422935,1.368694,0.019547,-0.042760,0.015882
2026-03-04T18:56:31.933737,-3.297309,-9.470791,1.378265,0.020769,-0.041538,0.017104
2026-03-04T18:56:31.943737,-3.235096,-9.442077,1.387837,0.020769,-0.042760,0.018325
2026-03-04T18:56:31.952737,-3.302095,-9.413364,1.378265,0.019547,-0.043982,0.018325
2026-03-04T18:56:31.962737,-3.302095,-9.446863,1.335195,0.024434,-0.046425,0.015882
2026-03-04T18:56:31.972737,-3.259024,-9.489934,1.368694,0.025656,-0.046425,0.017104
2026-03-04T18:56:31.981737,-3.263810,-9.422935,1.306481,0.025656,-0.046425,0.015882
2026-03-04T18:56:31.991737,-3.259024,-9.408578,1.421336,0.023212,-0.046425,0.020769
2026-03-04T18:56:32.000737,-3.292523,-9.470791,1.426122,0.023212,-0.045204,0.023212
2026-03-04T18:56:32.010737,-3.239881,-9.408578,1.368694,0.021991,-0.045204,0.021991
2026-03-04T18:56:32.020737,-3.326023,-9.413364,1.359123,0.020769,-0.042760,0.019547
2026-03-04T18:56:32.029737,-3.268595,-9.489934,1.359123,0.020769,-0.043982,0.017104
2026-03-04T18:56:32.039737,-3.287738,-9.456434,1.387837,0.020769,-0.042760,0.017104
2026-03-04T18:56:32.049737,-3.287738,-9.485148,1.335195,0.021991,-0.040317,0.015882
2026-03-04T18:56:32.058737,-3.273381,-9.427721,1.354337,0.021991,-0.042760,0.018325
2026-03-04T18:56:32.068737,-3.268595,-9.442077,1.349551,0.024434,-0.043982,0.018325
2026-03-04T18:56:32.077737,-3.263810,-9.418149,1.392622,0.024434,-0.045204,0.015882
2026-03-04T18:56:32.087737,-3.249453,-9.442077,1.378265,0.024434,-0.041538,0.017104
2026-03-04T18:56:32.097737,-3.311666,-9.442077,1.378265,0.024434,-0.042760,0.015882
2026-03-04T18:56:32.106737,-3.239881,-9.446863,1.378265,0.023212,-0.043982,0.017104
2026-03-04T18:56:32.116737,-3.330809,-9.427721,1.359123,0.024434,-0.043982,0.017104
2026-03-04T18:56:32.125737,-3.235096,-9.461220,1.354337,0.024434,-0.043982,0.014660
2026-03-04T18:56:32.135737,-3.306880,-9.394221,1.378265,0.023212,-0.045204,0.015882
2026-03-04T18:56:32.145737,-3.244667,-9.437292,1.397408,0.020769,-0.043982,0.018325
2026-03-04T18:56:32.154737,-3.278166,-9.408578,1.397408,0.020769,-0.041538,0.017104
2026-03-04T18:56:32.164737,-3.249453,-9.466006,1.378265,0.019547,-0.041538,0.018325
2026-03-04T18:56:32.174737,-3.311666,-9.437292,1.359123,0.017104,-0.041538,0.013439
2026-03-04T18:56:32.183737,-3.259024,-9.442077,1.373480,0.018325,-0.041538,0.014660
2026-03-04T18:56:32.193737,-3.225524,-9.418149,1.378265,0.018325,-0.041538,0.017104
2026-03-04T18:56:32.202737,-3.263810,-9.470791,1.359123,0.017104,-0.040317,0.017104
2026-03-04T18:56:32.212737,-3.306880,-9.461220,1.349551,0.015882,-0.042760,0.017104
2026-03-04T18:56:32.222737,-3.249453,-9.456434,1.435693,0.019547,-0.043982,0.017104
2026-03-04T18:56:32.231737,-3.268595,-9.461220,1.378265,0.019547,-0.043982,0.015882
2026-03-04T18:56:32.241737,-3.297309,-9.427721,1.402194,0.019547,-0.041538,0.015882
2026-03-04T18:56:32.250737,-3.230310,-9.432506,1.392622,0.020769,-0.042760,0.017104
2026-03-04T18:56:32.260737,-3.254238,-9.432506,1.406979,0.020769,-0.042760,0.017104
2026-03-04T18:56:32.270737,-3.306880,-9.422935,1.416550,0.018325,-0.041538,0.015882
2026-03-04T18:56:32.279737,-3.254238,-9.437292,1.378265,0.015882,-0.040317,0.015882
2026-03-04T18:56:32.289737,-3.282952,-9.442077,1.373480,0.014660,-0.041538,0.015882
2026-03-04T18:56:32.299737,-3.220739,-9.451649,1.373480,0.015882,-0.040317,0.019547
2026-03-04T18:56:32.308737,-3.211167,-9.403792,1.387837,0.014660,-0.041538,0.017104
2026-03-04T18:56:32.318737,-3.287738,-9.446863,1.383051,0.015882,-0.040317,0.015882
2026-03-04T18:56:32.327737,-3.254238,-9.461220,1.335195,0.015882,-0.045204,0.020769
2026-03-04T18:56:32.337737,-3.259024,-9.413364,1.359123,0.019547,-0.042760,0.018325
2026-03-04T18:56:32.347737,-3.230310,-9.456434,1.383051,0.018325,-0.041538,0.015882
2026-03-04T18:56:32.356737,-3.282952,-9.442077,1.330409,0.018325,-0.040317,0.017104
2026-03-04T18:56:32.366737,-3.297309,-9.466006,1.349551,0.020769,-0.043982,0.018325
2026-03-04T18:56:32.375737,-3.249453,-9.418149,1.411765,0.023212,-0.043982,0.017104
2026-03-04T18:56:32.385737,-3.321237,-9.466006,1.411765,0.023212,-0.042760,0.017104
2026-03-04T18:56:32.395737,-3.297309,-9.451649,1.406979,0.024434,-0.042760,0.017104
2026-03-04T18:56:32.404737,-3.230310,-9.422935,1.378265,0.021991,-0.045204,0.017104
2026-03-04T18:56:32.414737,-3.239881,-9.466006,1.325623,0.021991,-0.043982,0.018325
2026-03-04T18:56:32.424737,-3.287738,-9.451649,1.378265,0.023212,-0.042760,0.017104
2026-03-04T18:56:32.433737,-3.268595,-9.513862,1.363908,0.023212,-0.042760,0.017104
2026-03-04T18:56:32.443737,-3.249453,-9.422935,1.430907,0.023212,-0.045204,0.018325
2026-03-04T18:56:32.452737,-3.292523,-9.399007,1.440479,0.023212,-0.043982,0.017104
2026-03-04T18:56:32.462737,-3.244667,-9.403792,1.373480,0.020769,-0.043982,0.017104
2026-03-04T18:56:32.472737,-3.297309,-9.437292,1.406979,0.019547,-0.042760,0.017104
2026-03-04T18:56:32.481737,-3.306880,-9.451649,1.435693,0.017104,-0.042760,0.018325
2026-03-04T18:56:32.491737,-3.263810,-9.451649,1.354337,0.015882,-0.041538,0.013439
2026-03-04T18:56:32.500737,-3.278166,-9.475577,1.349551,0.015882,-0.042760,0.017104
2026-03-04T18:56:32.510737,-3.263810,-9.466006,1.402194,0.018325,-0.041538,0.017104
2026-03-04T18:56:32.520737,-3.282952,-9.456434,1.378265,0.019547,-0.043982,0.015882
2026-03-04T18:56:32.529737,-3.249453,-9.451649,1.349551,0.019547,-0.041538,0.013439
2026-03-04T18:56:32.539737,-3.249453,-9.437292,1.363908,0.019547,-0.042760,0.015882
2026-03-04T18:56:32.549737,-3.244667,-9.432506,1.445264,0.019547,-0.041538,0.017104
2026-03-04T18:56:32.558737,-3.297309,-9.427721,1.387837,0.020769,-0.043982,0.018325
2026-03-04T18:56:32.568737,-3.239881,-9.475577,1.402194,0.019547,-0.042760,0.017104
2026-03-04T18:56:32.577737,-3.278166,-9.422935,1.383051,0.019547,-0.042760,0.019547
2026-03-04T18:56:32.587737,-3.259024,-9.418149,1.344766,0.019547,-0.041538,0.017104
2026-03-04T18:56:32.597737,-3.249453,-9.451649,1.387837,0.019547,-0.042760,0.018325
2026-03-04T18:56:32.606737,-3.292523,-9.384650,1.383051,0.020769,-0.042760,0.018325
2026-03-04T18:56:32.616737,-3.187239,-9.379864,1.368694,0.018325,-0.041538,0.018325
2026-03-04T18:56:32.625737,-3.297309,-9.427721,1.387837,0.018325,-0.043982,0.020769
2026-03-04T18:56:32.635737,-3.297309,-9.456434,1.325623,0.015882,-0.042760,0.018325
2026-03-04T18:56:32.645737,-3.259024,-9.422935,1.392622,0.014660,-0.041538,0.018325
2026-03-04T18:56:32.654737,-3.249453,-9.466006,1.392622,0.015882,-0.042760,0.017104
2026-03-04T18:56:32.664737,-3.311666,-9.413364,1.349551,0.015882,-0.042760,0.015882
2026-03-04T18:56:32.674737,-3.302095,-9.466006,1.402194,0.018325,-0.043982,0.017104
2026-03-04T18:56:32.683737,-3.259024,-9.475577,1.363908,0.020769,-0.042760,0.017104
2026-03-04T18:56:32.693737,-3.292523,-9.504291,1.363908,0.023212,-0.043982,0.017104
2026-03-04T18:56:32.702737,-3.244667,-9.466006,1.387837,0.023212,-0.042760,0.015882
2026-03-04T18:56:32.712737,-3.249453,-9.437292,1.440479,0.023212,-0.043982,0.017104
2026-03-04T18:56:32.722737,-3.273381,-9.422935,1.330409,0.021991,-0.042760,0.018325
2026-03-04T18:56:32.731737,-3.302095,-9.432506,1.378265,0.019547,-0.042760,0.018325
2026-03-04T18:56:32.741737,-3.316452,-9.403792,1.359123,0.018325,-0.041538,0.018325
2026-03-04T18:56:32.750737,-3.254238,-9.466006,1.406979,0.018325,-0.043982,0.015882
2026-03-04T18:56:32.760737,-3.263810,-9.466006,1.387837,0.018325,-0.043982,0.017104
2026-03-04T18:56:32.770737,-3.297309,-9.456434,1.363908,0.018325,-0.045204,0.020769
2026-03-04T18:56:32.779737,-3.268595,-9.446863,1.402194,0.019547,-0.042760,0.018325
2026-03-04T18:56:32.789737,-3.278166,-9.418149,1.363908,0.019547,-0.042760,0.019547
2026-03-04T18:56:32.799737,-3.268595,-9.427721,1.459621,0.019547,-0.043982,0.018325
2026-03-04T18:56:32.808737,-3.268595,-9.427721,1.344766,0.019547,-0.043982,0.019547
2026-03-04T18:56:32.818737,-3.268595,-9.480363,1.426122,0.020769,-0.041538,0.017104
2026-03-04T18:56:32.827737,-3.273381,-9.466006,1.359123,0.023212,-0.042760,0.014660
2026-03-04T18:56:32.837737,-3.273381,-9.437292,1.383051,0.023212,-0.042760,0.014660
2026-03-04T18:56:32.847737,-3.316452,-9.432506,1.383051,0.021991,-0.043982,0.019547
2026-03-04T18:56:32.856737,-3.259024,-9.446863,1.397408,0.020769,-0.041538,0.017104
2026-03-04T18:56:32.866737,-3.278166,-9.432506,1.368694,0.019547,-0.042760,0.015882
2026-03-04T18:56:32.875737,-3.287738,-9.509077,1.344766,0.019547,-0.043982,0.017104
2026-03-04T18:56:32.885737,-3.297309,-9.422935,1.397408,0.019547,-0.043982,0.017104
2026-03-04T18:56:32.895737,-3.254238,-9.432506,1.383051,0.020769,-0.043982,0.018325
2026-03-04T18:56:32.904737,-3.254238,-9.456434,1.416550,0.020769,-0.043982,0.018325
2026-03-04T18:56:32.914737,-3.282952,-9.461220,1.383051,0.020769,-0.042760,0.017104
2026-03-04T18:56:32.924737,-3.292523,-9.422935,1.363908,0.023212,-0.045204,0.017104
2026-03-04T18:56:32.933737,-3.292523,-9.437292,1.416550,0.023212,-0.046425,0.021991
2026-03-04T18:56:32.943737,-3.292523,-9.451649,1.339980,0.024434,-0.043982,0.018325
2026-03-04T18:56:32.952737,-3.196810,-9.437292,1.363908,0.023212,-0.042760,0.015882
2026-03-04T18:56:32.962737,-3.230310,-9.399007,1.373480,0.021991,-0.042760,0.015882
2026-03-04T18:56:32.972737,-3.282952,-9.451649,1.354337,0.018325,-0.041538,0.018325
2026-03-04T18:56:32.981737,-3.316452,-9.408578,1.402194,0.019547,-0.043982,0.019547
2026-03-04T18:56:32.991737,-3.302095,-9.389435,1.378265,0.019547,-0.042760,0.018325
2026-03-04T18:56:33.000737,-3.254238,-9.446863,1.378265,0.019547,-0.041538,0.017104
2026-03-04T18:56:33.010737,-3.273381,-9.413364,1.378265,0.018325,-0.039095,0.013439
2026-03-04T18:56:33.020737,-3.268595,-9.437292,1.344766,0.018325,-0.042760,0.017104
2026-03-04T18:56:33.029737,-3.287738,-9.427721,1.416550,0.020769,-0.042760,0.018325
2026-03-04T18:56:33.039737,-3.311666,-9.466006,1.344766,0.020769,-0.042760,0.017104
2026-03-04T18:56:33.049737,-3.230310,-9.413364,1.373480,0.020769,-0.042760,0.018325
2026-03-04T18:56:33.058737,-3.335594,-9.480363,1.397408,0.021991,-0.042760,0.017104
2026-03-04T18:56:33.068737,-3.326023,-9.427721,1.373480,0.024434,-0.045204,0.014660
2026-03-04T18:56:33.077737,-3.311666,-9.446863,1.339980,0.024434,-0.043982,0.017104
2026-03-04T18:56:33.087737,-3.273381,-9.446863,1.411765,0.020769,-0.042760,0.014660
2026-03-04T18:56:33.097737,-3.321237,-9.389435,1.363908,0.018325,-0.041538,0.015882
2026-03-04T18:56:33.106737,-3.259024,-9.442077,1.354337,0.020769,-0.040317,0.012217
2026-03-04T18:56:33.116737,-3.287738,-9.394221,1.378265,0.019547,-0.040317,0.014660
2026-03-04T18:56:33.125737,-3.302095,-9.456434,1.363908,0.014660,-0.039095,0.017104
2026-03-04T18:56:33.135737,-3.302095,-9.418149,1.335195,0.015882,-0.040317,0.017104
2026-03-04T18:56:33.145737,-3.259024,-9.466006,1.339980,0.015882,-0.040317,0.015882
2026-03-04T18:56:33.154737,-3.282952,-9.456434,1.349551,0.017104,-0.041538,0.018325
2026-03-04T18:56:33.164737,-3.311666,-9.413364,1.354337,0.021991,-0.041538,0.017104
2026-03-04T18:56:33.174737,-3.306880,-9.432506,1.378265,0.025656,-0.043982,0.018325
2026-03-04T18:56:33.183737,-3.321237,-9.489934,1.402194,0.023212,-0.042760,0.020769
2026-03-04T18:56:33.193737,-3.263810,-9.442077,1.392622,0.024434,-0.045204,0.019547
2026-03-04T18:56:33.202737,-3.254238,-9.418149,1.359123,0.023212,-0.043982,0.019547
2026-03-04T18:56:33.212737,-3.263810,-9.456434,1.387837,0.020769,-0.043982,0.019547
2026-03-04T18:56:33.222737,-3.254238,-9.451649,1.354337,0.021991,-0.043982,0.017104
2026-03-04T18:56:33.231737,-3.326023,-9.442077,1.359123,0.020769,-0.042760,0.018325
2026-03-04T18:56:33.241737,-3.282952,-9.456434,1.368694,0.023212,-0.043982,0.017104
2026-03-04T18:56:33.250737,-3.273381,-9.437292,1.387837,0.023212,-0.042760,0.012217
2026-03-04T18:56:33.260737,-3.282952,-9.437292,1.430907,0.023212,-0.042760,0.014660
2026-03-04T18:56:33.270737,-3.302095,-9.466006,1.387837,0.020769,-0.042760,0.015882
2026-03-04T18:56:33.279737,-3.254238,-9.418149,1.426122,0.020769,-0.043982,0.015882
2026-03-04T18:56:33.289737,-3.354737,-9.485148,1.359123,0.020769,-0.042760,0.015882
2026-03-04T18:56:33.299737,-3.306880,-9.466006,1.339980,0.020769,-0.042760,0.015882
2026-03-04T18:56:33.308737,-3.263810,-9.437292,1.402194,0.019547,-0.041538,0.015882
2026-03-04T18:56:33.318737,-3.282952,-9.394221,1.378265,0.017104,-0.041538,0.018325
2026-03-04T18:56:33.327737,-3.321237,-9.432506,1.253839,0.020769,-0.041538,0.018325
2026-03-04T18:56:33.337737,-3.244667,-9.437292,1.335195,0.023212,-0.045204,0.017104
2026-03-04T18:56:33.347737,-3.302095,-9.408578,1.363908,0.026878,-0.042760,0.014660
2026-03-04T18:56:33.356737,-3.306880,-9.523433,1.383051,0.024434,-0.042760,0.014660
2026-03-04T18:56:33.366737,-3.249453,-9.384650,1.368694,0.019547,-0.042760,0.014660
2026-03-04T18:56:33.375737,-3.330809,-9.437292,1.359123,0.019547,-0.039095,0.018325
2026-03-04T18:56:33.385737,-3.239881,-9.399007,1.406979,0.019547,-0.041538,0.019547
2026-03-04T18:56:33.395737,-3.282952,-9.365507,1.392622,0.017104,-0.040317,0.018325
2026-03-04T18:56:33.404737,-3.292523,-9.403792,1.473978,0.010995,-0.039095,0.017104
2026-03-04T18:56:33.414737,-3.259024,-9.480363,1.416550,0.008552,-0.039095,0.014660
2026-03-04T18:56:33.424737,-3.239881,-9.437292,1.406979,0.009773,-0.037873,0.014660
2026-03-04T18:56:33.433737,-3.287738,-9.461220,1.368694,0.009773,-0.036651,0.015882
2026-03-04T18:56:33.443737,-3.235096,-9.451649,1.359123,0.009773,-0.037873,0.014660
2026-03-04T18:56:33.452737,-3.268595,-9.451649,1.344766,0.010995,-0.042760,0.020769
2026-03-04T18:56:33.462737,-3.273381,-9.413364,1.335195,0.014660,-0.042760,0.019547
2026-03-04T18:56:33.472737,-3.287738,-9.451649,1.368694,0.015882,-0.041538,0.018325
2026-03-04T18:56:33.481737,-3.302095,-9.466006,1.301695,0.015882,-0.041538,0.019547
2026-03-04T18:56:33.491737,-3.273381,-9.403792,1.344766,0.019547,-0.041538,0.017104
2026-03-04T18:56:33.500737,-3.220739,-9.442077,1.368694,0.025656,-0.043982,0.019547
2026-03-04T18:56:33.510737,-3.311666,-9.422935,1.392622,0.026878,-0.045204,0.020769
2026-03-04T18:56:33.520737,-3.302095,-9.437292,1.392622,0.025656,-0.045204,0.019547
2026-03-04T18:56:33.529737,-3.259024,-9.470791,1.368694,0.025656,-0.046425,0.018325
2026-03-04T18:56:33.539737,-3.215953,-9.432506,1.397408,0.024434,-0.045204,0.014660
2026-03-04T18:56:33.549737,-3.259024,-9.442077,1.354337,0.021991,-0.042760,0.014660
2026-03-04T18:56:33.558737,-3.302095,-9.408578,1.378265,0.019547,-0.041538,0.014660
2026-03-04T18:56:33.568737,-3.311666,-9.408578,1.445264,0.020769,-0.041538,0.014660
2026-03-04T18:56:33.577737,-3.235096,-9.408578,1.306481,0.019547,-0.041538,0.015882
2026-03-04T18:56:33.587737,-3.259024,-9.418149,1.363908,0.015882,-0.040317,0.014660
2026-03-04T18:56:33.597737,-3.273381,-9.408578,1.430907,0.017104,-0.040317,0.015882
2026-03-04T18:56:33.606737,-3.273381,-9.485148,1.359123,0.018325,-0.040317,0.014660
2026-03-04T18:56:33.616737,-3.297309,-9.461220,1.349551,0.020769,-0.043982,0.018325
2026-03-04T18:56:33.625737,-3.326023,-9.403792,1.363908,0.021991,-0.042760,0.015882
2026-03-04T18:56:33.635737,-3.263810,-9.446863,1.373480,0.021991,-0.041538,0.014660
2026-03-04T18:56:33.645737,-3.282952,-9.470791,1.349551,0.020769,-0.042760,0.017104
2026-03-04T18:56:33.654737,-3.297309,-9.475577,1.387837,0.021991,-0.041538,0.017104
2026-03-04T18:56:33.664737,-3.316452,-9.475577,1.316052,0.023212,-0.042760,0.013439
2026-03-04T18:56:33.674737,-3.268595,-9.513862,1.402194,0.020769,-0.043982,0.015882
2026-03-04T18:56:33.683737,-3.249453,-9.399007,1.411765,0.020769,-0.042760,0.017104
2026-03-04T18:56:33.693737,-3.311666,-9.446863,1.416550,0.019547,-0.048869,0.028099
2026-03-04T18:56:33.702737,-3.302095,-9.413364,1.349551,0.018325,-0.043982,0.020769
2026-03-04T18:56:33.712737,-3.235096,-9.418149,1.392622,0.019547,-0.042760,0.018325
2026-03-04T18:56:33.722737,-3.244667,-9.437292,1.383051,0.018325,-0.041538,0.018325
2026-03-04T18:56:33.731737,-3.278166,-9.451649,1.349551,0.020769,-0.043982,0.018325
2026-03-04T18:56:33.741737,-3.292523,-9.509077,1.387837,0.021991,-0.043982,0.019547
2026-03-04T18:56:33.750737,-3.278166,-9.403792,1.421336,0.024434,-0.045204,0.017104
2026-03-04T18:56:33.760737,-3.244667,-9.446863,1.397408,0.025656,-0.043982,0.018325
2026-03-04T18:56:33.770737,-3.345165,-9.456434,1.392622,0.023212,-0.042760,0.018325
2026-03-04T18:56:33.779737,-3.326023,-9.379864,1.339980,0.020769,-0.042760,0.015882
2026-03-04T18:56:33.789737,-3.306880,-9.456434,1.359123,0.019547,-0.039095,0.013439
2026-03-04T18:56:33.799737,-3.287738,-9.480363,1.397408,0.021991,-0.043982,0.014660
2026-03-04T18:56:33.808737,-3.263810,-9.437292,1.354337,0.021991,-0.043982,0.015882
2026-03-04T18:56:33.818737,-3.254238,-9.456434,1.368694,0.023212,-0.041538,0.018325
2026-03-04T18:56:33.827737,-3.321237,-9.461220,1.397408,0.019547,-0.042760,0.017104
2026-03-04T18:56:33.837737,-3.282952,-9.451649,1.387837,0.019547,-0.041538,0.017104
2026-03-04T18:56:33.847737,-3.215953,-9.437292,1.330409,0.020769,-0.041538,0.018325
2026-03-04T18:56:33.856737,-3.268595,-9.470791,1.349551,0.020769,-0.042760,0.017104
2026-03-04T18:56:33.866737,-3.263810,-9.418149,1.378265,0.024434,-0.045204,0.015882
2026-03-04T18:56:33.875737,-3.259024,-9.437292,1.335195,0.023212,-0.045204,0.012217
2026-03-04T18:56:33.885737,-3.273381,-9.384650,1.325623,0.023212,-0.043982,0.015882
2026-03-04T18:56:33.895737,-3.287738,-9.475577,1.363908,0.025656,-0.042760,0.018325
2026-03-04T18:56:33.904737,-3.244667,-9.418149,1.392622,0.024434,-0.042760,0.017104
2026-03-04T18:56:33.914737,-3.282952,-9.399007,1.378265,0.023212,-0.041538,0.012217
2026-03-04T18:56:33.924737,-3.287738,-9.470791,1.387837,0.020769,-0.042760,0.019547
2026-03-04T18:56:33.933737,-3.297309,-9.389435,1.421336,0.017104,-0.042760,0.019547
2026-03-04T18:56:33.943737,-3.287738,-9.456434,1.378265,0.013439,-0.040317,0.015882
2026-03-04T18:56:33.952737,-3.220739,-9.413364,1.383051,0.012217,-0.039095,0.014660
2026-03-04T18:56:33.962737,-3.278166,-9.422935,1.402194,0.014660,-0.040317,0.017104
2026-03-04T18:56:33.972737,-3.268595,-9.437292,1.378265,0.014660,-0.040317,0.014660
2026-03-04T18:56:33.981737,-3.201596,-9.456434,1.335195,0.017104,-0.041538,0.013439
2026-03-04T18:56:33.991737,-3.235096,-9.389435,1.402194,0.018325,-0.041538,0.015882
2026-03-04T18:56:34.000737,-3.316452,-9.442077,1.301695,0.018325,-0.041538,0.017104
2026-03-04T18:56:34.010737,-3.278166,-9.470791,1.354337,0.019547,-0.041538,0.017104
2026-03-04T18:56:34.020737,-3.230310,-9.480363,1.368694,0.019547,-0.043982,0.015882
2026-03-04T18:56:34.029737,-3.273381,-9.399007,1.411765,0.020769,-0.045204,0.017104
2026-03-04T18:56:34.039737,-3.292523,-9.451649,1.330409,0.021991,-0.042760,0.015882
2026-03-04T18:56:34.049737,-3.278166,-9.422935,1.397408,0.018325,-0.042760,0.017104
2026-03-04T18:56:34.058737,-3.259024,-9.413364,1.397408,0.021991,-0.042760,0.015882
2026-03-04T18:56:34.068737,-3.282952,-9.403792,1.344766,0.020769,-0.043982,0.015882
2026-03-04T18:56:34.077737,-3.282952,-9.403792,1.383051,0.020769,-0.043982,0.020769
2026-03-04T18:56:34.087737,-3.263810,-9.432506,1.383051,0.019547,-0.042760,0.018325
2026-03-04T18:56:34.097737,-3.330809,-9.485148,1.383051,0.019547,-0.042760,0.018325
2026-03-04T18:56:34.106737,-3.263810,-9.466006,1.373480,0.020769,-0.045204,0.018325
2026-03-04T18:56:34.116737,-3.268595,-9.446863,1.402194,0.023212,-0.042760,0.017104
2026-03-04T18:56:34.125737,-3.302095,-9.442077,1.344766,0.021991,-0.042760,0.014660
2026-03-04T18:56:34.135737,-3.282952,-9.413364,1.339980,0.020769,-0.045204,0.018325
2026-03-04T18:56:34.145737,-3.273381,-9.442077,1.387837,0.021991,-0.043982,0.019547
2026-03-04T18:56:34.154737,-3.287738,-9.437292,1.392622,0.020769,-0.043982,0.018325
2026-03-04T18:56:34.164737,-3.278166,-9.475577,1.335195,0.021991,-0.040317,0.012217
2026-03-04T18:56:34.174737,-3.292523,-9.389435,1.406979,0.021991,-0.043982,0.015882
2026-03-04T18:56:34.183737,-3.273381,-9.422935,1.464407,0.024434,-0.043982,0.017104
2026-03-04T18:56:34.193737,-3.211167,-9.437292,1.392622,0.021991,-0.041538,0.015882
2026-03-04T18:56:34.202737,-3.225524,-9.466006,1.402194,0.019547,-0.039095,0.015882
2026-03-04T18:56:34.212737,-3.254238,-9.451649,1.378265,0.019547,-0.042760,0.017104
2026-03-04T18:56:34.222737,-3.302095,-9.456434,1.387837,0.018325,-0.042760,0.015882
2026-03-04T18:56:34.231737,-3.249453,-9.413364,1.392622,0.019547,-0.041538,0.017104
2026-03-04T18:56:34.241737,-3.263810,-9.422935,1.411765,0.020769,-0.041538,0.018325
2026-03-04T18:56:34.250737,-3.244667,-9.470791,1.339980,0.018325,-0.043982,0.019547
2026-03-04T18:56:34.260737,-3.354737,-9.418149,1.359123,0.017104,-0.042760,0.021991
2026-03-04T18:56:34.270737,-3.268595,-9.466006,1.426122,0.018325,-0.041538,0.017104
2026-03-04T18:56:34.279737,-3.316452,-9.432506,1.363908,0.018325,-0.040317,0.017104
2026-03-04T18:56:34.289737,-3.297309,-9.418149,1.383051,0.018325,-0.041538,0.017104
2026-03-04T18:56:34.299737,-3.282952,-9.470791,1.349551,0.018325,-0.042760,0.015882
2026-03-04T18:56:34.308737,-3.302095,-9.427721,1.335195,0.020769,-0.041538,0.017104
2026-03-04T18:56:34.318737,-3.235096,-9.418149,1.387837,0.021991,-0.041538,0.017104
2026-03-04T18:56:34.327737,-3.268595,-9.499505,1.373480,0.024434,-0.042760,0.018325
2026-03-04T18:56:34.337737,-3.263810,-9.418149,1.378265,0.024434,-0.045204,0.019547
2026-03-04T18:56:34.347737,-3.311666,-9.360722,1.387837,0.021991,-0.043982,0.018325
2026-03-04T18:56:34.356737,-3.292523,-9.418149,1.383051,0.020769,-0.042760,0.015882
2026-03-04T18:56:34.366737,-3.306880,-9.437292,1.402194,0.021991,-0.043982,0.019547
2026-03-04T18:56:34.375737,-3.263810,-9.442077,1.383051,0.021991,-0.042760,0.017104
2026-03-04T18:56:34.385737,-3.278166,-9.437292,1.383051,0.019547,-0.042760,0.015882
2026-03-04T18:56:34.395737,-3.268595,-9.466006,1.435693,0.020769,-0.041538,0.017104
2026-03-04T18:56:34.404737,-3.268595,-9.418149,1.421336,0.021991,-0.042760,0.017104
2026-03-04T18:56:34.414737,-3.249453,-9.399007,1.373480,0.021991,-0.042760,0.019547
2026-03-04T18:56:34.424737,-3.297309,-9.427721,1.378265,0.023212,-0.045204,0.018325
2026-03-04T18:56:34.433737,-3.297309,-9.446863,1.349551,0.023212,-0.043982,0.015882
2026-03-04T18:56:34.443737,-3.220739,-9.451649,1.421336,0.024434,-0.045204,0.017104
2026-03-04T18:56:34.452737,-3.268595,-9.427721,1.402194,0.024434,-0.043982,0.017104
2026-03-04T18:56:34.462737,-3.215953,-9.451649,1.325623,0.021991,-0.043982,0.017104
2026-03-04T18:56:34.472737,-3.254238,-9.413364,1.349551,0.020769,-0.043982,0.018325
2026-03-04T18:56:34.481737,-3.263810,-9.466006,1.440479,0.019547,-0.043982,0.017104
2026-03-04T18:56:34.491737,-3.254238,-9.408578,1.363908,0.019547,-0.042760,0.018325
2026-03-04T18:56:34.500737,-3.268595,-9.442077,1.373480,0.018325,-0.042760,0.017104
2026-03-04T18:56:34.510737,-3.263810,-9.422935,1.339980,0.018325,-0.041538,0.015882
2026-03-04T18:56:34.520737,-3.316452,-9.442077,1.406979,0.017104,-0.041538,0.017104
2026-03-04T18:56:34.529737,-3.268595,-9.451649,1.363908,0.015882,-0.042760,0.020769
2026-03-04T18:56:34.539737,-3.335594,-9.442077,1.406979,0.017104,-0.040317,0.014660
2026-03-04T18:56:34.549737,-3.235096,-9.451649,1.430907,0.018325,-0.040317,0.014660
2026-03-04T18:56:34.558737,-3.259024,-9.408578,1.406979,0.015882,-0.041538,0.017104
2026-03-04T18:56:34.568737,-3.297309,-9.442077,1.392622,0.014660,-0.041538,0.018325
2026-03-04T18:56:34.577737,-3.268595,-9.461220,1.363908,0.015882,-0.041538,0.018325
2026-03-04T18:56:34.587737,-3.249453,-9.475577,1.378265,0.015882,-0.041538,0.014660
2026-03-04T18:56:34.597737,-3.244667,-9.442077,1.392622,0.017104,-0.043982,0.015882
2026-03-04T18:56:34.606737,-3.230310,-9.451649,1.397408,0.019547,-0.043982,0.014660
2026-03-04T18:56:34.616737,-3.292523,-9.394221,1.330409,0.021991,-0.043982,0.013439
2026-03-04T18:56:34.625737,-3.259024,-9.418149,1.383051,0.023212,-0.043982,0.015882
2026-03-04T18:56:34.635737,-3.235096,-9.437292,1.402194,0.021991,-0.042760,0.017104
2026-03-04T18:56:34.645737,-3.268595,-9.399007,1.440479,0.019547,-0.040317,0.015882
2026-03-04T18:56:34.654737,-3.268595,-9.413364,1.378265,0.017104,-0.040317,0.014660
2026-03-04T18:56:34.664737,-3.211167,-9.437292,1.392622,0.013439,-0.040317,0.017104
2026-03-04T18:56:34.674737,-3.259024,-9.485148,1.344766,0.013439,-0.040317,0.020769
2026-03-04T18:56:34.683737,-3.239881,-9.470791,1.411765,0.017104,-0.041538,0.017104
2026-03-04T18:56:34.693737,-3.297309,-9.489934,1.392622,0.017104,-0.042760,0.017104
2026-03-04T18:56:34.702737,-3.235096,-9.399007,1.320838,0.018325,-0.043982,0.017104
2026-03-04T18:56:34.712737,-3.244667,-9.466006,1.411765,0.020769,-0.043982,0.019547
2026-03-04T18:56:34.722737,-3.287738,-9.456434,1.383051,0.021991,-0.041538,0.018325
2026-03-04T18:56:34.731737,-3.249453,-9.427721,1.344766,0.021991,-0.042760,0.015882
2026-03-04T18:56:34.741737,-3.316452,-9.437292,1.339980,0.020769,-0.041538,0.017104
2026-03-04T18:56:34.750737,-3.340380,-9.451649,1.416550,0.018325,-0.042760,0.018325
2026-03-04T18:56:34.760737,-3.259024,-9.437292,1.397408,0.019547,-0.041538,0.017104
2026-03-04T18:56:34.770737,-3.292523,-9.456434,1.349551,0.023212,-0.042760,0.015882
2026-03-04T18:56:34.779737,-3.263810,-9.418149,1.378265,0.021991,-0.041538,0.018325
2026-03-04T18:56:34.789737,-3.287738,-9.403792,1.383051,0.023212,-0.042760,0.019547
2026-03-04T18:56:34.799737,-3.273381,-9.432506,1.440479,0.021991,-0.042760,0.020769
2026-03-04T18:56:34.808737,-3.230310,-9.451649,1.368694,0.021991,-0.042760,0.018325
2026-03-04T18:56:34.818737,-3.302095,-9.451649,1.335195,0.023212,-0.042760,0.015882
2026-03-04T18:56:34.827737,-3.268595,-9.461220,1.392622,0.021991,-0.043982,0.020769
2026-03-04T18:56:34.837737,-3.249453,-9.379864,1.402194,0.020769,-0.042760,0.018325
2026-03-04T18:56:34.847737,-3.292523,-9.456434,1.383051,0.020769,-0.042760,0.018325
2026-03-04T18:56:34.856737,-3.268595,-9.442077,1.368694,0.020769,-0.042760,0.017104
2026-03-04T18:56:34.866737,-3.278166,-9.422935,1.363908,0.021991,-0.045204,0.017104
2026-03-04T18:56:34.875737,-3.235096,-9.394221,1.383051,0.024434,-0.045204,0.018325
2026-03-04T18:56:34.885737,-3.287738,-9.466006,1.383051,0.025656,-0.043982,0.018325
2026-03-04T18:56:34.895737,-3.211167,-9.422935,1.445264,0.021991,-0.045204,0.017104
2026-03-04T18:56:34.904737,-3.254238,-9.451649,1.359123,0.020769,-0.042760,0.017104
2026-03-04T18:56:34.914737,-3.254238,-9.427721,1.359123,0.017104,-0.043982,0.018325
2026-03-04T18:56:34.924737,-3.259024,-9.413364,1.378265,0.015882,-0.040317,0.018325
2026-03-04T18:56:34.933737,-3.263810,-9.446863,1.387837,0.017104,-0.040317,0.018325
2026-03-04T18:56:34.943737,-3.220739,-9.408578,1.363908,0.018325,-0.041538,0.019547
2026-03-04T18:56:34.952737,-3.287738,-9.384650,1.359123,0.018325,-0.041538,0.017104
2026-03-04T18:56:34.962737,-3.230310,-9.446863,1.344766,0.020769,-0.042760,0.017104
2026-03-04T18:56:34.972737,-3.268595,-9.413364,1.397408,0.020769,-0.041538,0.015882
2026-03-04T18:56:34.981737,-3.287738,-9.422935,1.349551,0.021991,-0.043982,0.017104
2026-03-04T18:56:34.991737,-3.273381,-9.422935,1.387837,0.020769,-0.042760,0.014660
2026-03-04T18:56:35.000737,-3.259024,-9.403792,1.378265,0.019547,-0.042760,0.015882
2026-03-04T18:56:35.010737,-3.244667,-9.442077,1.392622,0.019547,-0.041538,0.017104
2026-03-04T18:56:35.020737,-3.263810,-9.389435,1.397408,0.019547,-0.042760,0.014660
2026-03-04T18:56:35.029737,-3.230310,-9.437292,1.435693,0.020769,-0.041538,0.014660
2026-03-04T18:56:35.039737,-3.287738,-9.485148,1.383051,0.017104,-0.042760,0.017104
2026-03-04T18:56:35.049737,-3.292523,-9.427721,1.363908,0.017104,-0.041538,0.014660
2026-03-04T18:56:35.058737,-3.244667,-9.461220,1.344766,0.021991,-0.042760,0.014660
2026-03-04T18:56:35.068737,-3.254238,-9.475577,1.363908,0.020769,-0.043982,0.018325
2026-03-04T18:56:35.077737,-3.302095,-9.456434,1.378265,0.021991,-0.043982,0.018325
2026-03-04T18:56:35.087737,-3.297309,-9.451649,1.397408,0.023212,-0.042760,0.018325
2026-03-04T18:56:35.097737,-3.259024,-9.408578,1.445264,0.021991,-0.043982,0.018325
2026-03-04T18:56:35.106737,-3.302095,-9.432506,1.402194,0.019547,-0.043982,0.017104
2026-03-04T18:56:35.116737,-3.282952,-9.422935,1.363908,0.020769,-0.041538,0.017104
2026-03-04T18:56:35.125737,-3.282952,-9.442077,1.387837,0.020769,-0.041538,0.017104
2026-03-04T18:56:35.135737,-3.321237,-9.451649,1.354337,0.020769,-0.041538,0.019547
2026-03-04T18:56:35.145737,-3.330809,-9.408578,1.397408,0.021991,-0.042760,0.017104
2026-03-04T18:56:35.154737,-3.278166,-9.418149,1.349551,0.023212,-0.041538,0.017104
2026-03-04T18:56:35.164737,-3.249453,-9.466006,1.392622,0.021991,-0.042760,0.017104
2026-03-04T18:56:35.174737,-3.297309,-9.437292,1.383051,0.020769,-0.043982,0.017104
2026-03-04T18:56:35.183737,-3.259024,-9.461220,1.397408,0.020769,-0.042760,0.014660
2026-03-04T18:56:35.193737,-3.263810,-9.461220,1.292124,0.020769,-0.041538,0.015882
2026-03-04T18:56:35.202737,-3.340380,-9.432506,1.387837,0.020769,-0.042760,0.014660
2026-03-04T18:56:35.212737,-3.268595,-9.408578,1.421336,0.023212,-0.042760,0.015882
2026-03-04T18:56:35.222737,-3.239881,-9.442077,1.402194,0.021991,-0.040317,0.013439
2026-03-04T18:56:35.231737,-3.282952,-9.389435,1.349551,0.020769,-0.042760,0.017104
2026-03-04T18:56:35.241737,-3.263810,-9.418149,1.349551,0.019547,-0.045204,0.017104
2026-03-04T18:56:35.250737,-3.287738,-9.437292,1.373480,0.019547,-0.040317,0.012217
2026-03-04T18:56:35.260737,-3.172882,-9.394221,1.478764,0.019547,-0.041538,0.015882
2026-03-04T18:56:35.270737,-3.278166,-9.413364,1.402194,0.018325,-0.042760,0.015882
2026-03-04T18:56:35.279737,-3.302095,-9.461220,1.421336,0.017104,-0.041538,0.015882
2026-03-04T18:56:35.289737,-3.287738,-9.432506,1.411765,0.018325,-0.041538,0.014660
2026-03-04T18:56:35.299737,-3.273381,-9.437292,1.349551,0.015882,-0.039095,0.014660
2026-03-04T18:56:35.308737,-3.282952,-9.475577,1.378265,0.014660,-0.041538,0.017104
2026-03-04T18:56:35.318737,-3.239881,-9.432506,1.416550,0.017104,-0.041538,0.015882
2026-03-04T18:56:35.327737,-3.249453,-9.485148,1.402194,0.015882,-0.042760,0.018325
2026-03-04T18:56:35.337737,-3.316452,-9.446863,1.387837,0.019547,-0.041538,0.018325
2026-03-04T18:56:35.347737,-3.316452,-9.466006,1.387837,0.020769,-0.042760,0.017104
2026-03-04T18:56:35.356737,-3.254238,-9.446863,1.359123,0.023212,-0.045204,0.019547
2026-03-04T18:56:35.366737,-3.259024,-9.442077,1.402194,0.025656,-0.045204,0.018325
2026-03-04T18:56:35.375737,-3.282952,-9.442077,1.344766,0.025656,-0.043982,0.017104
2026-03-04T18:56:35.385737,-3.282952,-9.389435,1.421336,0.021991,-0.043982,0.017104
2026-03-04T18:56:35.395737,-3.321237,-9.399007,1.416550,0.018325,-0.041538,0.017104
2026-03-04T18:56:35.404737,-3.321237,-9.394221,1.450050,0.015882,-0.042760,0.018325
2026-03-04T18:56:35.414737,-3.311666,-9.446863,1.373480,0.013439,-0.040317,0.018325
2026-03-04T18:56:35.424737,-3.278166,-9.432506,1.363908,0.015882,-0.041538,0.018325
2026-03-04T18:56:35.433737,-3.249453,-9.384650,1.339980,0.018325,-0.040317,0.015882
2026-03-04T18:56:35.443737,-3.292523,-9.504291,1.426122,0.019547,-0.041538,0.014660
2026-03-04T18:56:35.452737,-3.215953,-9.489934,1.378265,0.019547,-0.042760,0.015882
2026-03-04T18:56:35.462737,-3.259024,-9.418149,1.435693,0.018325,-0.042760,0.017104
2026-03-04T18:56:35.472737,-3.292523,-9.466006,1.363908,0.018325,-0.043982,0.019547
2026-03-04T18:56:35.481737,-3.249453,-9.489934,1.335195,0.020769,-0.041538,0.018325
2026-03-04T18:56:35.491737,-3.287738,-9.408578,1.421336,0.020769,-0.041538,0.018325
2026-03-04T18:56:35.500737,-3.249453,-9.456434,1.325623,0.020769,-0.041538,0.012217
2026-03-04T18:56:35.510737,-3.287738,-9.446863,1.339980,0.020769,-0.042760,0.014660
2026-03-04T18:56:35.520737,-3.263810,-9.408578,1.411765,0.021991,-0.042760,0.018325
2026-03-04T18:56:35.529737,-3.306880,-9.394221,1.402194,0.020769,-0.041538,0.017104
2026-03-04T18:56:35.539737,-3.268595,-9.403792,1.445264,0.019547,-0.041538,0.015882
2026-03-04T18:56:35.549737,-3.292523,-9.446863,1.383051,0.019547,-0.040317,0.018325
2026-03-04T18:56:35.558737,-3.302095,-9.437292,1.383051,0.017104,-0.041538,0.019547
2026-03-04T18:56:35.568737,-3.287738,-9.437292,1.368694,0.014660,-0.039095,0.015882
2026-03-04T18:56:35.577737,-3.306880,-9.456434,1.402194,0.015882,-0.040317,0.017104
2026-03-04T18:56:35.587737,-3.278166,-9.480363,1.359123,0.017104,-0.041538,0.018325
2026-03-04T18:56:35.597737,-3.254238,-9.437292,1.378265,0.019547,-0.045204,0.019547
2026-03-04T18:56:35.606737,-3.254238,-9.446863,1.387837,0.023212,-0.045204,0.019547
2026-03-04T18:56:35.616737,-3.244667,-9.408578,1.402194,0.024434,-0.043982,0.019547
2026-03-04T18:56:35.625737,-3.282952,-9.370293,1.368694,0.021991,-0.042760,0.018325
2026-03-04T18:56:35.635737,-3.278166,-9.413364,1.368694,0.019547,-0.043982,0.017104
