Timestamp,Acceleration_X,Acceleration_Y,Acceleration_Z,Gyro_X,Gyro_Y,Gyro_Z
2026-01-18T19:44:27.931670,10.155139,-0.540777,1.469193,0.051312,-0.046425,0.109955
2026-01-18T19:44:27.941670,10.054640,-0.478564,1.411765,0.048869,-0.023212,0.113620
2026-01-18T19:44:27.950670,9.872786,-0.430708,1.392622,0.035430,-0.008552,0.111177
2026-01-18T19:44:27.960670,9.781858,-0.430708,1.411765,0.021991,-0.008552,0.101403
2026-01-18T19:44:27.969670,9.623932,-0.406779,1.469193,0.004886,-0.023212,0.094073
2026-01-18T19:44:27.979670,9.628718,-0.473778,1.497906,-0.002443,-0.050090,0.083077
2026-01-18T19:44:27.989670,9.700502,-0.488135,1.550549,-0.001221,-0.063529,0.070860
2026-01-18T19:44:27.998670,9.762716,-0.526420,1.560120,-0.006108,-0.063529,0.063529
2026-01-18T19:44:28.008670,9.829715,-0.497707,1.612762,-0.010995,-0.052534,0.056199
2026-01-18T19:44:28.018670,9.767501,-0.535992,1.607976,-0.021991,-0.031764,0.051312
2026-01-18T19:44:28.027670,9.748359,-0.512064,1.622333,-0.039095,-0.014660,0.051312
2026-01-18T19:44:28.037670,9.700502,-0.636490,1.569691,-0.056199,-0.010995,0.053756
2026-01-18T19:44:28.046670,9.681360,-0.669990,1.421336,-0.063529,-0.019547,0.054977
2026-01-18T19:44:28.056670,9.786644,-0.736989,1.459621,-0.057421,-0.034208,0.053756
2026-01-18T19:44:28.066670,9.896714,-0.674775,1.440479,-0.042760,-0.036651,0.050090
2026-01-18T19:44:28.075670,10.016355,-0.598205,1.517049,-0.024434,-0.029321,0.041538
2026-01-18T19:44:28.085670,9.992427,-0.540777,1.464407,-0.029321,-0.010995,0.039095
2026-01-18T19:44:28.094670,9.925428,-0.569491,1.339980,-0.046425,0.008552,0.034208
2026-01-18T19:44:28.104670,9.949356,-0.574277,1.296909,-0.064751,0.024434,0.031764
2026-01-18T19:44:28.114670,9.786644,-0.588634,1.344766,-0.079412,0.025656,0.028099
2026-01-18T19:44:28.123670,9.734002,-0.689132,1.249053,-0.090408,0.013439,0.028099
2026-01-18T19:44:28.133670,9.743573,-0.713061,1.253839,-0.100181,-0.007330,0.029321
2026-01-18T19:44:28.143670,9.820143,-0.818345,1.339980,-0.100181,-0.034208,0.029321
2026-01-18T19:44:28.152670,9.901499,-0.928415,1.378265,-0.084299,-0.048869,0.026878
2026-01-18T19:44:28.162670,10.030712,-0.990628,1.354337,-0.051312,-0.058643,0.028099
2026-01-18T19:44:28.171670,10.088140,-0.890130,1.387837,-0.007330,-0.048869,0.025656
2026-01-18T19:44:28.181670,10.083354,-0.760917,1.464407,0.020769,-0.024434,0.023212
2026-01-18T19:44:28.191670,9.954142,-0.684347,1.411765,0.023212,-0.003665,0.023212
2026-01-18T19:44:28.200670,9.786644,-0.669990,1.435693,0.013439,0.004886,0.025656
2026-01-18T19:44:28.210670,9.738787,-0.665204,1.373480,-0.008552,-0.004886,0.032986
2026-01-18T19:44:28.219670,9.681360,-0.746560,1.440479,-0.025656,-0.021991,0.036651
2026-01-18T19:44:28.229670,9.667003,-0.741775,1.435693,-0.024434,-0.042760,0.040317
2026-01-18T19:44:28.239670,9.844072,-0.789631,1.397408,-0.018325,-0.059864,0.043982
2026-01-18T19:44:28.248670,9.934999,-0.813559,1.373480,-0.012217,-0.064751,0.046425
2026-01-18T19:44:28.258670,10.016355,-0.775274,1.426122,0.001221,-0.054977,0.046425
2026-01-18T19:44:28.268670,10.059426,-0.813559,1.430907,0.008552,-0.036651,0.050090
2026-01-18T19:44:28.277670,10.059426,-0.775274,1.517049,0.004886,-0.013439,0.057421
2026-01-18T19:44:28.287670,9.978070,-0.732203,1.411765,0.001221,0.008552,0.061086
2026-01-18T19:44:28.296670,9.824929,-0.679561,1.426122,-0.009773,0.023212,0.064751
2026-01-18T19:44:28.306670,9.738787,-0.756131,1.397408,-0.029321,0.012217,0.065973
2026-01-18T19:44:28.316670,9.714859,-0.765703,1.440479,-0.041538,-0.008552,0.067195
2026-01-18T19:44:28.325670,9.690931,-0.789631,1.392622,-0.042760,-0.025656,0.067195
2026-01-18T19:44:28.335670,9.815358,-0.775274,1.502692,-0.036651,-0.039095,0.068416
2026-01-18T19:44:28.344670,9.839286,-0.808774,1.421336,-0.028099,-0.043982,0.067195
2026-01-18T19:44:28.354670,9.872786,-0.890130,1.354337,-0.009773,-0.042760,0.065973
2026-01-18T19:44:28.364670,9.925428,-0.856630,1.430907,0.017104,-0.034208,0.062308
2026-01-18T19:44:28.373670,9.882357,-0.803988,1.440479,0.031764,-0.025656,0.061086
2026-01-18T19:44:28.383670,9.810572,-0.746560,1.445264,0.040317,-0.020769,0.061086
2026-01-18T19:44:28.393670,9.748359,-0.717846,1.421336,0.037873,-0.020769,0.058643
2026-01-18T19:44:28.402670,9.877571,-0.669990,1.531406,0.024434,-0.028099,0.057421
2026-01-18T19:44:28.412670,9.801001,-0.713061,1.426122,0.018325,-0.032986,0.056199
2026-01-18T19:44:28.421670,9.882357,-0.746560,1.421336,0.018325,-0.031764,0.047647
2026-01-18T19:44:28.431670,9.824929,-0.751346,1.502692,0.023212,-0.024434,0.042760
2026-01-18T19:44:28.441670,9.824929,-0.689132,1.440479,0.019547,-0.021991,0.039095
2026-01-18T19:44:28.450670,9.834500,-0.650847,1.469193,0.004886,-0.023212,0.037873
2026-01-18T19:44:28.460670,9.853643,-0.689132,1.435693,-0.013439,-0.031764,0.039095
2026-01-18T19:44:28.469670,9.868000,-0.727418,1.426122,-0.032986,-0.041538,0.041538
2026-01-18T19:44:28.479670,9.958927,-0.746560,1.426122,-0.043982,-0.048869,0.045204
2026-01-18T19:44:28.489670,9.958927,-0.775274,1.531406,-0.041538,-0.043982,0.046425
2026-01-18T19:44:28.498670,9.968498,-0.799202,1.459621,-0.032986,-0.030543,0.045204
2026-01-18T19:44:28.508670,9.930213,-0.784845,1.483550,-0.009773,-0.014660,0.036651
2026-01-18T19:44:28.518670,9.824929,-0.708275,1.454836,0.015882,-0.009773,0.029321
2026-01-18T19:44:28.527670,9.729216,-0.674775,1.435693,0.023212,-0.010995,0.020769
2026-01-18T19:44:28.537670,9.738787,-0.684347,1.440479,0.024434,-0.028099,0.014660
2026-01-18T19:44:28.546670,9.781858,-0.646062,1.454836,0.012217,-0.048869,0.008552
2026-01-18T19:44:28.556670,9.920642,-0.693918,1.440479,-0.004886,-0.059864,0.002443
2026-01-18T19:44:28.566670,9.906285,-0.698704,1.426122,-0.015882,-0.059864,-0.001221
2026-01-18T19:44:28.575670,9.982855,-0.713061,1.426122,-0.023212,-0.051312,-0.001221
2026-01-18T19:44:28.585670,10.001998,-0.799202,1.397408,-0.026878,-0.043982,0.000000
2026-01-18T19:44:28.594670,9.944570,-0.741775,1.536192,-0.024434,-0.030543,-0.001221
2026-01-18T19:44:28.604670,9.877571,-0.717846,1.622333,-0.023212,-0.015882,0.001221
2026-01-18T19:44:28.614670,9.743573,-0.803988,1.536192,-0.020769,-0.009773,0.001221
2026-01-18T19:44:28.623670,9.595218,-0.746560,1.550549,-0.014660,-0.013439,-0.002443
2026-01-18T19:44:28.633670,9.580861,-0.775274,1.488335,-0.015882,-0.031764,-0.003665
2026-01-18T19:44:28.643670,9.681360,-0.851844,1.402194,-0.004886,-0.061086,-0.008552
2026-01-18T19:44:28.652670,9.868000,-0.813559,1.349551,0.014660,-0.087964,-0.014660
2026-01-18T19:44:28.662670,10.006784,-0.770488,1.454836,0.035430,-0.086742,-0.023212
2026-01-18T19:44:28.671670,10.116853,-0.693918,1.383051,0.053756,-0.058643,-0.025656
2026-01-18T19:44:28.681670,10.059426,-0.626919,1.493121,0.043982,-0.030543,-0.024434
2026-01-18T19:44:28.691670,9.978070,-0.612562,1.445264,0.020769,-0.013439,-0.015882
2026-01-18T19:44:28.700670,9.882357,-0.626919,1.502692,-0.013439,-0.008552,-0.008552
2026-01-18T19:44:28.710670,9.829715,-0.727418,1.454836,-0.043982,-0.017104,0.003665
2026-01-18T19:44:28.719670,9.781858,-0.741775,1.512263,-0.054977,-0.026878,0.010995
2026-01-18T19:44:28.729670,9.786644,-0.818345,1.454836,-0.041538,-0.035430,0.013439
2026-01-18T19:44:28.739670,9.781858,-0.813559,1.440479,-0.026878,-0.037873,0.015882
2026-01-18T19:44:28.748670,9.781858,-0.808774,1.483550,-0.004886,-0.040317,0.015882
2026-01-18T19:44:28.758670,9.824929,-0.808774,1.478764,0.020769,-0.047647,0.013439
2026-01-18T19:44:28.768670,9.920642,-0.741775,1.502692,0.031764,-0.056199,0.015882
2026-01-18T19:44:28.777670,9.982855,-0.631705,1.469193,0.030543,-0.056199,0.015882
2026-01-18T19:44:28.787670,9.987641,-0.660419,1.440479,0.024434,-0.046425,0.015882
2026-01-18T19:44:28.796670,9.944570,-0.545563,1.459621,0.007330,-0.030543,0.017104
2026-01-18T19:44:28.806670,9.872786,-0.622133,1.454836,-0.012217,-0.012217,0.021991
2026-01-18T19:44:28.816670,9.801001,-0.555134,1.502692,-0.032986,-0.004886,0.025656
2026-01-18T19:44:28.825670,9.753144,-0.636490,1.383051,-0.056199,-0.010995,0.025656
2026-01-18T19:44:28.835670,9.801001,-0.622133,1.426122,-0.073303,-0.021991,0.023212
2026-01-18T19:44:28.844670,9.815358,-0.684347,1.320838,-0.079412,-0.028099,0.023212
2026-01-18T19:44:28.854670,9.839286,-0.736989,1.359123,-0.078190,-0.028099,0.018325
2026-01-18T19:44:28.864670,9.839286,-0.823130,1.335195,-0.064751,-0.028099,0.012217
2026-01-18T19:44:28.873670,9.858429,-0.856630,1.402194,-0.045204,-0.023212,0.004886
2026-01-18T19:44:28.883670,9.834500,-0.770488,1.349551,-0.030543,-0.025656,0.001221
2026-01-18T19:44:28.893670,9.829715,-0.765703,1.402194,-0.013439,-0.034208,-0.002443
2026-01-18T19:44:28.902670,9.868000,-0.775274,1.402194,0.001221,-0.039095,-0.006108
2026-01-18T19:44:28.912670,9.877571,-0.717846,1.392622,-0.003665,-0.039095,-0.007330
2026-01-18T19:44:28.921670,9.848857,-0.717846,1.349551,-0.015882,-0.036651,-0.006108
2026-01-18T19:44:28.931670,9.824929,-0.717846,1.363908,-0.029321,-0.031764,-0.002443
2026-01-18T19:44:28.941670,9.738787,-0.818345,1.373480,-0.043982,-0.036651,0.000000
2026-01-18T19:44:28.950670,9.781858,-0.823130,1.335195,-0.042760,-0.046425,-0.003665
2026-01-18T19:44:28.960670,9.777073,-0.885344,1.387837,-0.032986,-0.057421,-0.007330
2026-01-18T19:44:28.969670,9.801001,-0.885344,1.363908,-0.019547,-0.067195,-0.010995
2026-01-18T19:44:28.979670,9.805787,-0.899701,1.440479,0.001221,-0.075747,-0.015882
2026-01-18T19:44:28.989670,9.968498,-0.808774,1.421336,0.014660,-0.080634,-0.018325
2026-01-18T19:44:28.998670,10.011569,-0.784845,1.450050,0.024434,-0.073303,-0.019547
2026-01-18T19:44:29.008670,10.011569,-0.813559,1.478764,0.031764,-0.054977,-0.017104
2026-01-18T19:44:29.018670,9.949356,-0.727418,1.435693,0.029321,-0.042760,-0.010995
2026-01-18T19:44:29.027670,9.958927,-0.684347,1.406979,0.008552,-0.037873,-0.001221
2026-01-18T19:44:29.037670,9.872786,-0.713061,1.430907,-0.019547,-0.042760,0.013439
2026-01-18T19:44:29.046670,9.925428,-0.727418,1.387837,-0.042760,-0.043982,0.021991
2026-01-18T19:44:29.056670,9.877571,-0.837487,1.363908,-0.057421,-0.040317,0.028099
2026-01-18T19:44:29.066670,9.839286,-0.880558,1.392622,-0.053756,-0.036651,0.031764
2026-01-18T19:44:29.075670,9.863214,-0.890130,1.435693,-0.039095,-0.039095,0.034208
2026-01-18T19:44:29.085670,9.844072,-0.880558,1.526620,-0.020769,-0.041538,0.031764
2026-01-18T19:44:29.094670,9.839286,-0.899701,1.540977,0.004886,-0.042760,0.023212
2026-01-18T19:44:29.104670,9.868000,-0.856630,1.454836,0.032986,-0.045204,0.019547
2026-01-18T19:44:29.114670,9.896714,-0.722632,1.512263,0.051312,-0.046425,0.015882
2026-01-18T19:44:29.123670,9.925428,-0.713061,1.445264,0.050090,-0.040317,0.018325
2026-01-18T19:44:29.133670,9.958927,-0.593420,1.454836,0.030543,-0.037873,0.026878
2026-01-18T19:44:29.143670,9.968498,-0.579063,1.469193,-0.001221,-0.031764,0.034208
2026-01-18T19:44:29.152670,9.920642,-0.602991,1.473978,-0.035430,-0.021991,0.045204
2026-01-18T19:44:29.162670,9.891928,-0.689132,1.459621,-0.067195,-0.009773,0.054977
2026-01-18T19:44:29.171670,9.815358,-0.803988,1.497906,-0.080634,-0.006108,0.058643
2026-01-18T19:44:29.181670,9.805787,-0.914058,1.445264,-0.078190,-0.013439,0.061086
2026-01-18T19:44:29.191670,9.786644,-0.976271,1.483550,-0.050090,-0.028099,0.056199
2026-01-18T19:44:29.200670,9.829715,-0.966700,1.526620,-0.004886,-0.037873,0.046425
2026-01-18T19:44:29.210670,9.887142,-0.837487,1.502692,0.036651,-0.037873,0.042760
2026-01-18T19:44:29.219670,9.973284,-0.713061,1.478764,0.056199,-0.032986,0.034208
2026-01-18T19:44:29.229670,9.896714,-0.626919,1.421336,0.056199,-0.018325,0.030543
2026-01-18T19:44:29.239670,9.815358,-0.521635,1.416550,0.036651,-0.002443,0.028099
2026-01-18T19:44:29.248670,9.738787,-0.497707,1.426122,0.003665,0.001221,0.031764
2026-01-18T19:44:29.258670,9.686145,-0.593420,1.454836,-0.028099,-0.012217,0.036651
2026-01-18T19:44:29.268670,9.753144,-0.617348,1.459621,-0.045204,-0.032986,0.042760
2026-01-18T19:44:29.277670,9.767501,-0.703489,1.426122,-0.052534,-0.043982,0.046425
2026-01-18T19:44:29.287670,9.911071,-0.741775,1.421336,-0.041538,-0.053756,0.043982
2026-01-18T19:44:29.296670,9.987641,-0.708275,1.440479,-0.024434,-0.046425,0.041538
2026-01-18T19:44:29.306670,9.982855,-0.689132,1.421336,-0.009773,-0.025656,0.029321
2026-01-18T19:44:29.316670,9.872786,-0.588634,1.349551,-0.004886,-0.003665,0.021991
2026-01-18T19:44:29.325670,9.824929,-0.602991,1.368694,-0.009773,0.006108,0.017104
2026-01-18T19:44:29.335670,9.753144,-0.492921,1.392622,-0.021991,-0.001221,0.013439
2026-01-18T19:44:29.344670,9.633503,-0.574277,1.339980,-0.036651,-0.017104,0.012217
2026-01-18T19:44:29.354670,9.738787,-0.564706,1.320838,-0.047647,-0.034208,0.008552
2026-01-18T19:44:29.364670,9.801001,-0.588634,1.306481,-0.047647,-0.046425,0.007330
2026-01-18T19:44:29.373670,9.891928,-0.646062,1.349551,-0.042760,-0.051312,0.004886
2026-01-18T19:44:29.383670,9.930213,-0.646062,1.339980,-0.039095,-0.043982,0.007330
2026-01-18T19:44:29.393670,9.877571,-0.636490,1.387837,-0.030543,-0.034208,0.002443
2026-01-18T19:44:29.402670,9.805787,-0.598205,1.349551,-0.031764,-0.020769,0.006108
2026-01-18T19:44:29.412670,9.757930,-0.674775,1.320838,-0.032986,-0.014660,0.003665
2026-01-18T19:44:29.421670,9.686145,-0.631705,1.320838,-0.026878,-0.024434,0.001221
2026-01-18T19:44:29.431670,9.700502,-0.617348,1.220339,-0.023212,-0.052534,-0.003665
2026-01-18T19:44:29.441670,9.839286,-0.622133,1.272981,-0.018325,-0.081855,-0.010995
2026-01-18T19:44:29.450670,10.025926,-0.622133,1.339980,-0.015882,-0.085521,-0.021991
2026-01-18T19:44:29.460670,10.078568,-0.622133,1.354337,-0.015882,-0.067195,-0.032986
2026-01-18T19:44:29.469670,10.054640,-0.617348,1.335195,-0.010995,-0.039095,-0.043982
2026-01-18T19:44:29.479670,9.954142,-0.579063,1.320838,-0.006108,-0.019547,-0.046425
2026-01-18T19:44:29.489670,9.829715,-0.579063,1.325623,-0.006108,-0.019547,-0.050090
2026-01-18T19:44:29.498670,9.757930,-0.555134,1.392622,-0.009773,-0.042760,-0.048869
2026-01-18T19:44:29.508670,9.781858,-0.612562,1.392622,-0.017104,-0.064751,-0.047647
2026-01-18T19:44:29.518670,9.877571,-0.545563,1.521835,-0.026878,-0.072082,-0.047647
2026-01-18T19:44:29.527670,9.915856,-0.531206,1.450050,-0.037873,-0.065973,-0.051312
2026-01-18T19:44:29.537670,9.939785,-0.636490,1.497906,-0.048869,-0.063529,-0.053756
2026-01-18T19:44:29.546670,9.906285,-0.741775,1.478764,-0.042760,-0.059864,-0.056199
2026-01-18T19:44:29.556670,9.954142,-0.751346,1.497906,-0.019547,-0.058643,-0.059864
2026-01-18T19:44:29.566670,9.978070,-0.713061,1.483550,0.003665,-0.052534,-0.062308
2026-01-18T19:44:29.575670,9.925428,-0.622133,1.540977,0.019547,-0.047647,-0.059864
2026-01-18T19:44:29.585670,9.930213,-0.569491,1.469193,0.019547,-0.047647,-0.059864
2026-01-18T19:44:29.594670,9.968498,-0.526420,1.469193,0.008552,-0.041538,-0.054977
2026-01-18T19:44:29.604670,9.901499,-0.502492,1.569691,-0.014660,-0.034208,-0.048869
2026-01-18T19:44:29.614670,9.949356,-0.507278,1.536192,-0.041538,-0.030543,-0.043982
2026-01-18T19:44:29.623670,9.906285,-0.526420,1.521835,-0.061086,-0.028099,-0.040317
2026-01-18T19:44:29.633670,9.944570,-0.569491,1.521835,-0.070860,-0.026878,-0.041538
2026-01-18T19:44:29.643670,9.915856,-0.684347,1.512263,-0.065973,-0.024434,-0.041538
2026-01-18T19:44:29.652670,9.896714,-0.732203,1.497906,-0.051312,-0.021991,-0.045204
2026-01-18T19:44:29.662670,9.911071,-0.698704,1.483550,-0.039095,-0.015882,-0.043982
2026-01-18T19:44:29.671670,9.858429,-0.665204,1.555334,-0.025656,-0.012217,-0.045204
2026-01-18T19:44:29.681670,9.839286,-0.588634,1.459621,-0.013439,-0.009773,-0.046425
2026-01-18T19:44:29.691670,9.738787,-0.569491,1.411765,-0.013439,-0.012217,-0.048869
2026-01-18T19:44:29.700670,9.772287,-0.612562,1.440479,-0.015882,-0.019547,-0.053756
2026-01-18T19:44:29.710670,9.796215,-0.612562,1.402194,-0.014660,-0.019547,-0.059864
2026-01-18T19:44:29.719670,9.815358,-0.650847,1.387837,-0.012217,-0.023212,-0.064751
2026-01-18T19:44:29.729670,9.820143,-0.636490,1.363908,-0.009773,-0.035430,-0.072082
2026-01-18T19:44:29.739670,9.925428,-0.617348,1.354337,-0.010995,-0.056199,-0.075747
2026-01-18T19:44:29.748670,10.116853,-0.722632,1.330409,-0.013439,-0.070860,-0.076969
2026-01-18T19:44:29.758670,10.169496,-0.717846,1.373480,-0.010995,-0.061086,-0.076969
2026-01-18T19:44:29.768670,10.198209,-0.713061,1.359123,-0.012217,-0.036651,-0.072082
2026-01-18T19:44:29.777670,10.045069,-0.713061,1.387837,-0.018325,-0.010995,-0.068416
2026-01-18T19:44:29.787670,9.887142,-0.713061,1.363908,-0.020769,0.003665,-0.062308
2026-01-18T19:44:29.796670,9.724431,-0.784845,1.435693,-0.012217,-0.001221,-0.058643
2026-01-18T19:44:29.806670,9.595218,-0.746560,1.435693,0.017104,-0.023212,-0.062308
2026-01-18T19:44:29.816670,9.499505,-0.732203,1.426122,0.036651,-0.054977,-0.065973
2026-01-18T19:44:29.825670,9.623932,-0.803988,1.397408,0.059864,-0.089186,-0.072082
2026-01-18T19:44:29.835670,9.786644,-0.722632,1.493121,0.098960,-0.114842,-0.083077
2026-01-18T19:44:29.844670,9.934999,-0.674775,1.473978,0.129503,-0.112399,-0.090408
2026-01-18T19:44:29.854670,10.021141,-0.502492,1.426122,0.140498,-0.089186,-0.096516
2026-01-18T19:44:29.864670,9.968498,-0.425922,1.378265,0.128281,-0.064751,-0.096516
2026-01-18T19:44:29.873670,9.901499,-0.411565,1.536192,0.097738,-0.048869,-0.092851
2026-01-18T19:44:29.883670,9.791430,-0.435493,1.435693,0.072082,-0.052534,-0.086742
2026-01-18T19:44:29.893670,9.714859,-0.459421,1.497906,0.061086,-0.062308,-0.084299
2026-01-18T19:44:29.902670,9.781858,-0.459421,1.526620,0.064751,-0.089186,-0.084299
2026-01-18T19:44:29.912670,9.877571,-0.473778,1.421336,0.075747,-0.112399,-0.086742
2026-01-18T19:44:29.921670,10.006784,-0.430708,1.330409,0.101403,-0.117286,-0.094073
2026-01-18T19:44:29.931670,10.006784,-0.392422,1.311266,0.138055,-0.100181,-0.103847
2026-01-18T19:44:29.941670,10.006784,-0.301495,1.249053,0.163711,-0.073303,-0.117286
2026-01-18T19:44:29.950670,9.834500,-0.220139,1.339980,0.174707,-0.052534,-0.127059
2026-01-18T19:44:29.960670,9.743573,-0.129212,1.253839,0.171042,-0.057421,-0.133168
2026-01-18T19:44:29.969670,9.638289,-0.172283,1.316052,0.160046,-0.079412,-0.140498
2026-01-18T19:44:29.979670,9.676574,-0.148355,1.292124,0.151494,-0.108733,-0.145385
2026-01-18T19:44:29.989670,9.829715,-0.009571,1.373480,0.140498,-0.123394,-0.149051
2026-01-18T19:44:29.998670,9.978070,-0.033499,1.430907,0.127059,-0.118507,-0.153938
2026-01-18T19:44:30.008670,9.944570,-0.052642,1.378265,0.120951,-0.101403,-0.158824
2026-01-18T19:44:30.018670,9.858429,-0.057427,1.421336,0.118507,-0.085521,-0.166155
2026-01-18T19:44:30.027670,9.863214,0.076570,1.344766,0.112399,-0.078190,-0.173485
2026-01-18T19:44:30.037670,9.772287,0.033499,1.335195,0.108733,-0.084299,-0.189368
2026-01-18T19:44:30.046670,9.700502,0.000000,1.359123,0.105068,-0.096516,-0.205250
2026-01-18T19:44:30.056670,9.729216,-0.066999,1.402194,0.098960,-0.106290,-0.221133
2026-01-18T19:44:30.066670,9.590432,-0.119641,1.607976,0.101403,-0.101403,-0.244346
2026-01-18T19:44:30.075670,9.446863,-0.234496,1.722832,0.119729,-0.083077,-0.276111
2026-01-18T19:44:30.085670,9.178867,-0.325423,1.761117,0.149051,-0.062308,-0.315206
2026-01-18T19:44:30.094670,8.805587,-0.492921,1.842473,0.188146,-0.046425,-0.354301
2026-01-18T19:44:30.104670,8.394021,-0.713061,1.861615,0.229685,-0.040317,-0.394618
2026-01-18T19:44:30.114670,8.082954,-1.000199,1.962114,0.259006,-0.048869,-0.423940
2026-01-18T19:44:30.123670,7.920242,-1.277767,2.081755,0.295658,-0.092851,-0.438601
2026-01-18T19:44:30.133670,7.996813,-1.478764,2.196611,0.350636,-0.163711,-0.441044
2026-01-18T19:44:30.143670,8.121239,-1.612762,2.158325,0.436157,-0.210137,-0.447153
2026-01-18T19:44:30.152670,8.303094,-1.454836,2.110469,0.526565,-0.188146,-0.450818
2026-01-18T19:44:30.162670,8.173882,-1.272981,2.000399,0.561995,-0.111177,-0.442266
2026-01-18T19:44:30.171670,7.805387,-1.258624,1.852044,0.552222,-0.010995,-0.417831
2026-01-18T19:44:30.181670,7.140182,-1.249053,2.364108,0.546113,0.069638,-0.375071
2026-01-18T19:44:30.191670,6.527620,-1.397408,2.780459,0.515570,0.106290,-0.299323
2026-01-18T19:44:30.200670,6.053841,-1.598405,3.005385,0.458148,0.116064,-0.194255
2026-01-18T19:44:30.210670,5.718846,-1.895115,3.115455,0.445931,0.135612,-0.083077
2026-01-18T19:44:30.219670,5.469992,-2.014756,3.139383,0.461814,0.185702,0.032986
2026-01-18T19:44:30.229670,5.058426,-2.201396,3.163311,0.503352,0.256563,0.147829
2026-01-18T19:44:30.239670,4.723431,-2.096112,3.000599,0.571769,0.334754,0.263893
2026-01-18T19:44:30.248670,4.421936,-1.866401,2.665604,0.619417,0.387288,0.378736
2026-01-18T19:44:30.258670,4.125226,-1.540977,2.545963,0.627969,0.408057,0.492357
2026-01-18T19:44:30.268670,4.101297,-1.191625,2.100898,0.565661,0.409279,0.604756
2026-01-18T19:44:30.277670,4.101297,-1.110269,2.033899,0.408057,0.397062,0.719599
2026-01-18T19:44:30.287670,4.321437,-1.497906,2.019542,0.201585,0.354301,0.853989
2026-01-18T19:44:30.296670,4.737788,-2.163111,2.172682,-0.006108,0.299323,1.016479
2026-01-18T19:44:30.306670,5.374279,-3.091526,2.268395,-0.153938,0.278554,1.189965
2026-01-18T19:44:30.316670,5.852844,-4.053441,2.062613,-0.182037,0.321315,1.369559
2026-01-18T19:44:30.325670,6.082555,-4.713860,1.823330,-0.047647,0.400727,1.522275
2026-01-18T19:44:30.335670,6.197410,-4.838287,1.392622,0.191811,0.450818,1.638340
2026-01-18T19:44:30.344670,6.264409,-4.603790,1.124626,0.423940,0.439822,1.715309
2026-01-18T19:44:30.354670,6.441478,-4.225724,0.976271,0.575434,0.397062,1.773952
2026-01-18T19:44:30.364670,6.800401,-4.029513,1.014556,0.614530,0.354301,1.843590
2026-01-18T19:44:30.373670,7.336394,-4.067798,0.961914,0.575434,0.324980,1.925446
2026-01-18T19:44:30.383670,7.709674,-4.039084,0.981057,0.524122,0.346971,2.013411
2026-01-18T19:44:30.393670,8.030312,-3.986442,1.119840,0.475253,0.437379,2.096489
2026-01-18T19:44:30.402670,8.011170,-3.761517,1.354337,0.395840,0.542448,2.195449
2026-01-18T19:44:30.412670,7.786244,-3.742374,1.483550,0.261450,0.618195,2.339613
2026-01-18T19:44:30.421670,7.546962,-3.919443,1.617548,0.185702,0.670729,2.465451
2026-01-18T19:44:30.431670,7.432106,-4.335794,1.808973,0.155159,0.704938,2.596176
2026-01-18T19:44:30.441670,7.484749,-4.819144,1.981257,0.172263,0.696386,2.715906
2026-01-18T19:44:30.450670,7.795816,-5.235495,1.962114,0.233350,0.626747,2.840522
2026-01-18T19:44:30.460670,8.547162,-5.402993,2.096112,0.296880,0.531452,2.962695
2026-01-18T19:44:30.469670,9.542576,-5.436492,2.277967,0.351858,0.466700,3.092199
2026-01-18T19:44:30.479670,10.346564,-5.245067,2.129612,0.351858,0.482583,3.216815
2026-01-18T19:44:30.489670,11.088339,-5.082355,2.019542,0.299323,0.582765,3.338988
2026-01-18T19:44:30.498670,11.313265,-5.039284,2.000399,0.228463,0.731816,3.444057
2026-01-18T19:44:30.508670,11.241480,-5.130211,2.565105,0.188146,0.888197,3.521026
2026-01-18T19:44:30.518670,11.179267,-5.460421,3.555734,0.207694,1.036027,3.577226
2026-01-18T19:44:30.527670,11.274980,-6.273980,3.507877,0.237015,1.207069,3.608991
2026-01-18T19:44:30.537670,11.088339,-7.288537,3.412165,0.401949,1.429424,3.615099
2026-01-18T19:44:30.546670,10.700702,-7.652246,2.818745,0.742811,1.576031,3.622430
2026-01-18T19:44:30.556670,10.246066,-7.460820,2.723032,1.092226,1.606575,3.619986
2026-01-18T19:44:30.566670,9.872786,-6.446264,2.584248,1.291368,1.563814,3.638312
2026-01-18T19:44:30.575670,9.638289,-5.091926,2.890529,1.167974,1.445306,3.715281
2026-01-18T19:44:30.585670,9.671788,-3.842873,3.589233,0.707381,1.260825,3.826459
2026-01-18T19:44:30.594670,10.025926,-3.589233,4.335794,0.052534,1.105665,3.927862
2026-01-18T19:44:30.604670,10.336993,-4.575076,5.178068,-0.592539,1.050687,3.987727
2026-01-18T19:44:30.614670,10.523633,-6.293123,5.876772,-0.905302,1.103222,3.964514
2026-01-18T19:44:30.623670,10.442277,-8.106882,5.436492,-0.954171,1.221730,3.942523
2026-01-18T19:44:30.633670,9.954142,-10.064211,4.173082,-0.779463,1.363450,3.909536
2026-01-18T19:44:30.643670,9.245866,-11.547761,3.263810,-0.265115,1.433089,3.836232
2026-01-18T19:44:30.652670,8.484948,-12.011969,2.512463,0.395840,1.368337,3.758042
2026-01-18T19:44:30.662670,7.671389,-11.705688,1.880758,1.020144,1.191186,3.676186
2026-01-18T19:44:30.671670,7.211967,-10.351350,2.603390,1.505171,0.933401,3.578447
2026-01-18T19:44:30.681670,7.317251,-8.982656,3.594019,1.616349,0.610865,3.489261
2026-01-18T19:44:30.691670,8.044669,-8.173882,5.527420,1.451415,0.299323,3.379305
2026-01-18T19:44:30.700670,9.202795,-7.738388,6.470192,1.139874,0.167377,3.257132
2026-01-18T19:44:30.710670,9.915856,-8.221738,6.183053,0.659734,0.304210,3.120298
2026-01-18T19:44:30.719670,9.652646,-9.379864,5.402993,0.279776,0.608421,2.927265
2026-01-18T19:44:30.729670,8.413164,-10.198209,4.867001,0.125838,0.905302,2.737897
2026-01-18T19:44:30.739670,6.671189,-10.858628,4.843072,0.073303,1.006705,2.581515
2026-01-18T19:44:30.748670,5.249852,-11.112268,4.934000,0.174707,0.847880,2.411695
2026-01-18T19:44:30.758670,4.488935,-10.968698,5.240281,0.382401,0.516791,2.212553
2026-01-18T19:44:30.768670,4.599005,-10.844272,5.465206,0.455705,0.146607,2.067167
2026-01-18T19:44:30.777670,5.517848,-10.671988,6.599404,0.590095,-0.101403,1.872912
2026-01-18T19:44:30.787670,6.455835,-10.231709,7.350751,0.702494,-0.139277,1.662774
2026-01-18T19:44:30.796670,6.824330,-10.183852,7.427321,0.637743,0.059864,1.453858
2026-01-18T19:44:30.806670,6.317051,-9.982855,7.953742,0.627969,0.400727,1.164308
2026-01-18T19:44:30.816670,5.144568,-9.734002,7.877171,0.500909,0.687834,0.860098
2026-01-18T19:44:30.825670,3.919443,-10.207781,7.470392,0.152716,0.777020,0.596204
2026-01-18T19:44:30.835670,2.991028,-10.705488,7.446463,-0.006108,0.701273,0.265115
2026-01-18T19:44:30.844670,2.483749,-10.475777,7.465606,0.019547,0.529009,-0.124616
2026-01-18T19:44:30.854670,2.292324,-9.729216,6.910471,0.006108,0.321315,-0.502131
2026-01-18T19:44:30.864670,2.306680,-8.432306,6.369693,-0.063529,0.116064,-0.888197
2026-01-18T19:44:30.873670,2.450250,-7.374679,6.044269,-0.316428,-0.108733,-1.259603
2026-01-18T19:44:30.883670,2.842673,-7.125825,5.556134,-0.835663,-0.377514,-1.598023
2026-01-18T19:44:30.893670,3.651447,-7.867600,5.374279,-1.412320,-0.685390,-1.921781
2026-01-18T19:44:30.902670,5.111069,-9.221938,5.359922,-1.860695,-1.005483,-2.255313
2026-01-18T19:44:30.912670,6.967899,-10.949556,5.422136,-2.183231,-1.271821,-2.543642
2026-01-18T19:44:30.921670,8.834301,-12.705888,5.216353,-2.149023,-1.407433,-2.825862
2026-01-18T19:44:30.931670,10.351350,-13.308879,5.498706,-1.648114,-1.346346,-3.160616
2026-01-18T19:44:30.941670,10.868200,-12.772887,5.321637,-0.948062,-1.081231,-3.468492
2026-01-18T19:44:30.950670,10.274780,-11.356336,4.953142,-0.324980,-0.739146,-3.723833
2026-01-18T19:44:30.960670,9.054440,-9.628718,5.139782,0.136833,-0.513126,-3.987727
2026-01-18T19:44:30.969670,7.757530,-8.102097,5.000999,0.295658,-0.538783,-4.190534
2026-01-18T19:44:30.979670,6.939185,-7.417750,4.498506,0.141720,-0.829554,-4.312707
2026-01-18T19:44:30.989670,7.211967,-7.470392,3.809373,-0.257785,-1.280373,-4.346916
2026-01-18T19:44:30.998670,8.159525,-8.025527,3.479164,-0.735481,-1.759291,-4.371350
2026-01-18T19:44:31.008670,9.824929,-8.355736,3.905086,-1.091005,-2.175901,-4.422663
2026-01-18T19:44:31.018670,11.877971,-8.628518,4.771288,-1.301142,-2.426356,-4.503297
2026-01-18T19:44:31.027670,14.012369,-9.140582,4.867001,-1.457524,-2.405586,-4.505741
2026-01-18T19:44:31.037670,15.270993,-9.844072,4.144368,-1.420872,-2.076941,-4.500854
2026-01-18T19:44:31.046670,15.280565,-10.236495,3.560520,-1.154535,-1.516167,-4.524067
2026-01-18T19:44:31.056670,13.744373,-10.284351,2.900100,-0.783129,-0.943175,-4.565605
2026-01-18T19:44:31.066670,11.542976,-10.068997,2.598605,-0.382401,-0.618195,-4.592483
2026-01-18T19:44:31.075670,9.365507,-9.260223,1.636690,0.045204,-0.631634,-4.647461
2026-01-18T19:44:31.085670,7.953742,-8.015955,1.339980,0.377514,-0.982271,-4.657235
2026-01-18T19:44:31.094670,7.910671,-6.235695,0.995414,0.491135,-1.571145,-4.618140
2026-01-18T19:44:31.104670,9.140582,-4.579862,0.468993,0.400727,-2.163684,-4.555831
2026-01-18T19:44:31.114670,11.112268,-3.211167,1.804188,0.217467,-2.592511,-4.531397
2026-01-18T19:44:31.123670,13.562518,-2.254038,3.637090,-0.081855,-2.795318,-4.483749
2026-01-18T19:44:31.133670,16.118053,-2.541177,4.163511,-0.608421,-2.746449,-4.305377
2026-01-18T19:44:31.143670,17.950954,-4.034298,4.019941,-1.009149,-2.322509,-4.138000
2026-01-18T19:44:31.152670,17.730816,-5.565705,2.967100,-1.094670,-1.556484,-3.998723
2026-01-18T19:44:31.162670,15.658631,-6.412764,1.756331,-0.877202,-0.744033,-3.925419
2026-01-18T19:44:31.171670,12.524033,-6.005984,0.851844,-0.437379,-0.241902,-3.891210
2026-01-18T19:44:31.181670,9.542576,-4.771288,-0.378065,-0.004886,-0.190589,-3.855780
2026-01-18T19:44:31.191670,7.771887,-3.584448,0.095712,0.211359,-0.572991,-3.792250
2026-01-18T19:44:31.200670,7.767102,-2.612962,0.583848,0.193033,-1.187521,-3.646864
2026-01-18T19:44:31.210670,9.336793,-1.904686,0.851844,-0.007330,-1.749517,-3.461161
2026-01-18T19:44:31.219670,11.590832,-1.531406,1.110269,-0.272445,-2.003637,-3.249802
2026-01-18T19:44:31.229670,13.261022,-1.325623,1.225125,-0.568104,-1.853364,-3.022560
2026-01-18T19:44:31.239670,13.552947,-1.115055,1.545763,-0.850324,-1.422093,-2.809979
2026-01-18T19:44:31.248670,12.571889,-0.890130,2.196611,-1.059240,-0.930958,-2.616946
2026-01-18T19:44:31.258670,10.911271,-0.775274,2.608176,-1.284038,-0.576656,-2.437351
2026-01-18T19:44:31.268670,9.312865,-1.421336,2.220539,-1.467297,-0.441044,-2.260200
2026-01-18T19:44:31.277670,8.355736,-2.029113,2.014756,-1.417207,-0.450818,-2.149023
2026-01-18T19:44:31.287670,7.858029,-2.378465,1.359123,-1.208291,-0.503352,-2.096489
2026-01-18T19:44:31.296670,7.489534,-2.368894,0.602991,-0.946840,-0.570548,-2.080606
2026-01-18T19:44:31.306670,7.470392,-2.038684,0.062213,-0.654847,-0.664621,-2.075719
2026-01-18T19:44:31.316670,7.872386,-1.569691,-0.081355,-0.452040,-0.795346,-2.048841
2026-01-18T19:44:31.325670,8.484948,-1.354337,-0.311066,-0.357966,-0.899193,-1.992641
2026-01-18T19:44:31.335670,9.097511,-1.249053,-0.354137,-0.249232,-0.897971,-1.941329
2026-01-18T19:44:31.344670,9.456434,-1.119840,-0.263210,-0.112399,-0.767246,-1.901012
2026-01-18T19:44:31.354670,9.078368,-0.780060,-0.267996,-0.031764,-0.575434,-1.830151
2026-01-18T19:44:31.364670,8.365307,-0.325423,0.114855,0.021991,-0.421496,-1.742187
2026-01-18T19:44:31.373670,7.551748,0.224925,0.794417,0.041538,-0.350636,-1.649335
2026-01-18T19:44:31.383670,6.886543,0.727418,0.947557,-0.065973,-0.328645,-1.546710
2026-01-18T19:44:31.393670,6.235695,0.789631,0.832702,-0.261450,-0.302989,-1.436754
2026-01-18T19:44:31.402670,5.541777,0.803988,0.746560,-0.492357,-0.250454,-1.332907
2026-01-18T19:44:31.412670,4.689932,0.526420,0.736989,-0.755029,-0.193033,-1.230282
2026-01-18T19:44:31.421670,3.976871,0.004785,0.794417,-0.992044,-0.177150,-1.137430
2026-01-18T19:44:31.431670,3.354737,-0.727418,0.890130,-1.125213,-0.218689,-1.054353
2026-01-18T19:44:31.441670,3.096312,-1.387837,0.933200,-1.122770,-0.331088,-0.983492
2026-01-18T19:44:31.450670,3.153740,-1.713260,0.909272,-0.977384,-0.455705,-0.910189
2026-01-18T19:44:31.460670,3.201596,-1.890329,0.918843,-0.747698,-0.513126,-0.861319
2026-01-18T19:44:31.469670,3.201596,-1.789831,0.837487,-0.521678,-0.453261,-0.808785
2026-01-18T19:44:31.479670,3.010170,-1.598405,0.952343,-0.290771,-0.335975,-0.759916
2026-01-18T19:44:31.489670,2.579462,-1.349551,1.172483,-0.103847,-0.228463,-0.725707
2026-01-18T19:44:31.498670,2.153540,-1.373480,1.038485,0.017104,-0.194255,-0.679282
2026-01-18T19:44:31.508670,2.148754,-1.373480,1.048056,0.124616,-0.271224,-0.625525
2026-01-18T19:44:31.518670,2.651247,-1.115055,1.426122,0.217467,-0.454483,-0.566882
2026-01-18T19:44:31.527670,3.809373,-0.851844,1.612762,0.252898,-0.657290,-0.496022
2026-01-18T19:44:31.537670,5.297709,-0.708275,1.612762,0.240680,-0.755029,-0.434935
2026-01-18T19:44:31.546670,6.695117,-0.636490,1.751546,0.162490,-0.712268,-0.379958
2026-01-18T19:44:31.556670,7.867600,-0.660419,1.698904,0.002443,-0.580321,-0.291993
2026-01-18T19:44:31.566670,8.810372,-0.885344,1.722832,-0.215024,-0.422718,-0.172263
2026-01-18T19:44:31.575670,9.509077,-1.215553,2.091326,-0.443488,-0.291993,-0.028099
2026-01-18T19:44:31.585670,10.155139,-1.612762,2.373680,-0.648738,-0.205250,0.134390
2026-01-18T19:44:31.594670,10.748559,-2.182254,2.349751,-0.801455,-0.151494,0.312762
2026-01-18T19:44:31.604670,11.389835,-2.612962,2.364108,-0.845437,-0.091629,0.485026
2026-01-18T19:44:31.614670,11.724830,-2.813959,2.665604,-0.773355,0.057421,0.641408
2026-01-18T19:44:31.623670,11.495119,-3.010170,3.158525,-0.641408,0.320093,0.799011
2026-01-18T19:44:31.633670,10.470991,-3.172882,3.058027,-0.439822,0.646295,0.950506
2026-01-18T19:44:31.643670,8.896514,-3.220739,2.689532,-0.208915,0.951727,1.108109
2026-01-18T19:44:31.652670,7.121040,-3.244667,2.598605,0.020769,1.143539,1.273042
2026-01-18T19:44:31.662670,5.508277,-3.373879,2.670390,0.273667,1.208291,1.457524
2026-01-18T19:44:31.671670,4.101297,-2.967100,3.129811,0.549778,1.186300,1.643227
2026-01-18T19:44:31.681670,3.034099,-2.297109,3.239881,0.748920,1.091005,1.836260
2026-01-18T19:44:31.691670,2.617747,-1.651047,3.464807,0.823446,0.935845,2.028072
2026-01-18T19:44:31.700670,2.909672,-1.038485,3.364308,0.789237,0.769690,2.221105
2026-01-18T19:44:31.710670,3.761517,-0.521635,2.995813,0.665842,0.643851,2.408030
2026-01-18T19:44:31.719670,4.938785,-0.272781,2.756531,0.454483,0.614530,2.575407
2026-01-18T19:44:31.729670,6.001199,-0.550349,2.143969,0.195476,0.693942,2.737897
2026-01-18T19:44:31.739670,6.680760,-1.172483,1.713260,0.021991,0.874758,2.861292
2026-01-18T19:44:31.748670,6.853043,-1.770688,1.105484,0.013439,1.056796,2.957808
2026-01-18T19:44:31.758670,6.829115,-2.325823,1.215553,0.130725,1.170417,3.038443
2026-01-18T19:44:31.768670,6.891329,-2.636890,1.100698,0.335975,1.200960,3.106859
2026-01-18T19:44:31.777670,6.924828,-2.656033,0.416351,0.591317,1.192408,3.174055
2026-01-18T19:44:31.787670,7.106683,-2.340180,0.110069,0.834441,1.153313,3.230254
2026-01-18T19:44:31.796670,7.231109,-1.875972,-0.095712,0.989601,1.097113,3.285232
2026-01-18T19:44:31.806670,7.460820,-1.483550,-0.583848,1.015257,1.025031,3.337766
2026-01-18T19:44:31.816670,7.834101,-1.339980,-0.387637,0.967610,0.929736,3.364645
2026-01-18T19:44:31.825670,8.370093,-1.373480,-0.253639,0.863763,0.822224,3.391523
2026-01-18T19:44:31.835670,8.958727,-1.775474,-0.334995,0.758694,0.746477,3.406183
2026-01-18T19:44:31.844670,9.700502,-2.316252,-0.200997,0.748920,0.708603,3.409849
2026-01-18T19:44:31.854670,10.365707,-2.598605,-0.105284,0.801455,0.682947,3.418401
2026-01-18T19:44:31.864670,11.107482,-2.684746,-0.492921,0.869871,0.695164,3.435505
2026-01-18T19:44:31.873670,11.413763,-2.435893,-0.727418,0.940732,0.778242,3.463605
2026-01-18T19:44:31.883670,11.380264,-2.029113,-0.914058,0.946840,0.937067,3.501478
2026-01-18T19:44:31.893670,10.767701,-1.813759,-1.095912,0.856432,1.103222,3.560121
2026-01-18T19:44:31.902670,9.801001,-1.765903,-0.559920,0.701273,1.180191,3.632203
2026-01-18T19:44:31.912670,9.064012,-1.909472,0.277567,0.469144,1.083674,3.716503
2026-01-18T19:44:31.921670,9.087940,-2.679961,0.870987,0.162490,0.797789,3.830124
2026-01-18T19:44:31.931670,10.317851,-4.024727,1.225125,-0.008552,0.466700,3.907093
2026-01-18T19:44:31.941670,11.983255,-5.651846,1.550549,0.032986,0.306654,3.926640
2026-01-18T19:44:31.950670,13.462019,-7.293323,1.172483,0.265115,0.349414,3.922975
2026-01-18T19:44:31.960670,14.342578,-8.350950,0.272781,0.696386,0.541226,3.942523
2026-01-18T19:44:31.969670,14.428720,-8.551947,0.033499,1.191186,0.818559,3.977953
2026-01-18T19:44:31.979670,13.782658,-7.829315,0.181854,1.478293,1.050687,4.074470
2026-01-18T19:44:31.989670,12.696316,-6.752545,0.354137,1.413541,1.131322,4.216190
2026-01-18T19:44:31.998670,11.791829,-6.340979,0.756131,0.988379,1.001818,4.371350
2026-01-18T19:44:32.008670,11.547761,-7.197610,1.679761,0.333532,0.667064,4.553388
2026-01-18T19:44:32.018670,12.495319,-9.207581,2.172682,-0.293215,0.233350,4.791625
2026-01-18T19:44:32.027670,14.079368,-11.217552,2.608176,-0.486248,-0.074525,5.021311
2026-01-18T19:44:32.037670,15.634702,-11.830114,3.460021,-0.157603,-0.053756,5.148371
2026-01-18T19:44:32.046670,16.319050,-11.586047,3.273381,0.410501,0.338419,5.235114
2026-01-18T19:44:32.056670,15.582060,-10.442277,2.732603,1.031140,0.943175,5.279096
2026-01-18T19:44:32.066670,13.529018,-8.628518,2.019542,1.522275,1.483180,5.259548
2026-01-18T19:44:32.075670,11.227123,-6.853043,1.765903,1.689652,1.765400,5.214344
2026-01-18T19:44:32.085670,9.092725,-5.852844,2.230110,1.503949,1.738522,5.128823
2026-01-18T19:44:32.094670,7.704888,-5.800201,3.024527,1.169195,1.523497,4.989546
2026-01-18T19:44:32.104670,6.929614,-6.264409,3.876372,0.886976,1.269377,4.784295
2026-01-18T19:44:32.114670,6.608976,-6.824330,4.378865,0.800233,1.075122,4.531397
2026-01-18T19:44:32.123670,6.312266,-7.259823,5.005784,0.963945,0.965166,4.234516
2026-01-18T19:44:32.133670,5.977270,-7.015755,5.632704,1.247386,0.911410,3.897319
2026-01-18T19:44:32.143670,5.508277,-6.269195,5.704489,1.436754,0.874758,3.580891
2026-01-18T19:44:32.152670,4.972285,-5.541777,5.809773,1.492954,0.841772,3.210707
2026-01-18T19:44:32.162670,4.359722,-5.221138,6.025127,1.287703,0.822224,2.874731
2026-01-18T19:44:32.171670,3.728017,-5.790630,6.187839,0.879645,0.836885,2.561968
2026-01-18T19:44:32.181670,2.947957,-6.848258,6.494120,0.422718,0.841772,2.279748
2026-01-18T19:44:32.191670,2.182254,-8.130811,7.278966,0.075747,0.800233,1.948659
2026-01-18T19:44:32.200670,1.531406,-9.346365,7.704888,-0.167377,0.712268,1.634675
2026-01-18T19:44:32.210670,1.067198,-10.336993,7.872386,-0.324980,0.609643,1.339016
2026-01-18T19:44:32.219670,0.751346,-10.695917,7.585247,-0.437379,0.494800,1.069013
2026-01-18T19:44:32.229670,0.583848,-10.542776,6.910471,-0.521678,0.377514,0.781907
2026-01-18T19:44:32.239670,0.507278,-10.011569,6.446264,-0.649960,0.263893,0.464257
2026-01-18T19:44:32.248670,0.521635,-9.753144,6.096911,-0.874758,0.150272,0.138055
2026-01-18T19:44:32.258670,0.689132,-10.030712,6.460621,-1.044579,0.052534,-0.268780
2026-01-18T19:44:32.268670,1.210768,-10.935199,6.881757,-1.149648,-0.051312,-0.741590
2026-01-18T19:44:32.277670,2.153540,-12.610175,6.135197,-1.263269,-0.185702,-1.131322
2026-01-18T19:44:32.287670,3.220739,-14.342578,5.264209,-1.093448,-0.289550,-1.587027
2026-01-18T19:44:32.296670,4.153940,-15.237494,4.670789,-0.613308,-0.346971,-2.068389
2026-01-18T19:44:32.306670,4.800002,-15.371492,3.895515,-0.147829,-0.392175,-2.469116
2026-01-18T19:44:32.316670,5.039284,-14.888142,3.230310,0.293215,-0.394618,-2.817309
2026-01-18T19:44:32.325670,4.637290,-13.323236,2.804388,0.724486,-0.401949,-3.166724
2026-01-18T19:44:32.335670,4.024727,-11.318050,3.536591,0.891863,-0.542448,-3.506365
2026-01-18T19:44:32.344670,3.766302,-9.355936,4.402793,0.838106,-0.918741,-3.821572
2026-01-18T19:44:32.354670,4.402793,-7.671389,5.206781,0.722042,-1.459967,-4.139221
2026-01-18T19:44:32.364670,6.183053,-6.762116,5.556134,0.326201,-2.026850,-4.337142
2026-01-18T19:44:32.373670,8.628518,-7.116254,4.967499,-0.379958,-2.466673,-4.400672
2026-01-18T19:44:32.383670,11.298908,-8.059026,4.158725,-1.001818,-2.649932,-4.471532
2026-01-18T19:44:32.393670,13.481162,-9.135796,3.196810,-1.541823,-2.549750,-4.513071
2026-01-18T19:44:32.402670,14.778072,-10.600204,2.230110,-1.897347,-2.190562,-4.550945
2026-01-18T19:44:32.412670,14.758929,-11.279765,1.818545,-1.783726,-1.659109,-4.638909
2026-01-18T19:44:32.421670,13.490733,-10.686345,1.856830,-1.370781,-1.154535,-4.751309
2026-01-18T19:44:32.431670,11.586047,-9.384650,2.445464,-0.992044,-0.888197,-4.847825
2026-01-18T19:44:32.441670,9.925428,-8.145168,2.904886,-0.720820,-0.957836,-4.928459
2026-01-18T19:44:32.450670,9.140582,-7.389036,2.804388,-0.662177,-1.307251,-4.976107
2026-01-18T19:44:32.460670,9.829715,-7.853243,2.608176,-0.861319,-1.809382,-4.965111
2026-01-18T19:44:32.469670,11.696116,-8.863014,2.086541,-1.075122,-2.284635,-4.896694
2026-01-18T19:44:32.479670,13.978869,-9.729216,1.502692,-1.037248,-2.505768,-4.879590
2026-01-18T19:44:32.489670,15.998411,-10.025926,1.526620,-0.857654,-2.408030,-4.807508
2026-01-18T19:44:32.498670,17.079967,-9.662217,1.560120,-0.614530,-2.076941,-4.634022
2026-01-18T19:44:32.508670,17.017754,-8.690731,1.770688,-0.386066,-1.589471,-4.456871
2026-01-18T19:44:32.518670,15.706487,-7.628318,1.473978,-0.321315,-1.049466,-4.298046
2026-01-18T19:44:32.527670,13.615160,-7.087540,1.598405,-0.378736,-0.687834,-4.195421
2026-01-18T19:44:32.537670,11.849257,-6.776473,1.703689,-0.434935,-0.669508,-4.114787
2026-01-18T19:44:32.546670,10.849057,-6.503691,1.665404,-0.431270,-0.954171,-4.051257
2026-01-18T19:44:32.556670,11.083554,-5.919843,1.727617,-0.339641,-1.352455,-4.032931
2026-01-18T19:44:32.566670,12.165110,-4.871786,1.383051,-0.235793,-1.663996,-4.015827
2026-01-18T19:44:32.575670,13.318450,-3.833301,0.890130,-0.196698,-1.759291,-3.995057
2026-01-18T19:44:32.585670,13.926227,-2.636890,0.234496,-0.204028,-1.580918,-3.993836
2026-01-18T19:44:32.594670,13.509876,-1.732403,-0.406779,-0.254119,-1.237612,-4.001166
2026-01-18T19:44:32.604670,12.504890,-1.134197,-0.440279,-0.393397,-0.965166,-3.969401
2026-01-18T19:44:32.614670,11.562118,-0.875773,0.698704,-0.646295,-0.927293,-3.880215
2026-01-18T19:44:32.623670,11.456834,-1.272981,1.622333,-1.084896,-1.100778,-3.684738
2026-01-18T19:44:32.633670,12.112468,-2.555534,1.660618,-1.539380,-1.308473,-3.429396
2026-01-18T19:44:32.643670,13.189238,-4.063012,1.607976,-1.703091,-1.343903,-3.205820
2026-01-18T19:44:32.652670,13.873585,-4.809573,1.665404,-1.532049,-1.133765,-3.015230
2026-01-18T19:44:32.662670,13.706087,-4.675575,1.521835,-1.167974,-0.746477,-2.838079
2026-01-18T19:44:32.671670,12.667602,-3.704089,1.560120,-0.811228,-0.321315,-2.665815
2026-01-18T19:44:32.681670,10.944770,-2.584248,1.550549,-0.656069,0.015882,-2.488664
2026-01-18T19:44:32.691670,9.107082,-1.828116,1.201196,-0.706160,0.206472,-2.311513
2026-01-18T19:44:32.700670,7.389036,-1.469193,0.741775,-0.838106,0.267558,-2.151466
2026-01-18T19:44:32.710670,6.010770,-1.316052,0.301495,-0.963945,0.219911,-2.028072
2026-01-18T19:44:32.719670,4.934000,-1.354337,0.009571,-1.037248,0.087964,-1.923003
2026-01-18T19:44:32.729670,4.369294,-1.569691,0.119641,-1.029918,-0.106290,-1.843590
2026-01-18T19:44:32.739670,4.402793,-1.842473,0.454636,-0.994488,-0.334754,-1.771508
2026-01-18T19:44:32.748670,5.029713,-2.115255,0.449850,-0.970053,-0.546113,-1.681100
2026-01-18T19:44:32.758670,5.919843,-2.321037,0.397208,-0.938288,-0.663399,-1.585805
2026-01-18T19:44:32.768670,6.623332,-2.100898,0.339780,-0.902858,-0.616973,-1.494176
2026-01-18T19:44:32.777670,6.685546,-1.665404,0.382851,-0.897971,-0.412944,-1.411098
2026-01-18T19:44:32.787670,6.106483,-1.215553,0.588634,-0.954171,-0.140498,-1.339016
2026-01-18T19:44:32.796670,4.996213,-0.957129,0.665204,-1.083674,0.069638,-1.246164
2026-01-18T19:44:32.806670,3.680161,-1.067198,0.736989,-1.227838,0.157603,-1.152091
2026-01-18T19:44:32.816670,2.493321,-1.402194,1.100698,-1.297477,0.140498,-1.076344
2026-01-18T19:44:32.825670,1.694118,-1.847259,1.138983,-1.268155,0.032986,-1.004262
2026-01-18T19:44:32.835670,1.383051,-2.244467,1.052841,-1.092226,-0.144164,-0.959058
2026-01-18T19:44:32.844670,1.445264,-2.450250,0.966700,-0.790459,-0.346971,-0.934623
2026-01-18T19:44:32.854670,1.923829,-2.392822,0.914058,-0.489913,-0.504574,-0.906523
2026-01-18T19:44:32.864670,2.560320,-2.172682,1.024128,-0.200363,-0.566882,-0.901636
2026-01-18T19:44:32.873670,3.196810,-1.823330,1.158126,0.028099,-0.555887,-0.884532
2026-01-18T19:44:32.883670,3.737588,-1.512263,1.105484,0.163711,-0.520457,-0.841772
2026-01-18T19:44:32.893670,4.225724,-1.177268,0.957129,0.248011,-0.470366,-0.790459
2026-01-18T19:44:32.902670,4.694717,-0.985842,0.870987,0.306654,-0.444709,-0.735481
2026-01-18T19:44:32.912670,5.230710,-0.899701,0.827916,0.343306,-0.469144,-0.669508
2026-01-18T19:44:32.921670,5.848058,-0.775274,0.933200,0.373849,-0.538783,-0.597426
2026-01-18T19:44:32.931670,6.747759,-0.698704,1.129412,0.383623,-0.605978,-0.520457
2026-01-18T19:44:32.941670,7.700103,-0.583848,1.306481,0.361632,-0.648738,-0.447153
2026-01-18T19:44:32.950670,8.609375,-0.545563,1.473978,0.289550,-0.653625,-0.362853
2026-01-18T19:44:32.960670,9.485148,-0.507278,1.641476,0.174707,-0.615752,-0.261450
2026-01-18T19:44:32.969670,10.174281,-0.478564,1.713260,0.023212,-0.526565,-0.140498
2026-01-18T19:44:32.979670,10.705488,-0.727418,1.655833,-0.162490,-0.397062,0.007330
2026-01-18T19:44:32.989670,10.872985,-1.153340,1.569691,-0.327423,-0.246789,0.157603
2026-01-18T19:44:32.998670,10.844272,-1.866401,1.765903,-0.417831,-0.070860,0.316428
2026-01-18T19:44:33.008670,10.442277,-2.589034,1.986042,-0.404392,0.109955,0.487470
2026-01-18T19:44:33.018670,9.858429,-3.172882,2.368894,-0.249232,0.278554,0.657290
2026-01-18T19:44:33.027670,9.064012,-3.445664,2.287538,0.002443,0.410501,0.836885
2026-01-18T19:44:33.037670,8.173882,-3.479164,2.220539,0.293215,0.499687,1.010370
2026-01-18T19:44:33.046670,7.412964,-2.971885,2.440679,0.594982,0.536339,1.169195
2026-01-18T19:44:33.056670,6.920042,-2.297109,2.450250,0.800233,0.530230,1.347568
2026-01-18T19:44:33.066670,6.503691,-1.603191,2.455035,0.856432,0.527787,1.521054
2026-01-18T19:44:33.075670,6.206981,-0.847059,2.656033,0.797789,0.558330,1.690874
2026-01-18T19:44:33.085670,5.876772,-0.239282,2.766102,0.609643,0.610865,1.859473
2026-01-18T19:44:33.094670,5.560919,-0.043070,2.593819,0.317649,0.663399,2.041511
2026-01-18T19:44:33.104670,5.450849,-0.311066,2.416750,0.021991,0.689055,2.214996
2026-01-18T19:44:33.114670,5.359922,-0.914058,1.952543,-0.224798,0.690277,2.378708
2026-01-18T19:44:33.123670,5.546562,-1.895115,1.732403,-0.335975,0.686612,2.530203
2026-01-18T19:44:33.133670,5.699703,-2.732603,1.416550,-0.257785,0.676838,2.665815
2026-01-18T19:44:33.143670,6.106483,-3.321237,1.785045,-0.015882,0.670729,2.784323
2026-01-18T19:44:33.152670,6.632904,-3.594019,1.732403,0.316428,0.657290,2.911383
2026-01-18T19:44:33.162670,7.154539,-3.512663,1.493121,0.698829,0.667064,3.004234
2026-01-18T19:44:33.171670,7.628318,-3.005385,1.339980,1.059240,0.723264,3.075094
2026-01-18T19:44:33.181670,7.953742,-2.158325,1.387837,1.285260,0.802676,3.137403
2026-01-18T19:44:33.191670,8.154739,-1.445264,1.325623,1.315803,0.885754,3.204598
2026-01-18T19:44:33.200670,8.269594,-1.162911,1.215553,1.220508,0.963945,3.274236
2026-01-18T19:44:33.210670,8.461020,-1.234696,0.756131,1.064127,1.021366,3.340210
2026-01-18T19:44:33.219670,8.604590,-1.732403,0.535992,0.917519,1.059240,3.404962
2026-01-18T19:44:33.229670,8.824729,-2.249253,0.880558,0.842993,1.082452,3.474600
2026-01-18T19:44:33.239670,9.054440,-2.866601,0.574277,0.795346,1.134987,3.577226
2026-01-18T19:44:33.248670,9.054440,-3.574876,0.220139,0.831998,1.216843,3.672521
2026-01-18T19:44:33.258670,8.939585,-3.919443,0.181854,0.956614,1.255938,3.760485
2026-01-18T19:44:33.268670,8.877371,-3.871586,0.339780,1.099557,1.232725,3.842341
2026-01-18T19:44:33.277670,8.896514,-3.450450,0.488135,1.220508,1.167974,3.914423
2026-01-18T19:44:33.287670,8.963513,-2.957528,0.665204,1.202182,1.092226,3.982840
2026-01-18T19:44:33.296670,9.188438,-2.622533,0.875773,1.044579,1.050687,4.029266
2026-01-18T19:44:33.306670,9.332008,-2.603390,0.722632,0.846659,1.056796,4.057366
2026-01-18T19:44:33.316670,9.274580,-2.890529,0.411565,0.647517,1.095892,4.059809
2026-01-18T19:44:33.325670,9.030512,-3.790230,0.277567,0.535117,1.152091,4.030488
2026-01-18T19:44:33.335670,8.690731,-4.929214,0.224925,0.586430,1.194852,3.984062
2026-01-18T19:44:33.344670,8.484948,-5.991627,0.397208,0.762359,1.161865,3.960849
2026-01-18T19:44:33.354670,8.532805,-6.781259,0.684347,1.043357,1.031140,3.942523
2026-01-18T19:44:33.364670,8.915657,-6.915257,0.626919,1.420872,0.847880,3.896097
2026-01-18T19:44:33.373670,9.523433,-6.154339,0.961914,1.692096,0.673173,3.876549
2026-01-18T19:44:33.383670,10.231709,-4.967499,1.244267,1.742187,0.552222,3.869219
2026-01-18T19:44:33.393670,10.997412,-4.058227,1.430907,1.473406,0.499687,3.903428
2026-01-18T19:44:33.402670,11.461620,-3.952942,1.316052,0.982271,0.551000,3.943745
2026-01-18T19:44:33.412670,11.375478,-4.398007,1.584048,0.515570,0.703716,3.970623
2026-01-18T19:44:33.421670,10.738987,-5.359922,1.488335,0.021991,0.885754,4.041483
2026-01-18T19:44:33.431670,9.662217,-6.388836,1.421336,-0.301767,1.023809,4.079357
2026-01-18T19:44:33.441670,8.465806,-7.082754,1.344766,-0.404392,1.055574,4.061031
2026-01-18T19:44:33.450670,7.436892,-7.891528,1.603191,-0.491135,0.917519,4.059809
2026-01-18T19:44:33.460670,6.896114,-8.384450,1.823330,-0.521678,0.597426,4.061031
2026-01-18T19:44:33.469670,7.020541,-8.585447,2.196611,-0.438601,0.213802,4.031709
2026-01-18T19:44:33.479670,7.671389,-8.786444,3.014956,-0.299323,-0.067195,3.946188
2026-01-18T19:44:33.489670,8.518448,-9.116654,4.216153,-0.094073,-0.188146,3.852115
2026-01-18T19:44:33.498670,9.221938,-9.198010,4.484149,0.092851,-0.147829,3.814241
2026-01-18T19:44:33.508670,9.509077,-9.351150,4.622933,0.287106,0.048869,3.734829
2026-01-18T19:44:33.518670,9.174081,-9.547362,4.565505,0.370184,0.299323,3.683516
2026-01-18T19:44:33.527670,8.441878,-10.207781,3.943371,0.271224,0.514348,3.672521
2026-01-18T19:44:33.537670,7.824529,-11.471191,3.378665,0.213802,0.697607,3.616321
2026-01-18T19:44:33.546670,6.838686,-12.830314,3.445664,0.408057,0.861319,3.439170
2026-01-18T19:44:33.556670,5.828915,-14.160724,3.359522,0.667064,0.841772,3.295006
2026-01-18T19:44:33.566670,5.063212,-15.160923,3.823730,1.125213,0.715933,3.079981
2026-01-18T19:44:33.575670,4.474578,-14.596217,4.847858,1.882686,0.572991,2.739119
2026-01-18T19:44:33.585670,4.273581,-12.691531,5.355136,2.376265,0.344527,2.447125
2026-01-18T19:44:33.594670,4.886143,-10.604989,5.934200,2.469116,0.034208,2.218662
2026-01-18T19:44:33.604670,6.039484,-8.451449,6.565905,2.251648,-0.210137,1.963320
2026-01-18T19:44:33.614670,7.188039,-6.958328,6.613761,1.613905,-0.259006,1.728748
2026-01-18T19:44:33.623670,7.714460,-6.570690,6.848258,0.704938,-0.058643,1.473406
2026-01-18T19:44:33.633670,7.197610,-7.154539,6.781259,-0.153938,0.334754,1.104444
2026-01-18T19:44:33.643670,5.670989,-8.705088,6.881757,-0.924849,0.717155,0.680503
2026-01-18T19:44:33.652670,3.919443,-10.983055,7.073183,-1.441641,0.904080,0.223576
2026-01-18T19:44:33.662670,2.440679,-13.007383,6.790830,-1.409876,0.853989,-0.324980
2026-01-18T19:44:33.671670,1.746760,-14.385649,6.546762,-1.044579,0.590095,-0.908967
2026-01-18T19:44:33.681670,1.928615,-15.113067,6.527620,-0.464257,0.257785,-1.484402
2026-01-18T19:44:33.691670,2.502892,-14.720644,7.044469,0.230907,0.025656,-2.073276
2026-01-18T19:44:33.700670,3.101098,-13.308879,7.728816,0.572991,-0.145385,-2.516764
2026-01-18T19:44:33.710670,3.771088,-11.925827,7.834101,0.497244,-0.305432,-2.833192
2026-01-18T19:44:33.719670,4.670789,-10.681560,7.853243,0.196698,-0.427605,-3.149620
2026-01-18T19:44:33.729670,5.450849,-9.552147,6.963113,-0.153938,-0.499687,-3.447722
2026-01-18T19:44:33.739670,5.972485,-8.666803,5.517848,-0.491135,-0.543669,-3.704286
2026-01-18T19:44:33.748670,6.221338,-8.212167,4.316651,-0.742811,-0.592539,-3.987727
2026-01-18T19:44:33.758670,6.340979,-8.322237,3.402593,-0.967610,-0.700051,-4.243069
2026-01-18T19:44:33.768670,6.623332,-9.360722,2.904886,-1.264490,-0.918741,-4.433658
2026-01-18T19:44:33.777670,7.580461,-11.648260,2.555534,-1.814269,-1.268155,-4.440989
2026-01-18T19:44:33.787670,9.073583,-14.577075,2.067398,-2.246761,-1.627344,-4.397007
2026-01-18T19:44:33.796670,10.724630,-16.319050,2.742174,-2.059837,-1.850921,-4.486193
2026-01-18T19:44:33.806670,12.141181,-15.591632,4.541577,-1.233947,-1.854586,-4.708548
2026-01-18T19:44:33.816670,12.729816,-12.605389,4.819144,-0.355523,-1.627344,-4.783073
2026-01-18T19:44:33.825670,12.131610,-9.068797,4.039084,0.084299,-1.252273,-4.748865
2026-01-18T19:44:33.835670,10.892128,-6.470192,3.431307,-0.002443,-0.897971,-4.728095
2026-01-18T19:44:33.844670,9.370293,-5.173282,3.445664,-0.426383,-0.762359,-4.743978
2026-01-18T19:44:33.854670,8.298308,-5.000999,2.612962,-0.880867,-0.921184,-4.820947
2026-01-18T19:44:33.864670,8.207381,-5.910271,1.301695,-1.182634,-1.308473,-4.966333
2026-01-18T19:44:33.873670,9.284151,-7.786244,-0.751346,-1.381776,-1.805717,-5.067736
2026-01-18T19:44:33.883670,11.380264,-9.662217,-1.875972,-1.284038,-2.291965,-5.078732
2026-01-18T19:44:33.893670,13.734801,-10.552347,-1.684547,-0.803898,-2.566855,-5.097058
2026-01-18T19:44:33.902670,15.883556,-9.906285,-0.253639,-0.135612,-2.524094,-5.072623
2026-01-18T19:44:33.912670,17.185251,-7.590033,2.512463,0.469144,-2.267531,-5.018867
2026-01-18T19:44:33.921670,17.769100,-4.460221,4.455435,0.513126,-1.894903,-4.824612
2026-01-18T19:44:33.931670,17.386250,-2.928814,4.402793,-0.194255,-1.453858,-4.467867
2026-01-18T19:44:33.941670,16.271193,-3.326023,3.579662,-1.125213,-1.022588,-4.124561
2026-01-18T19:44:33.950670,14.562718,-4.412364,2.254038,-1.766621,-0.687834,-3.866776
2026-01-18T19:44:33.960670,12.744173,-5.469992,1.129412,-1.952324,-0.563217,-3.743381
2026-01-18T19:44:33.969670,11.284551,-5.469992,0.047856,-1.706757,-0.608421,-3.744603
2026-01-18T19:44:33.979670,9.944570,-4.374079,-0.727418,-1.248608,-0.779463,-3.836232
2026-01-18T19:44:33.989670,9.274580,-2.995813,-1.110269,-0.811228,-1.062905,-3.922975
2026-01-18T19:44:33.998670,9.595218,-2.029113,-0.765703,-0.592539,-1.435533,-3.940079
2026-01-18T19:44:34.008670,10.863414,-1.904686,-0.842273,-0.531452,-1.745852,-3.914423
2026-01-18T19:44:34.018670,12.256037,-2.316252,-0.851844,-0.433714,-1.826486,-3.878993
2026-01-18T19:44:34.027670,13.375878,-2.794816,-0.334995,-0.278554,-1.632231,-3.821572
2026-01-18T19:44:34.037670,13.572089,-3.168097,-0.133998,-0.108733,-1.263269,-3.706729
2026-01-18T19:44:34.046670,12.854243,-2.986242,0.043070,0.084299,-0.883310,-3.565008
2026-01-18T19:44:34.056670,11.490334,-2.426322,0.483350,0.221133,-0.626747,-3.406183
2026-01-18T19:44:34.066670,10.188638,-1.837687,1.000199,0.221133,-0.549778,-3.218037
2026-01-18T19:44:34.075670,9.375078,-1.378265,1.201196,0.152716,-0.652403,-3.022560
2026-01-18T19:44:34.085670,9.087940,-0.885344,1.363908,0.064751,-0.841772,-2.825862
2026-01-18T19:44:34.094670,9.547362,-0.483350,1.229910,-0.089186,-0.985936,-2.629163
2026-01-18T19:44:34.104670,10.021141,-0.244067,0.698704,-0.261450,-0.972497,-2.433686
2026-01-18T19:44:34.114670,10.016355,-0.009571,0.325423,-0.434935,-0.768468,-2.249205
2026-01-18T19:44:34.123670,9.336793,-0.062213,-0.119641,-0.656069,-0.445931,-2.063502
2026-01-18T19:44:34.133670,8.140382,-0.358923,-0.373280,-0.858876,-0.135612,-1.882686
2026-01-18T19:44:34.143670,6.704688,-0.890130,-0.287138,-0.998153,0.065973,-1.705535
2026-01-18T19:44:34.152670,5.326423,-1.540977,-0.114855,-1.066570,0.141720,-1.543045
2026-01-18T19:44:34.162670,4.149154,-2.163111,0.090927,-1.028696,0.098960,-1.395215
2026-01-18T19:44:34.171670,3.464807,-2.411965,0.124426,-0.877202,-0.042760,-1.251051
2026-01-18T19:44:34.181670,3.105883,-2.340180,0.703489,-0.647517,-0.218689,-1.130100
2026-01-18T19:44:34.191670,3.014956,-1.799402,1.000199,-0.496022,-0.378736,-1.001818
2026-01-18T19:44:34.200670,3.239881,-1.430907,1.172483,-0.475253,-0.477696,-0.862541
2026-01-18T19:44:34.210670,3.503092,-1.019342,1.263410,-0.538783,-0.504574,-0.740368
2026-01-18T19:44:34.219670,3.565305,-0.976271,1.459621,-0.664621,-0.458148,-0.623082
2026-01-18T19:44:34.229670,3.541377,-1.167697,1.593619,-0.792902,-0.357966,-0.519235
2026-01-18T19:44:34.239670,3.326023,-1.512263,1.521835,-0.867428,-0.241902,-0.416610
2026-01-18T19:44:34.248670,3.005385,-1.789831,1.234696,-0.864984,-0.145385,-0.329867
2026-01-18T19:44:34.258670,2.574677,-1.976471,1.076770,-0.777020,-0.063529,-0.271224
2026-01-18T19:44:34.268670,2.014756,-2.067398,1.000199,-0.641408,-0.021991,-0.219911
2026-01-18T19:44:34.277670,1.698904,-1.942971,1.282552,-0.470366,-0.042760,-0.196698
2026-01-18T19:44:34.287670,1.761117,-1.694118,1.732403,-0.316428,-0.141720,-0.158824
2026-01-18T19:44:34.296670,2.215753,-1.387837,2.148754,-0.241902,-0.296880,-0.103847
2026-01-18T19:44:34.306670,3.239881,-1.249053,2.282752,-0.271224,-0.448374,-0.023212
2026-01-18T19:44:34.316670,4.460221,-1.158126,2.474178,-0.311541,-0.530230,0.058643
2026-01-18T19:44:34.325670,5.685346,-0.957129,2.392822,-0.348193,-0.533896,0.130725
2026-01-18T19:44:34.335670,6.762116,-0.842273,2.033899,-0.406836,-0.491135,0.204028
2026-01-18T19:44:34.344670,7.647461,-0.832702,1.761117,-0.467922,-0.449596,0.266337
2026-01-18T19:44:34.354670,8.638089,-0.928415,1.526620,-0.499687,-0.454483,0.312762
2026-01-18T19:44:34.364670,9.657432,-1.110269,1.378265,-0.505796,-0.535117,0.334754
2026-01-18T19:44:34.373670,10.959127,-1.497906,1.134197,-0.448374,-0.654847,0.344527
2026-01-18T19:44:34.383670,12.490533,-1.871187,1.067198,-0.302989,-0.726929,0.366519
2026-01-18T19:44:34.393670,13.825728,-2.167897,1.225125,-0.098960,-0.651182,0.399505
2026-01-18T19:44:34.402670,14.624931,-2.263610,1.215553,0.130725,-0.332310,0.456927
2026-01-18T19:44:34.412670,14.251651,-2.120040,1.703689,0.364075,0.233350,0.546113
2026-01-18T19:44:34.421670,12.342178,-1.828116,1.899901,0.548556,0.874758,0.669508
2026-01-18T19:44:34.431670,9.552147,-1.421336,2.081755,0.657290,1.340238,0.847880
2026-01-18T19:44:34.441670,6.771687,-0.957129,2.612962,0.701273,1.486845,1.053131
2026-01-18T19:44:34.450670,4.651647,-0.564706,2.885744,0.678060,1.351233,1.279151
2026-01-18T19:44:34.460670,3.565305,-0.287138,2.708675,0.598647,1.038470,1.492954
2026-01-18T19:44:34.469670,3.507877,-0.253639,2.297109,0.498465,0.669508,1.694539
2026-01-18T19:44:34.479670,4.374079,-0.330209,1.708475,0.376292,0.355523,1.886351
2026-01-18T19:44:34.489670,5.666203,-0.425922,1.296909,0.238237,0.208915,2.061058
2026-01-18T19:44:34.498670,6.742974,-0.780060,0.866201,0.109955,0.260228,2.206444
2026-01-18T19:44:34.508670,7.365107,-1.316052,0.459421,0.029321,0.465479,2.323730
2026-01-18T19:44:34.518670,7.412964,-2.182254,0.914058,0.053756,0.745255,2.410473
2026-01-18T19:44:34.527670,7.216752,-2.986242,1.091127,0.251676,0.921184,2.506990
2026-01-18T19:44:34.537670,7.015755,-3.493520,1.258624,0.581543,0.929736,2.592511
2026-01-18T19:44:34.546670,7.259823,-3.589233,1.349551,1.006705,0.847880,2.667037
2026-01-18T19:44:34.556670,7.905885,-3.038884,0.914058,1.434311,0.791681,2.720793
2026-01-18T19:44:34.566670,8.513662,-2.206182,0.349352,1.690874,0.831998,2.784323
2026-01-18T19:44:34.575670,8.977870,-1.249053,0.110069,1.722639,0.961501,2.883283
2026-01-18T19:44:34.585670,8.953942,-0.430708,-0.368494,1.489289,1.153313,3.027447
2026-01-18T19:44:34.594670,8.547162,-0.234496,-0.564706,1.051909,1.337794,3.204598
2026-01-18T19:44:34.604670,7.925028,-0.665204,-0.459421,0.587652,1.424537,3.384192
2026-01-18T19:44:34.614670,7.566105,-1.684547,-0.287138,0.190589,1.368337,3.567452
2026-01-18T19:44:34.623670,7.695317,-3.081955,-0.162711,0.000000,1.247386,3.733607
2026-01-18T19:44:34.633670,8.039883,-4.216153,0.004785,0.123394,1.115439,3.860667
2026-01-18T19:44:34.643670,8.566304,-4.522434,0.535992,0.499687,1.036027,3.931527
2026-01-18T19:44:34.652670,8.915657,-4.115654,0.722632,0.922406,1.031140,3.977953
2026-01-18T19:44:34.662670,9.221938,-3.254238,0.760917,1.230282,1.099557,4.012162
2026-01-18T19:44:34.671670,9.092725,-2.388036,0.555134,1.315803,1.210734,4.063474
2026-01-18T19:44:34.681670,8.796015,-1.904686,0.607776,1.178969,1.317025,4.123339
2026-01-18T19:44:34.691670,8.303094,-1.794616,0.646062,0.878424,1.374446,4.190534
2026-01-18T19:44:34.700670,7.934599,-2.325823,0.574277,0.537561,1.353677,4.251621
2026-01-18T19:44:34.710670,7.604390,-3.148954,0.081355,0.289550,1.271821,4.294381
2026-01-18T19:44:34.719670,7.494320,-3.919443,-0.406779,0.218689,1.171639,4.313929
2026-01-18T19:44:34.729670,7.508677,-4.790430,-0.296710,0.296880,1.081231,4.311485
2026-01-18T19:44:34.739670,7.637889,-5.613561,-0.004785,0.582765,0.994488,4.260173
2026-01-18T19:44:34.748670,7.915457,-5.642275,0.832702,1.007927,0.908967,4.191756
2026-01-18T19:44:34.758670,8.178667,-5.106283,1.272981,1.260825,0.817337,4.178317
2026-01-18T19:44:34.768670,8.413164,-4.733003,1.459621,1.258382,0.747698,4.164878
2026-01-18T19:44:34.777670,8.599804,-4.268795,2.000399,1.048244,0.709825,4.152661
2026-01-18T19:44:34.787670,8.556733,-4.192225,2.498106,0.619417,0.657290,4.150217
2026-01-18T19:44:34.796670,8.556733,-4.814359,2.703889,0.053756,0.548556,4.166100
2026-01-18T19:44:34.806670,8.724231,-6.039484,2.536391,-0.453261,0.400727,4.166100
2026-01-18T19:44:34.816670,8.910871,-7.537391,1.804188,-0.711046,0.299323,4.123339
2026-01-18T19:44:34.825670,8.930013,-9.035298,1.081555,-0.675616,0.322536,4.020714
2026-01-18T19:44:34.835670,8.681160,-10.494919,1.067198,-0.443488,0.420275,3.940079
2026-01-18T19:44:34.844670,7.992027,-11.380264,1.162911,-0.026878,0.492357,3.881436
2026-01-18T19:44:34.854670,7.097111,-11.743973,1.655833,0.489913,0.465479,3.788585
2026-01-18T19:44:34.864670,6.455835,-11.820543,3.206382,0.869871,0.288328,3.720168
2026-01-18T19:44:34.873670,6.364908,-12.045468,4.201796,1.006705,-0.018325,3.711616
2026-01-18T19:44:34.883670,7.154539,-13.016954,4.728217,0.814894,-0.355523,3.759263
2026-01-18T19:44:34.893670,8.690731,-14.792429,5.709274,0.477696,-0.625525,3.838676
2026-01-18T19:44:34.902670,10.451849,-16.673187,6.116054,0.350636,-0.729372,3.894875
2026-01-18T19:44:34.912670,11.844471,-17.917456,5.082355,0.603534,-0.568104,3.931527
2026-01-18T19:44:34.921670,12.184252,-17.721245,4.086941,1.359785,-0.130725,3.863110
2026-01-18T19:44:34.931670,11.093125,-15.299707,3.340380,2.482555,0.420275,3.739716
2026-01-18T19:44:34.941670,9.083154,-11.724830,3.220739,3.312110,0.808785,3.706729
2026-01-18T19:44:34.950670,6.934399,-8.116454,3.292523,3.733607,0.938288,3.644421
2026-01-18T19:44:34.960670,5.087140,-4.670789,4.058227,3.717725,0.836885,3.456274
2026-01-18T19:44:34.969670,3.909872,-2.421536,5.575276,3.007899,0.571769,3.221702
2026-01-18T19:44:34.979670,3.555734,-1.837687,6.987041,1.836260,0.296880,2.965139
2026-01-18T19:44:34.989670,3.541377,-2.612962,8.743373,0.648738,0.186924,2.609615
2026-01-18T19:44:34.998670,3.895515,-4.790430,9.269794,-0.428827,0.219911,2.211331
2026-01-18T19:44:35.008670,4.278366,-8.417949,8.666803,-1.060461,0.370184,1.800830
2026-01-18T19:44:35.018670,4.177868,-11.265408,7.159325,-0.977384,0.604756,1.312138
2026-01-18T19:44:35.027670,3.354737,-12.198609,5.728417,-0.404392,0.784350,0.758694
2026-01-18T19:44:35.037670,2.086541,-11.925827,4.694717,0.177150,0.823446,0.249232
2026-01-18T19:44:35.046670,0.684347,-11.351550,3.933800,0.579100,0.720820,-0.183259
2026-01-18T19:44:35.056670,-0.545563,-10.461420,3.828516,0.906523,0.502131,-0.687834
2026-01-18T19:44:35.066670,-1.201196,-9.815358,3.728017,0.996931,0.158824,-1.207069
2026-01-18T19:44:35.075670,-0.856630,-10.159924,4.905286,0.703716,-0.315206,-1.654222
2026-01-18T19:44:35.085670,0.689132,-10.997412,6.120840,0.251676,-0.818559,-2.056171
2026-01-18T19:44:35.094670,2.837887,-11.365907,6.685546,0.000000,-1.134987,-2.533868
2026-01-18T19:44:35.104670,4.843072,-10.949556,7.092326,-0.195476,-1.248608,-2.992017
2026-01-18T19:44:35.114670,6.446264,-10.327422,7.523034,-0.614530,-1.277929,-3.271793
2026-01-18T19:44:35.123670,7.724031,-9.427721,7.652246,-1.009149,-1.229060,-3.489261
2026-01-18T19:44:35.133670,8.748159,-8.767302,7.250252,-1.490510,-1.097113,-3.637090
2026-01-18T19:44:35.143670,9.643075,-9.609575,6.599404,-2.265087,-0.941954,-3.657860
2026-01-18T19:44:35.152670,10.140782,-11.222337,5.211567,-2.652376,-0.725707,-3.759263
2026-01-18T19:44:35.162670,10.164710,-11.954541,4.469792,-2.447125,-0.452040,-3.990170
2026-01-18T19:44:35.171670,9.470791,-11.973684,4.254438,-2.017076,-0.210137,-4.225964
2026-01-18T19:44:35.181670,8.422735,-11.432906,3.881158,-1.446528,-0.064751,-4.447098
2026-01-18T19:44:35.191670,7.255038,-10.413563,3.617947,-0.901636,-0.068416,-4.692666
2026-01-18T19:44:35.200670,6.494120,-9.619146,4.034298,-0.762359,-0.316428,-4.829499
2026-01-18T19:44:35.210670,6.551548,-9.303294,4.680361,-0.780685,-0.802676,-4.954115
2026-01-18T19:44:35.219670,8.073383,-9.556933,5.053641,-1.077566,-1.404989,-4.961446
2026-01-18T19:44:35.229670,10.892128,-10.896914,4.326223,-1.600466,-1.888794,-4.851490
2026-01-18T19:44:35.239670,13.294522,-11.571690,1.775474,-1.566258,-1.926668,-4.855155
2026-01-18T19:44:35.248670,14.189438,-10.825129,0.985842,-1.121548,-1.496619,-4.926016
2026-01-18T19:44:35.258670,13.246665,-9.968498,0.789631,-0.696386,-0.905302,-4.959002
2026-01-18T19:44:35.268670,11.107482,-9.154939,1.339980,-0.304210,-0.518013,-4.950450
2026-01-18T19:44:35.277670,9.035298,-8.417949,1.933400,-0.160046,-0.527787,-4.884477
2026-01-18T19:44:35.287670,7.838886,-8.633303,1.866401,-0.246789,-0.875980,-4.807508
2026-01-18T19:44:35.296670,7.714460,-8.599804,1.789831,-0.097738,-1.386663,-4.806286
2026-01-18T19:44:35.306670,8.657232,-7.231109,1.933400,0.217467,-1.948659,-4.856377
2026-01-18T19:44:35.316670,10.427920,-4.895715,2.842673,0.541226,-2.482555,-5.015202
2026-01-18T19:44:35.325670,12.452248,-1.823330,1.957328,0.751364,-2.786766,-5.156923
2026-01-18T19:44:35.335670,14.347364,0.468993,1.478764,0.437379,-2.828305,-5.088506
2026-01-18T19:44:35.344670,16.290337,1.459621,1.842473,-0.329867,-2.687806,-4.962668
2026-01-18T19:44:35.354670,17.510675,0.770488,0.650847,-1.279151,-2.329839,-4.762304
2026-01-18T19:44:35.364670,17.553745,-1.569691,0.019142,-2.141693,-1.782504,-4.570492
2026-01-18T19:44:35.373670,16.405191,-4.460221,0.339780,-2.538755,-1.244943,-4.421441
2026-01-18T19:44:35.383670,14.739787,-6.752545,0.856630,-2.338391,-0.945619,-4.301712
2026-01-18T19:44:35.393670,13.438091,-7.585247,1.182054,-1.727526,-0.932180,-4.210082
2026-01-18T19:44:35.402670,12.543176,-6.934399,1.067198,-0.913854,-1.084896,-4.152661
2026-01-18T19:44:35.412670,12.399606,-5.115854,1.387837,-0.152716,-1.302364,-4.106235
2026-01-18T19:44:35.421670,13.127024,-2.770888,1.856830,0.290771,-1.522275,-4.023157
2026-01-18T19:44:35.431670,14.208580,-0.885344,1.464407,0.332310,-1.612683,-3.875328
2026-01-18T19:44:35.441670,15.237494,0.473778,1.737189,0.124616,-1.467297,-3.703064
2026-01-18T19:44:35.450670,15.596417,1.014556,1.718046,-0.348193,-1.110552,-3.428175
2026-01-18T19:44:35.460670,14.883356,0.440279,1.253839,-1.000597,-0.638964,-3.092199
2026-01-18T19:44:35.469670,13.232308,-0.722632,0.770488,-1.560149,-0.145385,-2.742784
2026-01-18T19:44:35.479670,10.896914,-1.651047,0.143569,-1.914451,0.233350,-2.410473
2026-01-18T19:44:35.489670,8.346165,-2.057827,0.047856,-2.102597,0.395840,-2.128254
2026-01-18T19:44:35.498670,6.230910,-2.244467,0.344566,-2.131919,0.327423,-1.923003
2026-01-18T19:44:35.508670,4.895715,-2.388036,0.550349,-2.074497,0.052534,-1.767843
2026-01-18T19:44:35.518670,4.599005,-2.632104,0.875773,-1.875355,-0.356745,-1.670105
2026-01-18T19:44:35.527670,5.422136,-2.713460,1.110269,-1.576031,-0.698829,-1.607796
2026-01-18T19:44:35.537670,6.680760,-2.656033,0.732203,-1.285260,-0.855211,-1.533271
2026-01-18T19:44:35.546670,7.843672,-2.388036,0.387637,-1.000597,-0.769690,-1.467297
2026-01-18T19:44:35.556670,7.982456,-1.761117,0.459421,-0.780685,-0.475253,-1.400102
2026-01-18T19:44:35.566670,7.269395,-1.268195,0.607776,-0.711046,-0.123394,-1.298699
2026-01-18T19:44:35.575670,6.010770,-1.177268,0.473778,-0.762359,0.129503,-1.175304
2026-01-18T19:44:35.585670,4.522434,-1.464407,0.311066,-0.795346,0.228463,-1.053131
2026-01-18T19:44:35.594670,3.297309,-2.076970,0.488135,-0.750142,0.171042,-0.940732
2026-01-18T19:44:35.604670,2.526820,-2.713460,0.636490,-0.588873,0.010995,-0.830776
2026-01-18T19:44:35.614670,2.139183,-3.048455,0.981057,-0.290771,-0.177150,-0.742811
2026-01-18T19:44:35.623670,2.225325,-2.971885,0.971485,0.069638,-0.343306,-0.670729
2026-01-18T19:44:35.633670,2.660818,-2.273181,0.665204,0.361632,-0.444709,-0.583987
2026-01-18T19:44:35.643670,2.981456,-1.325623,0.449850,0.549778,-0.453261,-0.502131
2026-01-18T19:44:35.652670,3.062812,-0.296710,0.559920,0.587652,-0.368962,-0.439822
2026-01-18T19:44:35.662670,2.976671,0.330209,0.665204,0.442266,-0.248011,-0.392175
2026-01-18T19:44:35.671670,2.809173,0.579063,1.028913,0.215024,-0.163711,-0.350636
2026-01-18T19:44:35.681670,2.665604,0.464207,1.268195,-0.034208,-0.152716,-0.294436
2026-01-18T19:44:35.691670,2.790031,0.153140,1.282552,-0.261450,-0.212581,-0.226020
2026-01-18T19:44:35.700670,3.182454,-0.306281,1.387837,-0.406836,-0.311541,-0.153938
2026-01-18T19:44:35.710670,3.871586,-0.507278,1.440479,-0.466700,-0.387288,-0.091629
2026-01-18T19:44:35.719670,4.517649,-0.669990,1.555334,-0.481361,-0.436157,-0.039095
2026-01-18T19:44:35.729670,5.297709,-0.890130,1.694118,-0.461814,-0.478918,0.012217
2026-01-18T19:44:35.739670,6.087340,-1.057627,1.698904,-0.404392,-0.520457,0.052534
2026-01-18T19:44:35.748670,7.106683,-1.311266,1.564905,-0.313984,-0.558330,0.063529
2026-01-18T19:44:35.758670,8.221738,-1.641476,1.368694,-0.199142,-0.596204,0.061086
2026-01-18T19:44:35.768670,9.442077,-1.842473,1.263410,-0.062308,-0.630412,0.061086
2026-01-18T19:44:35.777670,10.782058,-1.818545,1.607976,0.098960,-0.629191,0.072082
2026-01-18T19:44:35.787670,12.102896,-1.607976,1.880758,0.241902,-0.551000,0.116064
2026-01-18T19:44:35.796670,12.887742,-1.258624,2.148754,0.351858,-0.337197,0.178372
2026-01-18T19:44:35.806670,12.959527,-0.727418,2.230110,0.389731,-0.026878,0.296880
2026-01-18T19:44:35.816670,12.356535,-0.344566,2.076970,0.312762,0.326201,0.455705
2026-01-18T19:44:35.825670,10.983055,-0.440279,2.167897,0.188146,0.627969,0.642630
2026-01-18T19:44:35.835670,9.418149,-0.760917,2.033899,0.138055,0.775798,0.853989
2026-01-18T19:44:35.844670,7.977670,-1.000199,1.919043,0.207694,0.762359,1.054353
2026-01-18T19:44:35.854670,7.010970,-1.138983,1.799402,0.390953,0.679282,1.211956
2026-01-18T19:44:35.864670,6.465406,-1.110269,1.761117,0.638964,0.596204,1.319468
2026-01-18T19:44:35.873670,6.173482,-0.794417,1.746760,0.896749,0.546113,1.390328
2026-01-18T19:44:35.883670,6.063412,-0.425922,1.813759,1.115439,0.557108,1.440419
2026-01-18T19:44:35.893670,6.092126,-0.148355,1.588834,1.252273,0.581543,1.495397
2026-01-18T19:44:35.902670,6.068198,0.033499,1.536192,1.301142,0.607199,1.530827
2026-01-18T19:44:35.912670,6.202196,0.100498,1.536192,1.282816,0.605978,1.578475
2026-01-18T19:44:35.921670,6.570690,0.047856,1.158126,1.172861,0.559552,1.656666
2026-01-18T19:44:35.931670,7.049255,-0.057427,0.933200,1.011592,0.507018,1.759291
2026-01-18T19:44:35.941670,7.570890,-0.330209,0.689132,0.872315,0.492357,1.866803
2026-01-18T19:44:35.950670,7.958527,-0.311066,0.531206,0.750142,0.515570,1.979202
2026-01-18T19:44:35.960670,8.212167,-0.373280,0.421136,0.599869,0.580321,2.112371
2026-01-18T19:44:35.969670,8.121239,-0.435493,0.105284,0.432492,0.714712,2.243096
2026-01-18T19:44:35.979670,7.733602,-0.918843,-0.531206,0.262671,0.886976,2.386039
2026-01-18T19:44:35.989670,7.183253,-1.756331,-0.497707,0.169820,1.043357,2.498438
2026-01-18T19:44:35.998670,6.647261,-2.804388,-0.162711,0.215024,1.119104,2.618167
2026-01-18T19:44:36.008670,6.235695,-3.828516,0.110069,0.410501,1.053131,2.730567
2026-01-18T19:44:36.018670,6.269195,-4.374079,0.717846,0.796568,0.921184,2.789210
2026-01-18T19:44:36.027670,6.637689,-4.230510,0.918843,1.329242,0.794124,2.812422
2026-01-18T19:44:36.037670,7.221538,-3.010170,0.971485,1.837482,0.718377,2.797762
2026-01-18T19:44:36.046670,7.905885,-1.469193,0.622133,2.015854,0.751364,2.817309
2026-01-18T19:44:36.056670,8.279166,-0.234496,0.416351,1.808160,0.871093,2.896722
2026-01-18T19:44:36.066670,8.475377,0.588634,0.454636,1.358564,1.036027,3.010343
2026-01-18T19:44:36.075670,8.274380,0.698704,0.583848,0.733038,1.187521,3.156950
2026-01-18T19:44:36.085670,8.269594,-0.105284,1.081555,0.069638,1.233947,3.325549
2026-01-18T19:44:36.094670,8.504091,-1.789831,1.033699,-0.488692,1.185078,3.519804
2026-01-18T19:44:36.104670,8.834301,-4.019941,0.727418,-0.744033,1.164308,3.670077
2026-01-18T19:44:36.114670,9.092725,-5.623133,0.622133,-0.601091,1.205847,3.734829
2026-01-18T19:44:36.123670,9.016155,-6.738188,0.617348,-0.200363,1.280373,3.754376
2026-01-18T19:44:36.133670,8.901300,-7.293323,0.449850,0.282219,1.286481,3.772702
2026-01-18T19:44:36.143670,8.733802,-7.144968,0.531206,0.825889,1.229060,3.789807
2026-01-18T19:44:36.152670,8.714659,-6.063412,0.799202,1.292590,1.147204,3.798359
2026-01-18T19:44:36.162670,8.867800,-4.728217,0.851844,1.488067,1.067792,3.849671
2026-01-18T19:44:36.171670,9.169296,-3.412165,1.177268,1.411098,0.994488,3.913201
2026-01-18T19:44:36.181670,9.489934,-2.679961,1.287338,1.087339,0.952949,4.004831
2026-01-18T19:44:36.191670,9.844072,-2.737389,1.866401,0.577878,0.932180,4.108678
2026-01-18T19:44:36.200670,10.293922,-4.010370,2.206182,0.032986,0.924849,4.217412
2026-01-18T19:44:36.210670,10.547562,-5.809773,2.139183,-0.316428,0.954171,4.326146
2026-01-18T19:44:36.219670,10.399207,-7.159325,1.995614,-0.387288,1.020144,4.386011
2026-01-18T19:44:36.229670,9.896714,-8.039883,1.641476,-0.293215,1.073900,4.420219
2026-01-18T19:44:36.239670,9.087940,-8.494520,1.397408,-0.111177,1.058018,4.405559
2026-01-18T19:44:36.248670,8.355736,-8.532805,1.373480,0.015882,0.939510,4.397007
2026-01-18T19:44:36.258670,7.824529,-8.417949,1.220339,0.068416,0.720820,4.386011
2026-01-18T19:44:36.268670,7.542176,-8.145168,1.411765,0.138055,0.489913,4.300490
2026-01-18T19:44:36.277670,7.470392,-7.805387,2.196611,0.199142,0.295658,4.175873
2026-01-18T19:44:36.287670,7.637889,-7.389036,3.311666,0.212581,0.111177,4.127004
2026-01-18T19:44:36.296670,7.963313,-7.097111,3.924229,0.211359,-0.025656,4.095239
2026-01-18T19:44:36.306670,8.484948,-7.298108,4.742574,0.064751,-0.074525,4.079357
2026-01-18T19:44:36.316670,9.001798,-8.106882,5.316851,-0.080634,-0.007330,4.053700
2026-01-18T19:44:36.325670,9.255437,-9.083154,4.843072,-0.140498,0.150272,4.018270
2026-01-18T19:44:36.335670,9.040083,-10.341779,4.460221,-0.152716,0.353080,3.940079
2026-01-18T19:44:36.344670,8.336593,-11.447263,4.153940,-0.063529,0.529009,3.824015
2026-01-18T19:44:36.354670,7.322037,-12.160324,3.723231,-0.001221,0.631634,3.704286
2026-01-18T19:44:36.364670,5.986842,-12.581461,3.546163,0.085521,0.668286,3.519804
2026-01-18T19:44:36.373670,4.579862,-12.370892,3.541377,0.177150,0.605978,3.262019
2026-01-18T19:44:36.383670,3.364308,-11.763115,4.297509,0.262671,0.372627,2.924822
2026-01-18T19:44:36.393670,2.971885,-11.160124,5.039284,0.238237,-0.030543,2.593733
2026-01-18T19:44:36.402670,3.828516,-11.083554,6.216553,0.035430,-0.509461,2.332282
2026-01-18T19:44:36.412670,5.819344,-11.787044,7.781459,-0.152716,-0.872315,2.080606
2026-01-18T19:44:36.421670,8.216952,-13.256237,8.997012,-0.163711,-0.912632,1.798386
2026-01-18T19:44:36.431670,10.202995,-15.127424,9.734002,0.058643,-0.637743,1.529606
2026-01-18T19:44:36.441670,11.265408,-16.362120,9.623932,0.609643,-0.107512,1.279151
2026-01-18T19:44:36.450670,10.930413,-16.285549,8.475377,1.222951,0.625525,1.031140
2026-01-18T19:44:36.460670,8.882157,-15.007783,7.752745,1.728748,1.350011,0.730594
2026-01-18T19:44:36.469670,5.924628,-13.002598,7.427321,2.059837,1.795943,0.361632
2026-01-18T19:44:36.479670,2.924029,-10.973484,6.733402,2.069610,1.828930,-0.021991
2026-01-18T19:44:36.489670,0.789631,-9.590432,5.264209,1.842369,1.490510,-0.410501
2026-01-18T19:44:36.498670,-0.076570,-8.743373,4.957928,1.453858,0.929736,-0.805120
2026-01-18T19:44:36.508670,0.564706,-8.925228,5.101497,0.948062,0.307876,-1.174082
2026-01-18T19:44:36.518670,2.325823,-10.542776,5.441278,0.454483,-0.146607,-1.521054
2026-01-18T19:44:36.527670,4.115654,-12.610175,5.163711,0.233350,-0.335975,-1.849699
2026-01-18T19:44:36.537670,5.335994,-13.787443,4.957928,0.486248,-0.255341,-2.218662
2026-01-18T19:44:36.546670,5.675775,-13.648660,4.388436,0.932180,-0.036651,-2.579072
2026-01-18T19:44:36.556670,5.087140,-12.634103,3.326023,1.309694,0.138055,-2.894278
2026-01-18T19:44:36.566670,4.010370,-11.380264,2.981456,1.492954,0.112399,-3.185050
2026-01-18T19:44:36.575670,3.316452,-10.183852,3.010170,1.308473,-0.240680,-3.335323
2026-01-18T19:44:36.585670,3.297309,-8.767302,3.378665,1.004262,-0.801455,-3.494148
2026-01-18T19:44:36.594670,4.010370,-7.097111,3.871586,0.585208,-1.420872,-3.643199
2026-01-18T19:44:36.604670,5.532205,-5.910271,4.426721,-0.108733,-1.992641,-3.690847
2026-01-18T19:44:36.614670,7.661817,-5.024927,3.790230,-0.919962,-2.348165,-3.694512
2026-01-18T19:44:36.623670,9.834500,-4.910071,2.636890,-1.690874,-2.382373,-3.729942
2026-01-18T19:44:36.633670,11.581261,-5.618347,2.100898,-2.332282,-2.117258,-3.837454
2026-01-18T19:44:36.643670,12.605389,-7.369893,2.431107,-2.665815,-1.645670,-4.025601
2026-01-18T19:44:36.652670,12.447463,-9.844072,1.158126,-2.620611,-1.169195,-4.218634
2026-01-18T19:44:36.662670,11.475977,-12.165110,0.105284,-2.125810,-0.875980,-4.410446
2026-01-18T19:44:36.671670,10.336993,-13.265808,0.942772,-1.213178,-0.807563,-4.613253
2026-01-18T19:44:36.681670,9.418149,-13.189238,1.488335,-0.367740,-0.993266,-4.651126
2026-01-18T19:44:36.691670,9.236295,-11.676974,2.053041,0.430049,-1.382998,-4.627914
2026-01-18T19:44:36.700670,9.863214,-8.322237,4.847858,1.125213,-1.841147,-4.695108
2026-01-18T19:44:36.710670,11.246266,-4.594219,5.580062,1.076344,-2.178344,-4.585153
2026-01-18T19:44:36.719670,12.796815,-2.579462,4.862215,0.270002,-2.247983,-4.309042
2026-01-18T19:44:36.729670,13.820943,-1.919043,4.436293,-0.799011,-2.026850,-4.031709
2026-01-18T19:44:36.739670,13.993226,-2.435893,4.278366,-1.836260,-1.657887,-3.825237
2026-01-18T19:44:36.748670,13.275379,-3.814159,2.813959,-2.502103,-1.273042,-3.781255
2026-01-18T19:44:36.758670,11.830114,-5.206781,1.196411,-2.557081,-0.977384,-3.903428
2026-01-18T19:44:36.768670,10.293922,-5.771488,-0.526420,-2.130697,-0.864984,-4.100126
2026-01-18T19:44:36.777670,9.221938,-6.053841,-1.110269,-1.552819,-1.005483,-4.282164
2026-01-18T19:44:36.787670,9.236295,-6.326622,-0.253639,-0.949284,-1.354898,-4.427550
2026-01-18T19:44:36.796670,10.179067,-6.034698,0.052642,-0.367740,-1.736078,-4.458093
2026-01-18T19:44:36.806670,11.863614,-5.072783,1.148554,0.113620,-2.006081,-4.455650
2026-01-18T19:44:36.816670,13.983655,-2.833101,5.742774,0.470366,-2.107484,-4.495967
2026-01-18T19:44:36.825670,15.917055,-0.746560,5.819344,0.152716,-1.969429,-4.250399
2026-01-18T19:44:36.835670,16.831114,-1.086341,3.670589,-0.640186,-1.569923,-3.929084
2026-01-18T19:44:36.844670,16.309479,-2.086541,3.383451,-1.122770,-0.952949,-3.699399
2026-01-18T19:44:36.854670,14.342578,-2.689532,2.589034,-1.486845,-0.434935,-3.464826
2026-01-18T19:44:36.864670,12.102896,-3.828516,1.574477,-1.676213,-0.277332,-3.319441
2026-01-18T19:44:36.873670,10.581061,-3.929014,1.086341,-1.436754,-0.398284,-3.251024
2026-01-18T19:44:36.883670,9.786644,-3.383451,-0.028713,-1.165530,-0.647517,-3.183828
2026-01-18T19:44:36.893670,9.868000,-3.220739,-0.090927,-0.994488,-0.949284,-3.078760
2026-01-18T19:44:36.902670,10.657631,-3.091526,-0.095712,-0.802676,-1.144761,-2.937039
2026-01-18T19:44:36.912670,11.423335,-2.981456,-0.224925,-0.665842,-1.100778,-2.790431
2026-01-18T19:44:36.921670,11.576475,-2.947957,-0.287138,-0.570548,-0.816115,-2.636493
2026-01-18T19:44:36.931670,10.858628,-2.584248,-0.191425,-0.436157,-0.428827,-2.486221
2026-01-18T19:44:36.941670,9.351150,-1.727617,-0.172283,-0.333532,-0.098960,-2.334726
2026-01-18T19:44:36.950670,7.680960,-0.799202,-0.043070,-0.359188,0.041538,-2.185675
2026-01-18T19:44:36.960670,6.317051,0.062213,0.186640,-0.483805,-0.062308,-2.069610
2026-01-18T19:44:36.969670,5.723631,0.598205,0.526420,-0.703716,-0.355523,-1.974316
2026-01-18T19:44:36.979670,5.991627,0.727418,0.971485,-0.981049,-0.712268,-1.879021
2026-01-18T19:44:36.989670,6.967899,0.449850,1.105484,-1.259603,-0.983492,-1.762956
2026-01-18T19:44:36.998670,8.082954,-0.119641,1.076770,-1.481958,-1.053131,-1.654222
2026-01-18T19:44:37.008670,8.767302,-0.813559,0.890130,-1.613905,-0.873537,-1.543045
2026-01-18T19:44:37.018670,8.566304,-1.258624,0.311066,-1.631009,-0.500909,-1.429424
2026-01-18T19:44:37.027670,7.278966,-1.378265,-0.066999,-1.599244,-0.075747,-1.320690
2026-01-18T19:44:37.037670,5.608776,-1.397408,-0.244067,-1.529606,0.243124,-1.246164
2026-01-18T19:44:37.046670,3.684946,-1.459621,-0.124426,-1.452637,0.355523,-1.183856
2026-01-18T19:44:37.056670,2.249253,-1.622333,0.153140,-1.346346,0.244346,-1.127656
2026-01-18T19:44:37.066670,1.373480,-1.799402,0.665204,-1.178969,-0.024434,-1.081231
2026-01-18T19:44:37.075670,1.339980,-1.856830,1.167697,-0.968832,-0.349414,-1.014036
2026-01-18T19:44:37.085670,1.804188,-1.909472,1.593619,-0.723264,-0.616973,-0.954171
2026-01-18T19:44:37.094670,2.646461,-1.856830,1.832902,-0.487470,-0.750142,-0.906523
2026-01-18T19:44:37.104670,3.483949,-1.909472,2.029113,-0.270002,-0.741590,-0.849102
2026-01-18T19:44:37.114670,4.082155,-1.799402,2.163111,-0.059864,-0.645073,-0.791681
2026-01-18T19:44:37.123670,4.398007,-1.732403,2.301895,0.125838,-0.515570,-0.722042
2026-01-18T19:44:37.133670,4.584648,-1.368694,2.215753,0.285884,-0.400727,-0.646295
2026-01-18T19:44:37.143670,4.761716,-1.095912,1.919043,0.404392,-0.311541,-0.564439
2026-01-18T19:44:37.152670,4.890929,-0.751346,1.698904,0.441044,-0.259006,-0.478918
2026-01-18T19:44:37.162670,5.158925,-0.483350,1.584048,0.426383,-0.259006,-0.389731
2026-01-18T19:44:37.171670,5.666203,-0.023928,1.765903,0.351858,-0.318871,-0.300545
2026-01-18T19:44:37.181670,6.479763,0.148355,1.689332,0.171042,-0.415388,-0.199142
2026-01-18T19:44:37.191670,7.585247,-0.009571,1.703689,-0.053756,-0.529009,-0.101403
2026-01-18T19:44:37.200670,8.977870,-0.507278,1.713260,-0.268780,-0.621860,-0.012217
2026-01-18T19:44:37.210670,10.298708,-1.100698,1.550549,-0.417831,-0.674395,0.084299
2026-01-18T19:44:37.219670,11.648260,-1.741974,1.359123,-0.448374,-0.646295,0.161268
2026-01-18T19:44:37.229670,12.686745,-2.254038,1.354337,-0.372627,-0.491135,0.241902
2026-01-18T19:44:37.239670,12.969098,-2.756531,1.335195,-0.212581,-0.202807,0.331088
2026-01-18T19:44:37.248670,12.452248,-3.067598,1.746760,0.031764,0.219911,0.412944
2026-01-18T19:44:37.258670,10.868200,-2.995813,2.105683,0.310319,0.660956,0.502131
2026-01-18T19:44:37.268670,8.738588,-2.665604,2.081755,0.552222,0.954171,0.631634
2026-01-18T19:44:37.277670,6.752545,-2.148754,2.072184,0.767246,1.032362,0.764803
2026-01-18T19:44:37.287670,5.134997,-1.464407,2.110469,0.879645,0.937067,0.919962
2026-01-18T19:44:37.296670,4.197010,-0.904486,2.230110,0.852767,0.750142,1.091005
2026-01-18T19:44:37.306670,3.900300,-0.526420,2.273181,0.718377,0.536339,1.265712
2026-01-18T19:44:37.316670,4.153940,-0.416351,2.306680,0.497244,0.343306,1.453858
2026-01-18T19:44:37.325670,4.905286,-0.593420,2.239681,0.270002,0.221133,1.635896
2026-01-18T19:44:37.335670,5.608776,-0.937986,2.105683,0.102625,0.219911,1.797165
2026-01-18T19:44:37.344670,6.159125,-1.483550,1.832902,0.032986,0.333532,1.931555
2026-01-18T19:44:37.354670,6.273980,-2.067398,1.584048,0.089186,0.494800,2.040289
2026-01-18T19:44:37.364670,6.068198,-2.522035,1.713260,0.248011,0.621860,2.133140
2026-01-18T19:44:37.373670,5.824130,-2.703889,1.459621,0.459370,0.664621,2.229657
2026-01-18T19:44:37.383670,5.838487,-2.871387,0.899701,0.703716,0.605978,2.323730
2026-01-18T19:44:37.393670,6.135197,-2.933600,0.296710,0.966388,0.494800,2.409251
2026-01-18T19:44:37.402670,6.623332,-2.828316,-0.071784,1.241277,0.390953,2.487442
2026-01-18T19:44:37.412670,7.278966,-2.421536,-0.588634,1.469741,0.322536,2.554637
2026-01-18T19:44:37.421670,7.829315,-2.057827,-1.191625,1.571145,0.299323,2.640159
2026-01-18T19:44:37.431670,8.331808,-2.124826,-1.182054,1.585805,0.318871,2.712241
2026-01-18T19:44:37.441670,8.834301,-2.383251,-0.918843,1.644448,0.401949,2.753779
2026-01-18T19:44:37.450670,8.953942,-2.522035,-0.698704,1.810604,0.574213,2.774549
2026-01-18T19:44:37.460670,8.877371,-2.383251,-0.349352,2.012189,0.773355,2.785544
2026-01-18T19:44:37.469670,8.556733,-1.823330,-0.421136,2.134362,0.939510,2.812422
2026-01-18T19:44:37.479670,8.149953,-1.081555,-0.574277,2.086715,1.034805,2.888170
2026-01-18T19:44:37.489670,7.747959,-0.100498,-0.301495,1.858251,1.047022,2.982243
2026-01-18T19:44:37.498670,7.527819,0.717846,-0.004785,1.411098,0.971275,3.101973
2026-01-18T19:44:37.508670,7.542176,1.138983,0.153140,0.810007,0.860098,3.242472
2026-01-18T19:44:37.518670,7.733602,1.220339,0.488135,0.215024,0.775798,3.362201
2026-01-18T19:44:37.527670,8.035098,0.512064,0.636490,-0.360410,0.708603,3.481931
2026-01-18T19:44:37.537670,8.757730,-1.464407,0.497707,-0.814894,0.627969,3.552791
2026-01-18T19:44:37.546670,9.552147,-4.235296,0.564706,-0.945619,0.664621,3.552791
2026-01-18T19:44:37.556670,10.068997,-7.010970,0.229710,-0.653625,0.755029,3.543017
2026-01-18T19:44:37.566670,10.246066,-8.867800,0.057427,0.014660,0.844215,3.517361
2026-01-18T19:44:37.575670,10.351350,-9.427721,0.110069,0.919962,0.899193,3.508809
2026-01-18T19:44:37.585670,10.375278,-8.547162,0.253639,1.747074,0.910189,3.528356
2026-01-18T19:44:37.594670,10.461420,-6.503691,0.612562,2.153910,0.857654,3.634647
2026-01-18T19:44:37.604670,10.633703,-4.374079,1.014556,2.004859,0.766024,3.782476
2026-01-18T19:44:37.614670,10.954341,-2.871387,1.617548,1.452637,0.693942,3.903428
2026-01-18T19:44:37.623670,11.198409,-2.426322,2.421536,0.734259,0.662177,3.995057
2026-01-18T19:44:37.633670,11.327622,-2.770888,2.737389,0.040317,0.657290,4.094017
2026-01-18T19:44:37.643670,11.313265,-4.551148,2.565105,-0.542448,0.653625,4.185647
2026-01-18T19:44:37.652670,11.318050,-7.345965,1.842473,-0.845437,0.670729,4.223521
2026-01-18T19:44:37.662670,11.164910,-10.193424,1.397408,-0.729372,0.733038,4.225964
2026-01-18T19:44:37.671670,10.825129,-12.203395,0.545563,-0.147829,0.825889,4.177095
2026-01-18T19:44:37.681670,10.107282,-12.820743,0.100498,0.823446,0.875980,4.092796
2026-01-18T19:44:37.691670,9.547362,-12.198609,0.708275,1.759291,0.780685,3.987727
2026-01-18T19:44:37.700670,9.413364,-10.963913,1.550549,2.351830,0.555887,3.957184
2026-01-18T19:44:37.710670,9.863214,-9.241080,2.158325,2.587624,0.321315,3.974288
2026-01-18T19:44:37.719670,10.825129,-7.714460,2.861815,2.403143,0.197920,4.006053
2026-01-18T19:44:37.729670,11.514262,-6.738188,3.579662,1.913229,0.224798,4.058587
2026-01-18T19:44:37.739670,11.691331,-5.848058,3.684946,1.337794,0.383623,4.094017
2026-01-18T19:44:37.748670,11.117053,-5.201996,4.015156,0.685390,0.599869,4.101348
2026-01-18T19:44:37.758670,9.887142,-5.532205,4.450650,-0.032986,0.751364,4.100126
2026-01-18T19:44:37.768670,8.676374,-6.857829,4.575076,-0.560774,0.788015,4.042705
2026-01-18T19:44:37.777670,7.757530,-8.738588,4.699503,-0.834441,0.734259,3.973066
2026-01-18T19:44:37.787670,7.302894,-10.762916,4.469792,-0.852767,0.642630,3.888767
2026-01-18T19:44:37.796670,7.082754,-12.256037,3.933800,-0.530230,0.572991,3.753155
2026-01-18T19:44:37.806670,6.771687,-12.547961,3.713660,0.075747,0.555887,3.524691
2026-01-18T19:44:37.816670,6.465406,-11.992826,3.924229,0.553443,0.505796,3.329214
2026-01-18T19:44:37.825670,6.412764,-10.882557,4.431507,0.831998,0.417831,3.117855
2026-01-18T19:44:37.835670,6.384050,-9.293722,5.044070,0.946840,0.370184,2.847853
2026-01-18T19:44:37.844670,6.465406,-8.035098,5.733202,0.886976,0.404392,2.506990
2026-01-18T19:44:37.854670,6.546762,-7.714460,5.680560,0.660956,0.502131,2.179566
2026-01-18T19:44:37.864670,6.369693,-8.015955,5.393422,0.427605,0.669508,1.875355
2026-01-18T19:44:37.873670,5.838487,-8.461020,4.728217,0.239459,0.897971,1.539380
2026-01-18T19:44:37.883670,4.756931,-9.092725,4.579862,0.201585,1.121548,1.149648
2026-01-18T19:44:37.893670,3.273381,-8.977870,4.622933,0.449596,1.296255,0.690277
2026-01-18T19:44:37.902670,1.579262,-8.212167,4.206582,0.772133,1.296255,0.237015
2026-01-18T19:44:37.912670,0.277567,-7.805387,4.369294,0.867428,1.040914,-0.230907
2026-01-18T19:44:37.921670,-0.014356,-8.130811,4.943571,0.713490,0.602312,-0.668286
2026-01-18T19:44:37.931670,0.583848,-8.953942,5.187639,0.404392,0.118507,-1.073900
2026-01-18T19:44:37.941670,2.014756,-10.528419,5.010570,-0.268780,-0.379958,-1.361007
2026-01-18T19:44:37.950670,4.216153,-12.643674,5.551348,-0.813672,-0.806341,-1.714087
2026-01-18T19:44:37.960670,6.331408,-13.634303,5.876772,-0.745255,-0.982271,-2.213775
2026-01-18T19:44:37.969670,7.800601,-12.782458,5.790630,-0.268780,-0.923628,-2.665815
2026-01-18T19:44:37.979670,8.322237,-10.313065,5.297709,0.256563,-0.708603,-3.088534
2026-01-18T19:44:37.989670,8.015955,-7.666603,5.182853,0.475253,-0.467922,-3.457496
2026-01-18T19:44:37.998670,7.293323,-6.082555,5.053641,0.224798,-0.376292,-3.762929
2026-01-18T19:44:38.008670,6.843472,-6.206981,4.929214,-0.377514,-0.518013,-3.979175
2026-01-18T19:44:38.018670,7.264609,-7.881957,4.967499,-1.199739,-0.906523,-4.075692
2026-01-18T19:44:38.027670,9.011369,-10.911271,4.862215,-2.003637,-1.425759,-4.070805
2026-01-18T19:44:38.037670,11.542976,-13.921441,4.402793,-2.315178,-1.828930,-4.084244
2026-01-18T19:44:38.046670,13.811372,-15.419348,3.881158,-1.861916,-1.842369,-4.233295
2026-01-18T19:44:38.056670,14.754144,-14.596217,3.034099,-0.906523,-1.414763,-4.392120
2026-01-18T19:44:38.066670,13.739587,-11.892328,2.392822,0.073303,-0.768468,-4.543614
2026-01-18T19:44:38.075670,11.341979,-8.676374,2.191825,0.642630,-0.282219,-4.663344
2026-01-18T19:44:38.085670,8.748159,-6.139982,1.986042,0.686612,-0.201585,-4.770856
2026-01-18T19:44:38.094670,6.939185,-4.603790,1.756331,0.344527,-0.544891,-4.873482
2026-01-18T19:44:38.104670,6.532405,-4.206582,1.263410,-0.230907,-1.203404,-4.910133
2026-01-18T19:44:38.114670,7.838886,-5.206781,1.301695,-0.972497,-2.029293,-4.872260
2026-01-18T19:44:38.123670,11.303693,-8.164310,1.646261,-1.800830,-2.879618,-4.753751
2026-01-18T19:44:38.133670,16.319050,-11.485548,1.986042,-2.193005,-3.473379,-4.574157
2026-01-18T19:44:38.143670,21.037697,-13.361521,1.674975,-1.773952,-3.354871,-4.425106
2026-01-18T19:44:38.152670,23.330021,-13.155738,1.349551,-0.901636,-2.416582,-4.268725
2026-01-18T19:44:38.162670,22.133610,-11.456834,1.555334,-0.079412,-1.060461,-4.073248
2026-01-18T19:44:38.171670,18.065809,-9.317651,1.517049,0.270002,0.083077,-3.822793
2026-01-18T19:44:38.181670,13.313664,-7.829315,1.564905,0.267558,0.593760,-3.615099
2026-01-18T19:44:38.191670,9.303294,-6.489334,1.627119,0.226020,0.450818,-3.477044
2026-01-18T19:44:38.200670,6.872186,-5.130211,1.215553,0.136833,-0.127059,-3.375640
2026-01-18T19:44:38.210670,6.135197,-4.125226,0.794417,0.030543,-0.907745,-3.358536
2026-01-18T19:44:38.219670,7.010970,-3.043670,0.392422,-0.003665,-1.681100,-3.412292
2026-01-18T19:44:38.229670,9.174081,-1.947757,-0.196211,-0.046425,-2.273639,-3.463605
2026-01-18T19:44:38.239670,11.705688,-1.186840,-0.047856,-0.156381,-2.524094,-3.508809
2026-01-18T19:44:38.248670,13.744373,-0.354137,-0.291924,-0.361632,-2.366491,-3.503922
2026-01-18T19:44:38.258670,14.629717,0.138783,-0.344566,-0.737925,-1.936442,-3.434283
2026-01-18T19:44:38.268670,14.347364,0.081355,0.478564,-1.247386,-1.452637,-3.341432
2026-01-18T19:44:38.277670,13.404592,-0.196211,1.473978,-1.726304,-1.051909,-3.232698
2026-01-18T19:44:38.287670,12.169895,-0.813559,1.785045,-2.180788,-0.823446,-3.103194
2026-01-18T19:44:38.296670,11.174481,-1.962114,1.536192,-2.491107,-0.768468,-2.978578
2026-01-18T19:44:38.306670,10.705488,-3.139383,1.397408,-2.498438,-0.805120,-2.895500
2026-01-18T19:44:38.316670,10.533205,-3.684946,1.143769,-2.257757,-0.863763,-2.836857
2026-01-18T19:44:38.325670,10.557133,-3.948157,0.894915,-1.865582,-0.916297,-2.791653
2026-01-18T19:44:38.335670,10.882557,-3.617947,0.535992,-1.372003,-0.962723,-2.757445
2026-01-18T19:44:38.344670,11.169695,-2.962314,0.244067,-0.928514,-0.960279,-2.700023
2026-01-18T19:44:38.354670,11.423335,-2.292324,0.177068,-0.612086,-0.862541,-2.634050
2026-01-18T19:44:38.364670,11.313265,-1.713260,0.162711,-0.421496,-0.674395,-2.538755
2026-01-18T19:44:38.373670,10.772487,-1.339980,0.210568,-0.329867,-0.455705,-2.425134
2026-01-18T19:44:38.383670,9.973284,-1.349551,0.330209,-0.304210,-0.273667,-2.288300
2026-01-18T19:44:38.393670,8.958727,-1.483550,0.449850,-0.294436,-0.184481,-2.133140
2026-01-18T19:44:38.402670,7.977670,-1.536192,0.713061,-0.267558,-0.185702,-1.970650
2026-01-18T19:44:38.412670,7.336394,-1.617548,1.258624,-0.201585,-0.248011,-1.809382
2026-01-18T19:44:38.421670,6.896114,-1.488335,1.454836,-0.101403,-0.331088,-1.644448
2026-01-18T19:44:38.431670,6.738188,-1.119840,1.464407,-0.025656,-0.394618,-1.473406
2026-01-18T19:44:38.441670,6.513263,-0.669990,1.292124,0.013439,-0.397062,-1.314581
2026-01-18T19:44:38.450670,6.163911,-0.105284,0.933200,0.001221,-0.320093,-1.186300
2026-01-18T19:44:38.460670,5.441278,0.258424,0.488135,-0.106290,-0.210137,-1.081231
2026-01-18T19:44:38.469670,4.689932,0.215354,0.196211,-0.280997,-0.136833,-0.989601
2026-01-18T19:44:38.479670,3.972085,-0.138783,0.287138,-0.450818,-0.145385,-0.919962
2026-01-18T19:44:38.489670,3.440878,-0.775274,0.416351,-0.570548,-0.224798,-0.852767
2026-01-18T19:44:38.498670,3.215953,-1.435693,0.507278,-0.570548,-0.346971,-0.802676
2026-01-18T19:44:38.508670,3.426521,-1.914258,0.631705,-0.452040,-0.482583,-0.761137
2026-01-18T19:44:38.518670,3.799802,-2.029113,0.770488,-0.233350,-0.582765,-0.735481
2026-01-18T19:44:38.527670,4.211367,-1.828116,0.981057,0.010995,-0.582765,-0.719599
2026-01-18T19:44:38.537670,4.488935,-1.354337,1.115055,0.227241,-0.481361,-0.684168
2026-01-18T19:44:38.546670,4.297509,-0.641276,1.234696,0.355523,-0.315206,-0.660956
2026-01-18T19:44:38.556670,3.842873,0.038285,1.349551,0.335975,-0.138055,-0.618195
2026-01-18T19:44:38.566670,3.225524,0.244067,1.469193,0.213802,-0.020769,-0.568104
2026-01-18T19:44:38.575670,2.766102,0.119641,1.368694,0.052534,-0.018325,-0.503352
2026-01-18T19:44:38.585670,2.857030,-0.167497,1.344766,-0.092851,-0.138055,-0.421496
2026-01-18T19:44:38.594670,3.364308,-0.445065,1.186840,-0.171042,-0.337197,-0.343306
2026-01-18T19:44:38.604670,4.445864,-0.535992,1.134197,-0.177150,-0.509461,-0.274889
2026-01-18T19:44:38.614670,5.647061,-0.478564,0.933200,-0.124616,-0.598647,-0.228463
2026-01-18T19:44:38.623670,6.857829,-0.133998,0.909272,-0.069638,-0.602312,-0.193033
2026-01-18T19:44:38.633670,7.958527,0.167497,0.971485,-0.089186,-0.551000,-0.142942
2026-01-18T19:44:38.643670,8.939585,0.311066,0.827916,-0.177150,-0.471587,-0.084299
2026-01-18T19:44:38.652670,9.767501,0.488135,0.875773,-0.287106,-0.386066,-0.019547
2026-01-18T19:44:38.662670,10.456634,0.468993,0.784845,-0.428827,-0.310319,0.064751
2026-01-18T19:44:38.671670,11.255837,0.421136,0.727418,-0.574213,-0.222354,0.167377
2026-01-18T19:44:38.681670,11.686545,0.373280,0.483350,-0.707381,-0.068416,0.294436
2026-01-18T19:44:38.691670,11.509476,0.339780,0.162711,-0.840550,0.166155,0.432492
2026-01-18T19:44:38.700670,10.700702,0.148355,0.105284,-0.966388,0.442266,0.554665
2026-01-18T19:44:38.710670,9.394221,-0.095712,0.282353,-1.070235,0.656069,0.675616
2026-01-18T19:44:38.719670,8.020741,-0.574277,0.478564,-1.122770,0.712268,0.789237
2026-01-18T19:44:38.729670,7.020541,-1.306481,1.062413,-1.075122,0.624304,0.891863
2026-01-18T19:44:38.739670,6.690331,-2.081755,1.363908,-0.884532,0.459370,0.972497
2026-01-18T19:44:38.748670,6.833901,-2.593819,1.478764,-0.542448,0.311541,1.021366
2026-01-18T19:44:38.758670,7.298108,-2.455035,1.402194,-0.116064,0.272445,1.038470
2026-01-18T19:44:38.768670,7.556533,-1.411765,1.014556,0.226020,0.375071,1.059240
2026-01-18T19:44:38.777670,7.336394,-0.028713,1.119840,0.287106,0.551000,1.104444
2026-01-18T19:44:38.787670,6.699903,0.937986,1.426122,0.045204,0.697607,1.191186
2026-01-18T19:44:38.796670,6.192624,1.158126,1.737189,-0.386066,0.744033,1.306029
2026-01-18T19:44:38.806670,5.733202,0.540777,1.727617,-0.880867,0.674395,1.444085
2026-01-18T19:44:38.816670,5.642275,-0.890130,1.277767,-1.224173,0.540004,1.583362
2026-01-18T19:44:38.825670,5.781059,-2.388036,1.138983,-1.227838,0.417831,1.682322
2026-01-18T19:44:38.835670,5.915057,-3.574876,1.014556,-0.923628,0.333532,1.745852
2026-01-18T19:44:38.844670,6.116054,-4.264009,0.770488,-0.420275,0.287106,1.788613
2026-01-18T19:44:38.854670,6.250052,-4.402793,0.430708,0.158824,0.291993,1.833817
2026-01-18T19:44:38.864670,6.240481,-4.101297,0.583848,0.723264,0.361632,1.898568
2026-01-18T19:44:38.873670,6.125625,-3.254238,0.990628,1.183856,0.467922,1.966985
2026-01-18T19:44:38.883670,6.058626,-2.239681,0.966700,1.435533,0.565661,2.063502
2026-01-18T19:44:38.893670,5.915057,-1.249053,0.827916,1.483180,0.627969,2.175901
2026-01-18T19:44:38.902670,5.905486,-0.464207,0.765703,1.367116,0.656069,2.289522
2026-01-18T19:44:38.912670,6.139982,-0.119641,0.717846,1.100778,0.640186,2.416582
2026-01-18T19:44:38.921670,6.532405,-0.416351,0.756131,0.759916,0.599869,2.557081
2026-01-18T19:44:38.931670,6.982256,-1.277767,0.650847,0.492357,0.592539,2.695136
2026-01-18T19:44:38.941670,7.245466,-2.187039,0.559920,0.372627,0.647517,2.812422
2026-01-18T19:44:38.950670,7.183253,-2.670390,0.315852,0.400727,0.726929,2.894278
2026-01-18T19:44:38.960670,6.924828,-2.991028,0.014356,0.488692,0.791681,2.956587
2026-01-18T19:44:38.969670,6.695117,-3.287738,0.153140,0.597426,0.779463,3.025004
2026-01-18T19:44:38.979670,6.833901,-3.431307,0.770488,0.731816,0.654847,3.103194
2026-01-18T19:44:38.989670,7.747959,-3.416950,1.048056,0.836885,0.476474,3.176498
2026-01-18T19:44:38.998670,9.016155,-3.321237,0.861416,0.897971,0.351858,3.237585
2026-01-18T19:44:39.008670,10.269994,-2.967100,0.430708,0.915075,0.392175,3.284010
2026-01-18T19:44:39.018670,10.939984,-2.675175,0.181854,0.822224,0.602312,3.330436
2026-01-18T19:44:39.027670,10.944770,-2.780459,0.301495,0.634077,0.913854,3.380527
2026-01-18T19:44:39.037670,10.442277,-3.517449,0.579063,0.439822,1.131322,3.472157
2026-01-18T19:44:39.046670,9.896714,-4.953142,1.454836,0.282219,1.205847,3.583334
2026-01-18T19:44:39.056670,9.667003,-6.632904,1.689332,0.251676,1.080009,3.747046
2026-01-18T19:44:39.066670,10.068997,-7.814958,1.392622,0.443488,0.828333,3.924197
2026-01-18T19:44:39.075670,11.021340,-8.202595,0.966700,0.808785,0.557108,4.053700
2026-01-18T19:44:39.085670,12.227323,-7.709674,0.401994,1.232725,0.372627,4.158769
2026-01-18T19:44:39.094670,13.280165,-6.642475,0.210568,1.562592,0.326201,4.235738
2026-01-18T19:44:39.104670,13.974083,-5.374279,0.090927,1.623679,0.403170,4.340807
2026-01-18T19:44:39.114670,14.002797,-4.761716,-0.009571,1.372003,0.561995,4.449541
2026-01-18T19:44:39.123670,13.457234,-5.058426,-0.100498,0.928514,0.742811,4.533840
2026-01-18T19:44:39.133670,12.480962,-6.125625,0.626919,0.564439,0.858876,4.541171
2026-01-18T19:44:39.143670,11.542976,-7.561319,1.354337,0.327423,0.816115,4.527732
2026-01-18T19:44:39.152670,11.026126,-8.906085,1.440479,0.257785,0.621860,4.520401
2026-01-18T19:44:39.162670,10.695917,-9.494720,1.622333,0.461814,0.415388,4.436102
2026-01-18T19:44:39.171670,10.600204,-9.327222,1.679761,0.736703,0.283441,4.359133
2026-01-18T19:44:39.181670,10.317851,-8.690731,1.335195,0.941954,0.217467,4.313929
2026-01-18T19:44:39.191670,9.934999,-7.834101,1.349551,1.026253,0.166155,4.284607
2026-01-18T19:44:39.200670,9.614361,-7.149753,1.746760,0.916297,0.106290,4.251621
2026-01-18T19:44:39.210670,9.336793,-7.350751,2.043470,0.559552,-0.001221,4.274834
2026-01-18T19:44:39.219670,9.355936,-8.159525,2.474178,0.218689,-0.113620,4.258951
2026-01-18T19:44:39.229670,9.489934,-9.145367,2.545963,-0.048869,-0.167377,4.218634
2026-01-18T19:44:39.239670,9.509077,-9.958927,2.804388,-0.169820,-0.106290,4.163656
2026-01-18T19:44:39.248670,8.987441,-10.470991,2.991028,-0.013439,0.092851,4.020714
2026-01-18T19:44:39.258670,8.011170,-10.911271,2.737389,0.103847,0.310319,3.921754
2026-01-18T19:44:39.268670,6.747759,-11.021340,2.837887,0.348193,0.497244,3.729942
2026-01-18T19:44:39.277670,5.450849,-10.667203,3.326023,0.585208,0.551000,3.486818
2026-01-18T19:44:39.287670,4.632504,-10.159924,3.680161,0.709825,0.375071,3.286454
2026-01-18T19:44:39.296670,4.570291,-9.054440,3.555734,0.875980,0.081855,2.994460
2026-01-18T19:44:39.306670,5.312066,-8.255237,3.469592,0.740368,-0.194255,2.757445
2026-01-18T19:44:39.316670,6.283552,-8.499305,3.483949,0.400727,-0.294436,2.571742
2026-01-18T19:44:39.325670,7.063612,-9.054440,3.058027,0.140498,-0.160046,2.365269
2026-01-18T19:44:39.335670,7.121040,-10.040283,3.493520,-0.095294,0.142942,2.136806
2026-01-18T19:44:39.344670,6.470192,-11.236694,4.034298,-0.149051,0.421496,1.927890
2026-01-18T19:44:39.354670,5.359922,-11.877971,4.527220,0.051312,0.615752,1.670105
2026-01-18T19:44:39.364670,4.096512,-12.035897,5.058426,0.279776,0.686612,1.379333
2026-01-18T19:44:39.373670,2.971885,-11.643474,5.709274,0.640186,0.660956,0.949284
2026-01-18T19:44:39.383670,2.344966,-10.648060,6.130411,1.005483,0.572991,0.427605
2026-01-18T19:44:39.393670,2.153540,-9.643075,6.498906,1.219286,0.483805,-0.135612
2026-01-18T19:44:39.402670,2.321037,-8.633303,6.269195,1.281595,0.417831,-0.689055
2026-01-18T19:44:39.412670,2.713460,-8.097311,5.886343,1.060461,0.355523,-1.171639
2026-01-18T19:44:39.421670,3.292523,-8.489734,5.225924,0.491135,0.265115,-1.577253
2026-01-18T19:44:39.431670,4.091726,-10.351350,4.292723,-0.487470,0.124616,-1.813047
2026-01-18T19:44:39.441670,4.934000,-12.945170,3.914657,-1.269377,-0.032986,-2.072054
2026-01-18T19:44:39.450670,5.862415,-14.591432,3.101098,-1.298699,-0.135612,-2.475225
2026-01-18T19:44:39.460670,6.431907,-14.854642,1.981257,-0.734259,-0.218689,-2.891835
2026-01-18T19:44:39.469670,6.809973,-13.797015,2.053041,0.098960,-0.299323,-3.312110
2026-01-18T19:44:39.479670,6.872186,-11.605189,2.957528,0.926071,-0.378736,-3.706729
2026-01-18T19:44:39.489670,6.805187,-8.657232,3.895515,1.453858,-0.485026,-4.079357
2026-01-18T19:44:39.498670,6.853043,-6.120840,4.584648,1.470963,-0.698829,-4.384789
2026-01-18T19:44:39.508670,7.422535,-4.599005,5.048855,1.004262,-1.048244,-4.610809
2026-01-18T19:44:39.518670,9.025726,-4.503292,5.795416,0.171042,-1.503949,-4.768412
2026-01-18T19:44:39.527670,11.672188,-5.804987,5.570491,-0.945619,-1.908342,-4.773299
2026-01-18T19:44:39.537670,14.361721,-8.279166,4.010370,-1.926668,-2.030515,-4.718322
2026-01-18T19:44:39.546670,16.414762,-11.174481,2.158325,-2.421469,-1.760513,-4.728095
2026-01-18T19:44:39.556670,16.821543,-13.189238,0.952343,-2.138027,-1.143539,-4.811173
2026-01-18T19:44:39.566670,15.357135,-13.160524,0.382851,-1.117883,-0.463035,-4.935790
2026-01-18T19:44:39.575670,12.748958,-11.547761,1.349551,-0.021991,-0.017104,-5.039637
2026-01-18T19:44:39.585670,9.939785,-9.207581,2.297109,0.740368,0.035430,-5.093393
2026-01-18T19:44:39.594670,8.039883,-7.010970,2.967100,0.939510,-0.307876,-5.054298
2026-01-18T19:44:39.604670,7.451249,-5.953342,3.144168,0.574213,-0.913854,-4.974885
2026-01-18T19:44:39.614670,8.355736,-6.029912,2.751745,0.058643,-1.609018,-4.902803
2026-01-18T19:44:39.623670,10.576275,-6.513263,2.732603,-0.399505,-2.229657,-4.847825
2026-01-18T19:44:39.633670,13.418949,-7.226324,1.794616,-0.784350,-2.592511,-4.770856
2026-01-18T19:44:39.643670,15.787843,-7.838886,0.066999,-1.004262,-2.592511,-4.676783
2026-01-18T19:44:39.652670,17.228321,-8.087740,-0.717846,-1.022588,-2.365269,-4.583931
2026-01-18T19:44:39.662670,18.075380,-8.317451,-0.344566,-0.928514,-2.086715,-4.453206
2026-01-18T19:44:39.671670,18.463018,-8.805587,0.435493,-0.814894,-1.802052,-4.173430
2026-01-18T19:44:39.681670,18.151953,-9.135796,0.837487,-0.670729,-1.442863,-3.839898
2026-01-18T19:44:39.691670,16.869398,-9.576076,1.158126,-0.571769,-1.009149,-3.486818
2026-01-18T19:44:39.700670,14.959926,-9.858429,1.335195,-0.376292,-0.620638,-3.180163
2026-01-18T19:44:39.710670,12.562318,-9.073583,1.296909,0.070860,-0.410501,-2.962695
2026-01-18T19:44:39.719670,10.427920,-7.087540,1.469193,0.554665,-0.416610,-2.834414
2026-01-18T19:44:39.729670,9.035298,-4.756931,1.871187,0.829554,-0.618195,-2.740340
2026-01-18T19:44:39.739670,8.413164,-2.469392,1.799402,0.786794,-0.912632,-2.656041
2026-01-18T19:44:39.748670,8.394021,-0.746560,1.239482,0.464257,-1.187521,-2.583959
2026-01-18T19:44:39.758670,8.705088,0.564706,0.550349,-0.028099,-1.354898,-2.524094
2026-01-18T19:44:39.768670,9.030512,1.296909,-0.004785,-0.597426,-1.406211,-2.476447
2026-01-18T19:44:39.777670,9.231509,1.679761,-0.162711,-1.209512,-1.381776,-2.414138
2026-01-18T19:44:39.787670,9.432506,1.287338,0.019142,-1.861916,-1.348790,-2.311513
2026-01-18T19:44:39.796670,9.810572,0.258424,0.607776,-2.448347,-1.339016,-2.219883
2026-01-18T19:44:39.806670,10.188638,-1.004985,0.875773,-2.847853,-1.321912,-2.108706
2026-01-18T19:44:39.816670,10.485348,-2.038684,0.966700,-2.974913,-1.241277,-2.029293
2026-01-18T19:44:39.825670,10.595418,-2.636890,1.134197,-2.856405,-1.065348,-1.996307
2026-01-18T19:44:39.835670,10.327422,-2.833101,1.076770,-2.581515,-0.835663,-1.974316
2026-01-18T19:44:39.844670,9.748359,-2.608176,1.105484,-2.233322,-0.632856,-1.963320
2026-01-18T19:44:39.854670,9.011369,-2.210968,1.115055,-1.929112,-0.491135,-1.937664
2026-01-18T19:44:39.864670,8.312665,-1.914258,0.722632,-1.703091,-0.419053,-1.903455
2026-01-18T19:44:39.873670,7.738388,-1.579262,0.497707,-1.481958,-0.382401,-1.890016
2026-01-18T19:44:39.883670,7.216752,-1.268195,0.162711,-1.241277,-0.367740,-1.899790
2026-01-18T19:44:39.893670,7.054041,-1.119840,0.488135,-1.011592,-0.416610,-1.908342
2026-01-18T19:44:39.902670,7.135396,-1.000199,0.952343,-0.744033,-0.489913,-1.952324
2026-01-18T19:44:39.912670,7.427321,-0.947557,0.885344,-0.609643,-0.516791,-1.931555
2026-01-18T19:44:39.921670,7.771887,-1.272981,0.674775,-0.583987,-0.491135,-1.868025
2026-01-18T19:44:39.931670,7.925028,-1.363908,0.559920,-0.546113,-0.395840,-1.761734
2026-01-18T19:44:39.941670,7.623532,-1.162911,0.631705,-0.529009,-0.227241,-1.629788
2026-01-18T19:44:39.950670,6.742974,-0.823130,0.555134,-0.538783,-0.037873,-1.473406
2026-01-18T19:44:39.960670,5.532205,-0.349352,0.784845,-0.564439,0.125838,-1.320690
2026-01-18T19:44:39.969670,4.163511,-0.071784,1.110269,-0.664621,0.207694,-1.163087
2026-01-18T19:44:39.979670,3.029313,-0.181854,1.292124,-0.758694,0.182037,-1.003040
2026-01-18T19:44:39.989670,2.163111,-0.330209,1.373480,-0.757472,0.070860,-0.875980
2026-01-18T19:44:39.998670,1.703689,-0.564706,1.311266,-0.685390,-0.076969,-0.780685
2026-01-18T19:44:40.008670,1.689332,-0.727418,0.899701,-0.580321,-0.217467,-0.707381
2026-01-18T19:44:40.018670,1.928615,-1.004985,0.756131,-0.456927,-0.333532,-0.637743
2026-01-18T19:44:40.027670,2.450250,-1.182054,0.904486,-0.365297,-0.415388,-0.572991
2026-01-18T19:44:40.037670,3.058027,-1.435693,1.086341,-0.310319,-0.447153,-0.497244
2026-01-18T19:44:40.046670,3.737588,-1.689332,1.301695,-0.249232,-0.432492,-0.416610
2026-01-18T19:44:40.056670,4.273581,-1.703689,1.493121,-0.173485,-0.368962,-0.326201
2026-01-18T19:44:40.066670,4.694717,-1.435693,1.775474,-0.098960,-0.274889,-0.246789
2026-01-18T19:44:40.075670,4.905286,-1.004985,1.856830,-0.054977,-0.194255,-0.189368
2026-01-18T19:44:40.085670,5.197210,-0.741775,2.067398,-0.086742,-0.175929,-0.134390
2026-01-18T19:44:40.094670,5.680560,-0.655633,2.153540,-0.149051,-0.241902,-0.089186
2026-01-18T19:44:40.104670,6.613761,-0.660419,1.785045,-0.227241,-0.353080,-0.048869
2026-01-18T19:44:40.114670,7.834101,-0.866201,1.239482,-0.299323,-0.450818,-0.030543
2026-01-18T19:44:40.123670,9.274580,-1.239482,0.890130,-0.355523,-0.480139,-0.021991
2026-01-18T19:44:40.133670,10.619346,-1.842473,0.803988,-0.415388,-0.437379,0.008552
2026-01-18T19:44:40.143670,11.724830,-2.656033,1.100698,-0.438601,-0.300545,0.086742
2026-01-18T19:44:40.152670,12.327822,-3.359522,1.363908,-0.359188,-0.056199,0.197920
2026-01-18T19:44:40.162670,12.131610,-3.795016,1.373480,-0.162490,0.273667,0.334754
2026-01-18T19:44:40.171670,11.102696,-3.775874,1.464407,0.101403,0.631634,0.483805
2026-01-18T19:44:40.181670,9.284151,-3.479164,1.919043,0.394618,0.937067,0.638964
2026-01-18T19:44:40.191670,7.408178,-2.751745,2.153540,0.678060,1.075122,0.817337
2026-01-18T19:44:40.200670,5.800201,-1.914258,2.263610,0.839328,1.017701,1.025031
2026-01-18T19:44:40.210670,4.905286,-1.272981,2.225325,0.866206,0.839328,1.242499
2026-01-18T19:44:40.219670,4.613361,-0.861416,2.201396,0.805120,0.632856,1.451415
2026-01-18T19:44:40.229670,4.905286,-0.650847,1.770688,0.651182,0.476474,1.653000
2026-01-18T19:44:40.239670,5.350351,-0.765703,1.497906,0.452040,0.414166,1.843590
2026-01-18T19:44:40.248670,5.843272,-1.048056,1.368694,0.268780,0.438601,2.020741
2026-01-18T19:44:40.258670,6.144768,-1.588834,1.158126,0.120951,0.500909,2.194227
2026-01-18T19:44:40.268670,6.374479,-2.086541,1.138983,0.064751,0.544891,2.360382
2026-01-18T19:44:40.277670,6.628118,-2.421536,1.138983,0.102625,0.532674,2.503325
2026-01-18T19:44:40.287670,7.015755,-2.852244,1.038485,0.210137,0.474031,2.616946
2026-01-18T19:44:40.296670,7.575676,-3.034099,0.990628,0.448374,0.437379,2.689028
2026-01-18T19:44:40.306670,8.121239,-2.928814,0.995414,0.753807,0.469144,2.735453
2026-01-18T19:44:40.316670,8.441878,-2.402393,1.110269,1.023809,0.571769,2.779436
2026-01-18T19:44:40.325670,8.537591,-1.765903,0.990628,1.178969,0.720820,2.824640
2026-01-18T19:44:40.335670,8.417949,-1.330409,0.464207,1.152091,0.871093,2.893057
2026-01-18T19:44:40.344670,8.073383,-1.282552,0.129212,1.003040,1.003040,2.968804
2026-01-18T19:44:40.354670,7.599604,-1.502692,-0.272781,0.828333,1.100778,3.057990
2026-01-18T19:44:40.364670,7.054041,-1.818545,-0.775274,0.681725,1.130100,3.148398
2026-01-18T19:44:40.373670,6.580262,-2.177468,-0.660419,0.626747,1.067792,3.219259
2026-01-18T19:44:40.383670,6.565905,-2.555534,-0.014356,0.613308,0.908967,3.271793
2026-01-18T19:44:40.393670,6.809973,-3.235096,-0.315852,0.596204,0.707381,3.349984
2026-01-18T19:44:40.402670,7.575676,-3.795016,-0.445065,0.748920,0.530230,3.387857
2026-01-18T19:44:40.412670,8.283951,-3.617947,0.267996,1.029918,0.427605,3.392744
2026-01-18T19:44:40.421670,9.078368,-3.081955,0.751346,1.241277,0.410501,3.404962
2026-01-18T19:44:40.431670,9.547362,-2.608176,0.454636,1.290147,0.513126,3.430618
2026-01-18T19:44:40.441670,9.556933,-2.383251,0.311066,1.207069,0.702494,3.458718
2026-01-18T19:44:40.450670,9.126225,-2.349751,0.110069,0.979827,0.885754,3.499035
2026-01-18T19:44:40.460670,8.365307,-2.866601,-0.421136,0.685390,0.968832,3.561343
2026-01-18T19:44:40.469670,7.824529,-3.498306,-0.847059,0.441044,0.886976,3.621208
2026-01-18T19:44:40.479670,7.666603,-4.354937,-0.823130,0.233350,0.620638,3.690847
2026-01-18T19:44:40.489670,8.145168,-5.321637,-0.717846,0.080634,0.229685,3.770259
2026-01-18T19:44:40.498670,9.418149,-6.144768,-0.478564,0.114842,-0.164933,3.803246
2026-01-18T19:44:40.508670,10.997412,-6.518048,0.483350,0.313984,-0.398284,3.771481
2026-01-18T19:44:40.518670,12.409178,-6.532405,1.201196,0.555887,-0.415388,3.767816
2026-01-18T19:44:40.527670,13.442877,-6.321837,2.072184,0.757472,-0.199142,3.777589
2026-01-18T19:44:40.537670,13.878371,-6.326622,3.125026,0.785572,0.178372,3.854558
2026-01-18T19:44:40.546670,13.505090,-6.575476,3.804587,0.605978,0.581543,4.032931
2026-01-18T19:44:40.556670,12.715459,-7.001398,3.876372,0.307876,0.890641,4.272390
2026-01-18T19:44:40.566670,11.571690,-7.518248,2.952743,-0.062308,1.076344,4.543614
2026-01-18T19:44:40.575670,10.447063,-8.164310,2.081755,-0.388510,1.122770,4.768412
2026-01-18T19:44:40.585670,9.384650,-8.910871,1.483550,-0.654847,1.018923,4.922351
2026-01-18T19:44:40.594670,8.762516,-10.021141,0.923629,-0.801455,0.800233,4.985881
2026-01-18T19:44:40.604670,8.513662,-11.145767,0.483350,-0.640186,0.570548,4.954115
2026-01-18T19:44:40.614670,8.394021,-12.016755,0.263210,-0.255341,0.375071,4.902803
2026-01-18T19:44:40.623670,8.336593,-12.323036,0.602991,0.254119,0.239459,4.847825
2026-01-18T19:44:40.633670,8.207381,-11.863614,0.914058,0.965166,0.206472,4.697553
2026-01-18T19:44:40.643670,7.858029,-10.786844,1.813759,1.620014,0.228463,4.550945
2026-01-18T19:44:40.652670,7.666603,-9.245866,2.478964,2.135584,0.254119,4.408002
2026-01-18T19:44:40.662670,7.393821,-7.475177,2.871387,2.383595,0.283441,4.282164
2026-01-18T19:44:40.671670,7.178467,-6.451049,3.407379,2.218662,0.317649,4.140443
2026-01-18T19:44:40.681670,6.977470,-6.345765,3.048455,1.681100,0.381179,4.040261
2026-01-18T19:44:40.691670,6.513263,-7.106683,2.574677,1.018923,0.470366,3.962071
2026-01-18T19:44:40.700670,5.785845,-8.193024,2.646461,0.530230,0.553443,3.826459
2026-01-18T19:44:40.710670,4.890929,-9.241080,2.316252,0.245567,0.587652,3.678629
2026-01-18T19:44:40.719670,3.842873,-9.690931,2.129612,0.321315,0.597426,3.412292
2026-01-18T19:44:40.729670,2.756531,-9.413364,2.215753,0.504574,0.531452,3.083647
2026-01-18T19:44:40.739670,2.029113,-9.198010,2.751745,0.580321,0.339641,2.736675
2026-01-18T19:44:40.748670,1.981257,-9.059226,4.015156,0.598647,0.083077,2.392147
2026-01-18T19:44:40.758670,2.517249,-9.140582,4.838287,0.483805,-0.129503,2.102597
2026-01-18T19:44:40.768670,3.235096,-9.580861,5.264209,0.235793,-0.174707,1.838703
2026-01-18T19:44:40.777670,3.732803,-9.844072,5.173282,0.010995,-0.019547,1.554040
2026-01-18T19:44:40.787670,3.555734,-10.059426,4.862215,-0.164933,0.256563,1.235169
2026-01-18T19:44:40.796670,2.775674,-10.121639,4.345365,-0.394618,0.514348,0.905302
2026-01-18T19:44:40.806670,1.741974,-10.260423,4.149154,-0.602312,0.663399,0.537561
2026-01-18T19:44:40.816670,0.842273,-10.686345,3.785445,-0.822224,0.636521,0.111177
2026-01-18T19:44:40.825670,0.574277,-11.667402,3.311666,-1.058018,0.452040,-0.334754
2026-01-18T19:44:40.835670,1.028913,-13.232308,2.761317,-1.246164,0.177150,-0.767246
2026-01-18T19:44:40.844670,2.038684,-15.069996,2.565105,-1.395215,-0.098960,-1.160643
2026-01-18T19:44:40.854670,3.345165,-16.606188,3.010170,-1.323133,-0.299323,-1.558927
2026-01-18T19:44:40.864670,4.699503,-16.979469,3.412165,-0.902858,-0.398284,-2.006081
2026-01-18T19:44:40.873670,5.828915,-16.376476,3.598805,-0.398284,-0.403170,-2.393369
2026-01-18T19:44:40.883670,6.623332,-14.931213,3.493520,0.020769,-0.351858,-2.741562
2026-01-18T19:44:40.893670,6.963113,-13.256237,3.278166,0.251676,-0.245567,-3.082425
2026-01-18T19:44:40.902670,6.766902,-11.806186,3.378665,0.313984,-0.106290,-3.418401
2026-01-18T19:44:40.912670,6.470192,-10.987841,3.584448,0.208915,-0.035430,-3.743381
2026-01-18T19:44:40.921670,6.556333,-11.763115,3.254238,-0.354301,-0.149051,-3.883880
2026-01-18T19:44:40.931670,7.341179,-13.634303,3.148954,-0.962723,-0.414166,-3.941301
2026-01-18T19:44:40.941670,8.456235,-15.065211,3.105883,-1.106887,-0.680503,-4.100126
2026-01-18T19:44:40.950670,9.705288,-15.424134,2.938386,-1.004262,-0.856432,-4.196643
2026-01-18T19:44:40.960670,10.643274,-14.601003,3.029313,-0.598647,-0.858876,-4.311485
2026-01-18T19:44:40.969670,10.935199,-11.935399,2.962314,-0.134390,-0.686612,-4.355468
2026-01-18T19:44:40.979670,10.499705,-9.083154,2.890529,-0.072082,-0.438601,-4.338364
2026-01-18T19:44:40.989670,9.652646,-6.719045,2.732603,-0.423940,-0.204028,-4.311485
2026-01-18T19:44:40.998670,8.590233,-5.158925,2.555534,-1.086118,-0.052534,-4.293160
2026-01-18T19:44:41.008670,7.838886,-4.737788,2.076970,-1.955990,-0.050090,-4.301712
2026-01-18T19:44:41.018670,7.427321,-5.733202,0.866201,-2.695136,-0.201585,-4.343250
2026-01-18T19:44:41.027670,7.838886,-7.642675,-0.296710,-3.090977,-0.438601,-4.438545
2026-01-18T19:44:41.037670,8.839086,-10.451849,-1.268195,-3.136181,-0.678060,-4.536284
2026-01-18T19:44:41.046670,10.499705,-13.079168,-0.177068,-2.648711,-0.899193,-4.659679
2026-01-18T19:44:41.056670,12.653245,-14.356935,1.493121,-1.833817,-1.051909,-4.660900
2026-01-18T19:44:41.066670,14.696716,-14.524433,2.029113,-0.960279,-0.982271,-4.521623
2026-01-18T19:44:41.075670,15.596417,-12.926027,1.928615,-0.109955,-0.577878,-4.326146
2026-01-18T19:44:41.085670,14.672788,-10.265208,1.880758,0.393397,0.026878,-4.109900
2026-01-18T19:44:41.094670,12.375678,-8.063812,1.445264,0.375071,0.549778,-3.918088
2026-01-18T19:44:41.104670,9.595218,-7.073183,1.196411,0.160046,0.728151,-3.787363
2026-01-18T19:44:41.114670,7.460820,-6.226124,1.268195,0.028099,0.511904,-3.755598
2026-01-18T19:44:41.123670,6.465406,-5.431707,0.502492,-0.010995,0.050090,-3.780033
2026-01-18T19:44:41.133670,6.498906,-4.651647,-0.569491,0.009773,-0.497244,-3.849671
2026-01-18T19:44:41.143670,7.456035,-3.857230,-1.406979,0.065973,-0.989601,-3.937636
2026-01-18T19:44:41.152670,9.030512,-3.316452,-1.301695,0.079412,-1.291368,-4.013383
2026-01-18T19:44:41.162670,10.490134,-2.885744,-1.397408,0.042760,-1.310916,-4.063474
2026-01-18T19:44:41.171670,11.341979,-2.359323,-1.076770,0.004886,-1.106887,-4.084244
2026-01-18T19:44:41.181670,11.370692,-1.607976,0.239282,-0.078190,-0.835663,-4.080578
2026-01-18T19:44:41.191670,11.251051,-0.674775,2.818745,-0.318871,-0.648738,-4.074470
2026-01-18T19:44:41.200670,11.174481,-1.038485,2.053041,-0.988379,-0.623082,-3.859445
2026-01-18T19:44:41.210670,11.385049,-2.976671,0.885344,-1.486845,-0.692721,-3.701842
2026-01-18T19:44:41.219670,11.796615,-4.153940,0.808774,-1.486845,-0.728151,-3.590665
2026-01-18T19:44:41.229670,12.260823,-4.536791,0.507278,-1.319468,-0.729372,-3.486818
2026-01-18T19:44:41.239670,12.586246,-4.302295,0.449850,-1.042135,-0.693942,-3.403740
2026-01-18T19:44:41.248670,12.839886,-3.421736,0.320638,-0.762359,-0.598647,-3.338988
2026-01-18T19:44:41.258670,12.777672,-2.665604,-0.129212,-0.668286,-0.454483,-3.231476
2026-01-18T19:44:41.268670,12.538390,-2.325823,-0.157926,-0.651182,-0.287106,-3.114190
2026-01-18T19:44:41.277670,11.940184,-2.139183,-0.794417,-0.620638,-0.100181,-2.993239
2026-01-18T19:44:41.287670,11.078768,-2.120040,-0.823130,-0.544891,0.069638,-2.893057
2026-01-18T19:44:41.296670,9.973284,-2.105683,-0.555134,-0.447153,0.185702,-2.767218
2026-01-18T19:44:41.306670,8.800801,-2.120040,-0.397208,-0.421496,0.221133,-2.590068
2026-01-18T19:44:41.316670,7.781459,-2.096112,0.105284,-0.441044,0.191811,-2.414138
2026-01-18T19:44:41.325670,6.982256,-2.115255,0.579063,-0.466700,0.124616,-2.223549
2026-01-18T19:44:41.335670,6.417550,-2.019542,0.880558,-0.489913,0.037873,-2.050063
2026-01-18T19:44:41.344670,6.087340,-1.808973,1.052841,-0.478918,-0.072082,-1.886351
2026-01-18T19:44:41.354670,6.072983,-1.220339,1.038485,-0.449596,-0.177150,-1.742187
2026-01-18T19:44:41.364670,6.245266,-0.382851,0.937986,-0.499687,-0.227241,-1.618792
2026-01-18T19:44:41.373670,6.288337,0.215354,0.823130,-0.671951,-0.173485,-1.495397
2026-01-18T19:44:41.383670,5.986842,0.445065,0.741775,-0.937067,-0.043982,-1.380555
2026-01-18T19:44:41.393670,5.254638,0.277567,0.569491,-1.243721,0.107512,-1.262047
2026-01-18T19:44:41.402670,4.421936,-0.325423,0.780060,-1.470963,0.221133,-1.174082
2026-01-18T19:44:41.412670,3.608376,-0.875773,1.268195,-1.566258,0.256563,-1.108109
2026-01-18T19:44:41.421670,2.857030,-1.440479,1.416550,-1.563814,0.196698,-1.027475
2026-01-18T19:44:41.431670,2.617747,-2.091326,1.402194,-1.423315,0.067195,-0.960279
2026-01-18T19:44:41.441670,2.708675,-2.421536,1.469193,-1.171639,-0.083077,-0.910189
2026-01-18T19:44:41.450670,3.029313,-2.646461,1.689332,-0.864984,-0.210137,-0.860098
2026-01-18T19:44:41.460670,3.541377,-2.656033,1.828116,-0.552222,-0.276111,-0.807563
2026-01-18T19:44:41.469670,4.034298,-2.555534,1.507478,-0.288328,-0.232128,-0.751364
2026-01-18T19:44:41.479670,4.192225,-2.277967,1.301695,-0.074525,-0.101403,-0.709825
