Timestamp,Acceleration_X,Acceleration_Y,Acceleration_Z,Gyro_X,Gyro_Y,Gyro_Z
2026-01-04T14:01:03.479931,9.925428,-1.095912,0.890130,-0.123394,-0.006108,0.114842
2026-01-04T14:01:03.489931,9.958927,-1.105484,0.904486,-0.090408,0.002443,0.109955
2026-01-04T14:01:03.498931,9.858429,-1.095912,0.904486,-0.054977,0.034208,0.102625
2026-01-04T14:01:03.508931,9.633503,-1.024128,0.899701,-0.024434,0.059864,0.085521
2026-01-04T14:01:03.517931,9.518648,-0.985842,0.947557,-0.004886,0.046425,0.062308
2026-01-04T14:01:03.527931,9.623932,-0.947557,0.928415,-0.002443,0.004886,0.042760
2026-01-04T14:01:03.537931,9.676574,-0.971485,0.885344,-0.018325,-0.032986,0.025656
2026-01-04T14:01:03.546931,9.920642,-1.004985,0.971485,-0.018325,-0.046425,0.017104
2026-01-04T14:01:03.556931,10.054640,-0.961914,0.971485,-0.013439,-0.043982,0.018325
2026-01-04T14:01:03.566931,10.145567,-0.923629,0.885344,-0.040317,-0.028099,0.037873
2026-01-04T14:01:03.575931,10.126425,-0.952343,0.842273,-0.085521,-0.007330,0.061086
2026-01-04T14:01:03.585931,9.944570,-0.990628,0.827916,-0.129503,0.020769,0.078190
2026-01-04T14:01:03.594931,9.714859,-1.115055,0.746560,-0.169820,0.034208,0.090408
2026-01-04T14:01:03.604931,9.480363,-1.220339,0.741775,-0.184481,0.023212,0.092851
2026-01-04T14:01:03.614931,9.437292,-1.416550,0.890130,-0.160046,-0.009773,0.086742
2026-01-04T14:01:03.623931,9.442077,-1.512263,0.976271,-0.102625,-0.053756,0.064751
2026-01-04T14:01:03.633931,9.614361,-1.536192,1.000199,-0.035430,-0.079412,0.046425
2026-01-04T14:01:03.642931,9.734002,-1.493121,1.033699,0.020769,-0.084299,0.030543
2026-01-04T14:01:03.652931,9.925428,-1.306481,0.966700,0.059864,-0.064751,0.026878
2026-01-04T14:01:03.662931,9.920642,-1.229910,0.937986,0.078190,-0.036651,0.034208
2026-01-04T14:01:03.671931,9.911071,-1.028913,0.890130,0.074525,-0.018325,0.041538
2026-01-04T14:01:03.681931,9.834500,-0.799202,0.842273,0.025656,-0.013439,0.053756
2026-01-04T14:01:03.691931,9.748359,-0.808774,0.818345,-0.051312,-0.012217,0.068416
2026-01-04T14:01:03.700931,9.729216,-0.818345,0.803988,-0.140498,-0.015882,0.080634
2026-01-04T14:01:03.710931,9.705288,-1.043270,0.803988,-0.210137,-0.031764,0.081855
2026-01-04T14:01:03.719931,9.767501,-1.349551,0.765703,-0.232128,-0.048869,0.079412
2026-01-04T14:01:03.729931,9.767501,-1.517049,0.818345,-0.194255,-0.061086,0.070860
2026-01-04T14:01:03.739931,9.839286,-1.497906,0.861416,-0.128281,-0.065973,0.059864
2026-01-04T14:01:03.748931,9.896714,-1.540977,0.923629,-0.053756,-0.069638,0.045204
2026-01-04T14:01:03.758931,9.887142,-1.450050,0.914058,0.000000,-0.061086,0.035430
2026-01-04T14:01:03.767931,9.781858,-1.397408,0.851844,0.029321,-0.050090,0.035430
2026-01-04T14:01:03.777931,9.738787,-1.320838,0.937986,0.051312,-0.040317,0.040317
2026-01-04T14:01:03.787931,9.690931,-1.172483,0.947557,0.063529,-0.043982,0.041538
2026-01-04T14:01:03.796931,9.667003,-1.076770,0.995414,0.050090,-0.056199,0.042760
2026-01-04T14:01:03.806931,9.748359,-1.014556,1.019342,0.025656,-0.075747,0.040317
2026-01-04T14:01:03.816931,9.824929,-1.100698,0.909272,-0.006108,-0.087964,0.040317
2026-01-04T14:01:03.825931,9.949356,-1.138983,0.952343,-0.021991,-0.079412,0.039095
2026-01-04T14:01:03.835931,9.997212,-1.191625,0.890130,-0.029321,-0.067195,0.037873
2026-01-04T14:01:03.844931,10.006784,-1.210768,0.880558,-0.034208,-0.063529,0.037873
2026-01-04T14:01:03.854931,10.040283,-1.234696,0.947557,-0.029321,-0.058643,0.039095
2026-01-04T14:01:03.864931,10.006784,-1.205982,0.875773,-0.028099,-0.043982,0.047647
2026-01-04T14:01:03.873931,9.906285,-1.191625,0.909272,-0.026878,-0.030543,0.052534
2026-01-04T14:01:03.883931,9.781858,-1.253839,0.899701,-0.017104,-0.023212,0.061086
2026-01-04T14:01:03.892931,9.619146,-1.215553,0.942772,0.012217,-0.029321,0.056199
2026-01-04T14:01:03.902931,9.633503,-1.162911,0.981057,0.030543,-0.037873,0.047647
2026-01-04T14:01:03.912931,9.724431,-1.115055,0.966700,0.036651,-0.052534,0.036651
2026-01-04T14:01:03.921931,9.767501,-1.067198,1.033699,0.034208,-0.062308,0.029321
2026-01-04T14:01:03.931931,9.844072,-1.014556,1.129412,0.015882,-0.051312,0.034208
2026-01-04T14:01:03.941931,9.839286,-1.071984,0.995414,-0.003665,-0.032986,0.035430
2026-01-04T14:01:03.950931,9.901499,-1.000199,0.899701,-0.024434,-0.020769,0.031764
2026-01-04T14:01:03.960931,9.872786,-1.019342,0.856630,-0.048869,-0.032986,0.026878
2026-01-04T14:01:03.969931,10.006784,-1.129412,0.856630,-0.061086,-0.047647,0.026878
2026-01-04T14:01:03.979931,10.078568,-1.158126,0.856630,-0.059864,-0.035430,0.025656
2026-01-04T14:01:03.989931,10.035497,-1.225125,0.904486,-0.037873,-0.003665,0.024434
2026-01-04T14:01:03.998931,9.896714,-1.239482,0.952343,-0.004886,0.013439,0.019547
2026-01-04T14:01:04.008931,9.757930,-1.158126,0.981057,0.021991,0.009773,0.010995
2026-01-04T14:01:04.017931,9.757930,-1.033699,1.038485,0.025656,-0.008552,0.006108
2026-01-04T14:01:04.027931,9.810572,-1.076770,1.091127,0.012217,-0.021991,0.001221
2026-01-04T14:01:04.037931,9.863214,-1.095912,1.081555,0.010995,-0.029321,-0.001221
2026-01-04T14:01:04.046931,9.896714,-1.043270,1.033699,0.007330,-0.023212,0.004886
2026-01-04T14:01:04.056931,9.858429,-1.071984,1.004985,-0.013439,-0.007330,0.017104
2026-01-04T14:01:04.066931,9.906285,-1.071984,1.009771,-0.031764,0.008552,0.020769
2026-01-04T14:01:04.075931,9.824929,-1.071984,1.028913,-0.037873,0.026878,0.029321
2026-01-04T14:01:04.085931,9.700502,-1.110269,1.019342,-0.054977,0.031764,0.036651
2026-01-04T14:01:04.094931,9.600004,-1.153340,1.000199,-0.068416,0.024434,0.040317
2026-01-04T14:01:04.104931,9.667003,-1.158126,0.976271,-0.063529,0.009773,0.036651
2026-01-04T14:01:04.114931,9.690931,-1.143769,0.985842,-0.054977,-0.007330,0.029321
2026-01-04T14:01:04.123931,9.801001,-1.196411,1.081555,-0.047647,-0.013439,0.019547
2026-01-04T14:01:04.133931,9.853643,-1.182054,1.043270,-0.043982,-0.008552,0.012217
2026-01-04T14:01:04.142931,9.853643,-1.229910,1.014556,-0.039095,-0.006108,0.006108
2026-01-04T14:01:04.152931,9.901499,-1.239482,0.914058,-0.029321,-0.006108,0.002443
2026-01-04T14:01:04.162931,9.973284,-1.239482,0.918843,-0.014660,-0.008552,0.004886
2026-01-04T14:01:04.171931,9.978070,-1.229910,0.904486,-0.002443,-0.009773,0.006108
2026-01-04T14:01:04.181931,9.915856,-1.153340,0.995414,-0.002443,-0.001221,0.008552
2026-01-04T14:01:04.191931,9.872786,-1.048056,0.966700,-0.010995,0.013439,0.012217
2026-01-04T14:01:04.200931,9.772287,-1.024128,1.009771,-0.029321,0.019547,0.012217
2026-01-04T14:01:04.210931,9.705288,-1.148554,1.033699,-0.054977,0.008552,0.013439
2026-01-04T14:01:04.219931,9.714859,-1.220339,1.028913,-0.062308,0.002443,0.007330
2026-01-04T14:01:04.229931,9.710074,-1.292124,1.014556,-0.057421,-0.001221,0.006108
2026-01-04T14:01:04.239931,9.734002,-1.354337,0.976271,-0.036651,0.000000,-0.001221
2026-01-04T14:01:04.248931,9.662217,-1.282552,1.009771,-0.006108,0.000000,-0.004886
2026-01-04T14:01:04.258931,9.681360,-1.172483,0.933200,0.015882,-0.008552,-0.008552
2026-01-04T14:01:04.267931,9.734002,-1.057627,0.894915,0.015882,-0.021991,-0.006108
2026-01-04T14:01:04.277931,9.796215,-1.062413,0.890130,-0.007330,-0.030543,-0.001221
2026-01-04T14:01:04.287931,9.810572,-1.028913,0.899701,-0.036651,-0.026878,0.006108
2026-01-04T14:01:04.296931,9.824929,-1.158126,0.942772,-0.053756,-0.023212,0.009773
2026-01-04T14:01:04.306931,9.858429,-1.205982,0.942772,-0.064751,-0.021991,0.015882
2026-01-04T14:01:04.316931,9.844072,-1.263410,0.990628,-0.062308,-0.020769,0.014660
2026-01-04T14:01:04.325931,9.839286,-1.287338,1.086341,-0.040317,-0.020769,0.013439
2026-01-04T14:01:04.335931,9.834500,-1.320838,1.057627,-0.015882,-0.017104,0.009773
2026-01-04T14:01:04.344931,9.801001,-1.268195,0.976271,0.000000,-0.014660,0.013439
2026-01-04T14:01:04.354931,9.777073,-1.244267,0.904486,0.014660,-0.017104,0.012217
2026-01-04T14:01:04.364931,9.762716,-1.225125,0.933200,0.024434,-0.019547,0.014660
2026-01-04T14:01:04.373931,9.791430,-1.134197,0.890130,0.021991,-0.021991,0.018325
2026-01-04T14:01:04.383931,9.767501,-1.105484,0.933200,0.019547,-0.025656,0.021991
2026-01-04T14:01:04.392931,9.753144,-1.071984,0.966700,0.012217,-0.025656,0.025656
2026-01-04T14:01:04.402931,9.777073,-1.091127,0.918843,0.000000,-0.032986,0.024434
2026-01-04T14:01:04.412931,9.868000,-1.115055,0.937986,-0.009773,-0.041538,0.023212
2026-01-04T14:01:04.421931,9.901499,-1.148554,0.961914,-0.009773,-0.047647,0.020769
2026-01-04T14:01:04.431931,9.906285,-1.196411,1.033699,0.001221,-0.039095,0.020769
2026-01-04T14:01:04.441931,9.810572,-1.153340,0.985842,0.017104,-0.024434,0.026878
2026-01-04T14:01:04.450931,9.868000,-1.062413,0.923629,0.018325,-0.029321,0.026878
2026-01-04T14:01:04.460931,9.868000,-1.124626,1.000199,0.007330,-0.045204,0.028099
2026-01-04T14:01:04.469931,9.920642,-1.124626,1.009771,0.001221,-0.051312,0.028099
2026-01-04T14:01:04.479931,9.934999,-1.129412,1.038485,0.000000,-0.035430,0.031764
2026-01-04T14:01:04.489931,9.930213,-1.143769,1.052841,0.015882,-0.021991,0.035430
2026-01-04T14:01:04.498931,9.944570,-1.062413,1.086341,0.046425,-0.020769,0.031764
2026-01-04T14:01:04.508931,9.868000,-0.985842,1.048056,0.062308,-0.025656,0.037873
2026-01-04T14:01:04.517931,9.925428,-0.875773,1.062413,0.054977,-0.029321,0.040317
2026-01-04T14:01:04.527931,9.887142,-0.842273,1.057627,0.030543,-0.025656,0.043982
2026-01-04T14:01:04.537931,9.805787,-0.870987,1.062413,-0.004886,-0.012217,0.045204
2026-01-04T14:01:04.546931,9.748359,-1.014556,1.129412,-0.032986,-0.003665,0.041538
2026-01-04T14:01:04.556931,9.623932,-1.052841,1.076770,-0.035430,-0.006108,0.032986
2026-01-04T14:01:04.566931,9.595218,-1.268195,1.081555,-0.007330,-0.019547,0.017104
2026-01-04T14:01:04.575931,9.633503,-1.306481,1.105484,0.041538,-0.039095,-0.012217
2026-01-04T14:01:04.585931,9.772287,-1.258624,1.048056,0.105068,-0.043982,-0.032986
2026-01-04T14:01:04.594931,9.906285,-1.205982,1.091127,0.153938,-0.039095,-0.054977
2026-01-04T14:01:04.604931,9.939785,-1.048056,0.985842,0.164933,-0.028099,-0.061086
2026-01-04T14:01:04.614931,10.045069,-0.904486,0.966700,0.150272,-0.009773,-0.063529
2026-01-04T14:01:04.623931,9.992427,-0.851844,0.981057,0.107512,0.023212,-0.057421
2026-01-04T14:01:04.633931,9.896714,-0.837487,0.894915,0.041538,0.058643,-0.047647
2026-01-04T14:01:04.642931,9.700502,-0.861416,0.890130,-0.029321,0.076969,-0.032986
2026-01-04T14:01:04.652931,9.547362,-1.052841,0.837487,-0.089186,0.054977,-0.019547
2026-01-04T14:01:04.662931,9.652646,-1.124626,1.004985,-0.130725,0.017104,-0.002443
2026-01-04T14:01:04.671931,9.781858,-1.186840,1.028913,-0.157603,-0.004886,0.010995
2026-01-04T14:01:04.681931,9.877571,-1.311266,0.971485,-0.169820,0.000000,0.021991
2026-01-04T14:01:04.691931,9.853643,-1.383051,0.918843,-0.161268,0.021991,0.031764
2026-01-04T14:01:04.700931,9.705288,-1.473978,0.933200,-0.136833,0.040317,0.037873
2026-01-04T14:01:04.710931,9.537790,-1.531406,0.894915,-0.090408,0.041538,0.040317
2026-01-04T14:01:04.719931,9.413364,-1.545763,0.894915,-0.023212,0.019547,0.034208
2026-01-04T14:01:04.729931,9.470791,-1.464407,0.894915,0.041538,-0.012217,0.021991
2026-01-04T14:01:04.739931,9.590432,-1.272981,0.890130,0.087964,-0.037873,0.018325
2026-01-04T14:01:04.748931,9.686145,-1.182054,0.890130,0.107512,-0.045204,0.014660
2026-01-04T14:01:04.758931,9.734002,-1.057627,0.933200,0.090408,-0.040317,0.019547
2026-01-04T14:01:04.767931,9.820143,-0.952343,0.976271,0.058643,-0.030543,0.023212
2026-01-04T14:01:04.777931,9.796215,-0.947557,0.971485,0.004886,-0.020769,0.032986
2026-01-04T14:01:04.787931,9.815358,-1.048056,0.933200,-0.053756,-0.014660,0.042760
2026-01-04T14:01:04.796931,9.781858,-1.258624,0.909272,-0.087964,-0.014660,0.051312
2026-01-04T14:01:04.806931,9.700502,-1.354337,0.918843,-0.094073,-0.020769,0.052534
2026-01-04T14:01:04.816931,9.738787,-1.445264,0.942772,-0.074525,-0.026878,0.056199
2026-01-04T14:01:04.825931,9.690931,-1.574477,0.909272,-0.030543,-0.036651,0.054977
2026-01-04T14:01:04.835931,9.743573,-1.531406,0.947557,0.025656,-0.039095,0.051312
2026-01-04T14:01:04.844931,9.753144,-1.349551,0.937986,0.067195,-0.041538,0.050090
2026-01-04T14:01:04.854931,9.777073,-1.325623,0.904486,0.090408,-0.042760,0.046425
2026-01-04T14:01:04.864931,9.844072,-1.138983,0.942772,0.091629,-0.045204,0.048869
2026-01-04T14:01:04.873931,9.791430,-1.081555,0.942772,0.067195,-0.042760,0.058643
2026-01-04T14:01:04.883931,9.815358,-1.086341,0.985842,0.034208,-0.041538,0.067195
2026-01-04T14:01:04.892931,9.791430,-1.091127,0.890130,0.004886,-0.036651,0.079412
2026-01-04T14:01:04.902931,9.748359,-1.100698,0.909272,-0.021991,-0.039095,0.087964
2026-01-04T14:01:04.912931,9.772287,-1.253839,0.875773,-0.040317,-0.048869,0.089186
2026-01-04T14:01:04.921931,9.829715,-1.335195,0.981057,-0.035430,-0.045204,0.089186
2026-01-04T14:01:04.931931,9.710074,-1.325623,1.091127,-0.008552,-0.024434,0.085521
2026-01-04T14:01:04.941931,9.590432,-1.263410,1.057627,0.028099,-0.018325,0.072082
2026-01-04T14:01:04.950931,9.628718,-1.201196,0.952343,0.061086,-0.041538,0.053756
2026-01-04T14:01:04.960931,9.762716,-1.076770,0.961914,0.078190,-0.081855,0.034208
2026-01-04T14:01:04.969931,10.045069,-1.100698,0.937986,0.076969,-0.100181,0.020769
2026-01-04T14:01:04.979931,10.155139,-1.048056,0.904486,0.072082,-0.079412,0.015882
2026-01-04T14:01:04.989931,10.116853,-0.990628,0.981057,0.051312,-0.039095,0.021991
2026-01-04T14:01:04.998931,9.997212,-0.976271,1.024128,0.017104,-0.018325,0.026878
2026-01-04T14:01:05.008931,9.887142,-1.076770,0.985842,-0.010995,-0.013439,0.034208
2026-01-04T14:01:05.017931,9.801001,-1.138983,1.052841,-0.023212,-0.024434,0.034208
2026-01-04T14:01:05.027931,9.753144,-1.239482,1.201196,-0.018325,-0.030543,0.034208
2026-01-04T14:01:05.037931,9.710074,-1.253839,1.196411,-0.003665,-0.034208,0.035430
2026-01-04T14:01:05.046931,9.777073,-1.253839,1.158126,0.029321,-0.025656,0.036651
2026-01-04T14:01:05.056931,9.700502,-1.148554,1.162911,0.063529,-0.019547,0.029321
2026-01-04T14:01:05.066931,9.595218,-1.019342,1.158126,0.073303,-0.019547,0.028099
2026-01-04T14:01:05.075931,9.652646,-0.933200,1.129412,0.064751,-0.034208,0.024434
2026-01-04T14:01:05.085931,9.796215,-0.918843,1.105484,0.043982,-0.052534,0.021991
2026-01-04T14:01:05.094931,9.915856,-0.918843,1.196411,0.014660,-0.056199,0.019547
2026-01-04T14:01:05.104931,9.963713,-0.957129,1.153340,-0.013439,-0.043982,0.017104
2026-01-04T14:01:05.114931,10.001998,-1.019342,1.057627,-0.030543,-0.021991,0.017104
2026-01-04T14:01:05.123931,9.949356,-1.062413,1.143769,-0.037873,0.004886,0.015882
2026-01-04T14:01:05.133931,9.872786,-1.134197,1.076770,-0.032986,0.023212,0.010995
2026-01-04T14:01:05.142931,9.805787,-1.196411,1.043270,-0.013439,0.028099,0.003665
2026-01-04T14:01:05.152931,9.681360,-1.215553,1.062413,0.002443,0.010995,0.001221
2026-01-04T14:01:05.162931,9.772287,-1.201196,1.000199,0.006108,-0.009773,0.003665
2026-01-04T14:01:05.171931,9.824929,-1.162911,1.052841,0.000000,-0.025656,0.004886
2026-01-04T14:01:05.181931,9.911071,-1.081555,1.024128,-0.009773,-0.031764,0.008552
2026-01-04T14:01:05.191931,9.949356,-1.143769,1.076770,-0.014660,-0.021991,0.010995
2026-01-04T14:01:05.200931,9.925428,-1.182054,1.033699,-0.014660,-0.007330,0.013439
2026-01-04T14:01:05.210931,9.824929,-1.143769,1.048056,-0.012217,0.006108,0.015882
2026-01-04T14:01:05.219931,9.796215,-1.186840,1.033699,0.001221,0.010995,0.013439
2026-01-04T14:01:05.229931,9.719645,-1.138983,1.100698,0.009773,0.004886,0.006108
2026-01-04T14:01:05.239931,9.777073,-1.086341,1.019342,-0.001221,-0.009773,0.007330
2026-01-04T14:01:05.248931,9.839286,-1.009771,1.100698,-0.020769,-0.019547,0.010995
2026-01-04T14:01:05.258931,9.872786,-0.995414,0.981057,-0.041538,-0.007330,0.018325
2026-01-04T14:01:05.267931,9.796215,-1.067198,1.071984,-0.059864,0.013439,0.023212
2026-01-04T14:01:05.277931,9.676574,-1.138983,1.038485,-0.072082,0.025656,0.029321
2026-01-04T14:01:05.287931,9.566504,-1.177268,0.942772,-0.068416,0.021991,0.028099
2026-01-04T14:01:05.296931,9.566504,-1.263410,0.947557,-0.059864,-0.003665,0.020769
2026-01-04T14:01:05.306931,9.714859,-1.239482,0.899701,-0.041538,-0.032986,0.010995
2026-01-04T14:01:05.316931,9.863214,-1.249053,0.914058,-0.015882,-0.052534,0.004886
2026-01-04T14:01:05.325931,10.025926,-1.229910,1.019342,-0.004886,-0.059864,0.004886
2026-01-04T14:01:05.335931,10.131210,-1.234696,1.014556,-0.003665,-0.041538,0.009773
2026-01-04T14:01:05.344931,10.102497,-1.110269,0.923629,-0.009773,-0.012217,0.017104
2026-01-04T14:01:05.354931,9.963713,-1.081555,0.923629,-0.024434,0.021991,0.024434
2026-01-04T14:01:05.364931,9.820143,-1.095912,0.909272,-0.050090,0.036651,0.029321
2026-01-04T14:01:05.373931,9.619146,-1.186840,1.000199,-0.069638,0.034208,0.035430
2026-01-04T14:01:05.383931,9.561719,-1.167697,0.942772,-0.073303,0.015882,0.035430
2026-01-04T14:01:05.392931,9.499505,-1.249053,0.942772,-0.064751,-0.012217,0.026878
2026-01-04T14:01:05.402931,9.561719,-1.258624,0.985842,-0.051312,-0.043982,0.014660
2026-01-04T14:01:05.412931,9.738787,-1.263410,1.071984,-0.031764,-0.067195,0.007330
2026-01-04T14:01:05.421931,9.863214,-1.258624,1.081555,-0.007330,-0.063529,0.008552
2026-01-04T14:01:05.431931,9.958927,-1.220339,1.057627,0.004886,-0.042760,0.014660
2026-01-04T14:01:05.441931,9.848857,-1.119840,0.928415,0.010995,-0.023212,0.017104
2026-01-04T14:01:05.450931,9.844072,-1.000199,0.909272,-0.002443,-0.028099,0.013439
2026-01-04T14:01:05.460931,9.906285,-1.048056,0.813559,-0.036651,-0.054977,0.008552
2026-01-04T14:01:05.469931,9.982855,-1.177268,1.024128,-0.056199,-0.061086,0.003665
2026-01-04T14:01:05.479931,9.992427,-1.287338,1.076770,-0.041538,-0.040317,-0.003665
2026-01-04T14:01:05.489931,9.848857,-1.349551,1.043270,-0.002443,-0.012217,-0.010995
2026-01-04T14:01:05.498931,9.767501,-1.249053,1.071984,0.035430,-0.009773,-0.019547
2026-01-04T14:01:05.508931,9.671788,-1.191625,1.048056,0.047647,-0.030543,-0.025656
2026-01-04T14:01:05.517931,9.705288,-1.177268,1.129412,0.040317,-0.052534,-0.023212
2026-01-04T14:01:05.527931,9.762716,-1.205982,1.138983,0.025656,-0.061086,-0.017104
2026-01-04T14:01:05.537931,9.734002,-1.225125,1.100698,0.019547,-0.054977,-0.010995
2026-01-04T14:01:05.546931,9.839286,-1.205982,1.110269,0.013439,-0.050090,-0.002443
2026-01-04T14:01:05.556931,9.805787,-1.249053,1.095912,0.010995,-0.037873,0.007330
2026-01-04T14:01:05.566931,9.681360,-1.205982,1.076770,0.004886,-0.032986,0.010995
2026-01-04T14:01:05.575931,9.705288,-1.158126,1.052841,-0.002443,-0.032986,0.014660
2026-01-04T14:01:05.585931,9.729216,-1.172483,1.028913,-0.010995,-0.039095,0.013439
2026-01-04T14:01:05.594931,9.791430,-1.182054,1.091127,-0.017104,-0.047647,0.008552
2026-01-04T14:01:05.604931,9.906285,-1.225125,1.177268,-0.025656,-0.045204,0.001221
2026-01-04T14:01:05.614931,10.001998,-1.306481,1.215553,-0.019547,-0.034208,-0.002443
2026-01-04T14:01:05.623931,9.829715,-1.258624,1.124626,-0.006108,-0.015882,-0.007330
2026-01-04T14:01:05.633931,9.834500,-1.296909,1.009771,0.001221,-0.010995,-0.009773
2026-01-04T14:01:05.642931,9.757930,-1.311266,1.067198,0.012217,-0.014660,-0.012217
2026-01-04T14:01:05.652931,9.801001,-1.306481,1.067198,0.020769,-0.026878,-0.010995
2026-01-04T14:01:05.662931,9.824929,-1.253839,1.028913,0.019547,-0.030543,-0.010995
2026-01-04T14:01:05.671931,9.863214,-1.229910,1.086341,0.007330,-0.029321,-0.003665
2026-01-04T14:01:05.681931,9.925428,-1.272981,1.129412,-0.002443,-0.020769,0.007330
2026-01-04T14:01:05.691931,9.872786,-1.287338,1.076770,-0.014660,-0.009773,0.019547
2026-01-04T14:01:05.700931,9.839286,-1.296909,1.019342,-0.014660,-0.002443,0.026878
2026-01-04T14:01:05.710931,9.839286,-1.239482,0.971485,-0.008552,-0.006108,0.032986
2026-01-04T14:01:05.719931,9.753144,-1.225125,1.043270,-0.003665,-0.010995,0.032986
2026-01-04T14:01:05.729931,9.767501,-1.196411,1.110269,0.000000,-0.012217,0.035430
2026-01-04T14:01:05.739931,9.805787,-1.220339,1.062413,0.006108,-0.002443,0.039095
2026-01-04T14:01:05.748931,9.748359,-1.167697,1.024128,0.012217,0.004886,0.032986
2026-01-04T14:01:05.758931,9.738787,-1.158126,1.076770,0.015882,0.007330,0.031764
2026-01-04T14:01:05.767931,9.710074,-1.196411,1.038485,0.006108,0.000000,0.026878
2026-01-04T14:01:05.777931,9.772287,-1.167697,0.981057,0.001221,-0.015882,0.025656
2026-01-04T14:01:05.787931,9.834500,-1.167697,1.038485,-0.001221,-0.030543,0.023212
2026-01-04T14:01:05.796931,9.925428,-1.182054,1.048056,0.003665,-0.031764,0.024434
2026-01-04T14:01:05.806931,9.915856,-1.186840,1.038485,0.010995,-0.014660,0.024434
2026-01-04T14:01:05.816931,9.915856,-1.201196,1.009771,0.008552,0.004886,0.024434
2026-01-04T14:01:05.825931,9.767501,-1.244267,1.014556,0.009773,0.012217,0.024434
2026-01-04T14:01:05.835931,9.777073,-1.162911,0.976271,0.009773,0.008552,0.026878
2026-01-04T14:01:05.844931,9.748359,-1.205982,0.937986,0.013439,-0.004886,0.025656
2026-01-04T14:01:05.854931,9.767501,-1.177268,1.014556,0.018325,-0.017104,0.026878
2026-01-04T14:01:05.864931,9.863214,-1.153340,1.024128,0.017104,-0.020769,0.032986
2026-01-04T14:01:05.873931,9.882357,-1.095912,1.004985,0.007330,-0.018325,0.040317
2026-01-04T14:01:05.883931,9.901499,-1.143769,1.067198,-0.004886,-0.014660,0.042760
2026-01-04T14:01:05.892931,9.772287,-1.134197,1.038485,-0.018325,-0.004886,0.047647
2026-01-04T14:01:05.902931,9.748359,-1.081555,1.038485,-0.021991,0.004886,0.043982
2026-01-04T14:01:05.912931,9.657432,-1.153340,1.057627,-0.021991,-0.004886,0.040317
2026-01-04T14:01:05.921931,9.676574,-1.158126,1.052841,-0.009773,-0.015882,0.034208
2026-01-04T14:01:05.931931,9.676574,-1.177268,1.100698,0.012217,-0.014660,0.030543
2026-01-04T14:01:05.941931,9.571290,-1.105484,1.076770,0.030543,-0.007330,0.026878
2026-01-04T14:01:05.950931,9.600004,-1.086341,0.995414,0.035430,-0.013439,0.023212
2026-01-04T14:01:05.960931,9.719645,-1.024128,1.071984,0.030543,-0.040317,0.018325
2026-01-04T14:01:05.969931,9.839286,-1.052841,0.985842,0.009773,-0.052534,0.015882
2026-01-04T14:01:05.979931,9.963713,-1.124626,1.014556,-0.007330,-0.031764,0.018325
2026-01-04T14:01:05.989931,9.896714,-1.129412,1.105484,-0.002443,0.004886,0.019547
2026-01-04T14:01:05.998931,9.805787,-1.057627,1.043270,0.003665,0.023212,0.018325
2026-01-04T14:01:06.008931,9.710074,-1.124626,1.019342,0.002443,0.021991,0.020769
2026-01-04T14:01:06.017931,9.609575,-1.086341,1.024128,0.001221,0.007330,0.019547
2026-01-04T14:01:06.027931,9.576076,-1.038485,1.004985,-0.008552,0.000000,0.021991
2026-01-04T14:01:06.037931,9.552147,-1.048056,0.985842,-0.019547,-0.001221,0.024434
2026-01-04T14:01:06.046931,9.576076,-1.067198,1.004985,-0.028099,-0.001221,0.025656
2026-01-04T14:01:06.056931,9.580861,-1.134197,1.071984,-0.031764,-0.004886,0.031764
2026-01-04T14:01:06.066931,9.604789,-1.148554,1.004985,-0.029321,-0.017104,0.031764
2026-01-04T14:01:06.075931,9.604789,-1.076770,1.038485,-0.021991,-0.025656,0.031764
2026-01-04T14:01:06.085931,9.662217,-1.043270,0.981057,-0.008552,-0.026878,0.029321
2026-01-04T14:01:06.094931,9.705288,-0.937986,0.890130,0.003665,-0.024434,0.021991
2026-01-04T14:01:06.104931,9.710074,-0.928415,1.048056,0.001221,-0.029321,0.012217
2026-01-04T14:01:06.114931,9.777073,-0.976271,0.937986,-0.013439,-0.032986,0.007330
2026-01-04T14:01:06.123931,9.810572,-0.961914,0.890130,-0.032986,-0.035430,-0.001221
2026-01-04T14:01:06.133931,9.872786,-1.004985,0.909272,-0.045204,-0.034208,-0.006108
2026-01-04T14:01:06.142931,9.978070,-1.028913,0.851844,-0.052534,-0.031764,-0.004886
2026-01-04T14:01:06.152931,9.872786,-1.033699,0.866201,-0.050090,-0.037873,-0.004886
2026-01-04T14:01:06.162931,9.963713,-0.942772,0.837487,-0.048869,-0.045204,-0.004886
2026-01-04T14:01:06.171931,10.016355,-0.990628,0.894915,-0.064751,-0.047647,-0.004886
2026-01-04T14:01:06.181931,9.958927,-1.033699,1.033699,-0.081855,-0.043982,-0.004886
2026-01-04T14:01:06.191931,9.906285,-1.148554,1.019342,-0.080634,-0.035430,-0.012217
2026-01-04T14:01:06.200931,9.820143,-1.201196,1.004985,-0.069638,-0.035430,-0.018325
2026-01-04T14:01:06.210931,9.791430,-1.234696,1.009771,-0.043982,-0.051312,-0.028099
2026-01-04T14:01:06.219931,9.719645,-1.335195,1.062413,-0.008552,-0.069638,-0.037873
2026-01-04T14:01:06.229931,9.791430,-1.320838,1.177268,0.029321,-0.083077,-0.045204
2026-01-04T14:01:06.239931,9.834500,-1.349551,1.239482,0.067195,-0.073303,-0.041538
2026-01-04T14:01:06.248931,9.848857,-1.225125,1.205982,0.095294,-0.048869,-0.031764
2026-01-04T14:01:06.258931,9.700502,-1.057627,1.234696,0.096516,-0.025656,-0.020769
2026-01-04T14:01:06.267931,9.681360,-0.981057,1.148554,0.058643,-0.013439,-0.009773
2026-01-04T14:01:06.277931,9.600004,-0.866201,1.095912,0.004886,-0.015882,0.001221
2026-01-04T14:01:06.287931,9.647860,-0.904486,1.071984,-0.052534,-0.029321,0.008552
2026-01-04T14:01:06.296931,9.714859,-1.043270,1.134197,-0.106290,-0.040317,0.007330
2026-01-04T14:01:06.306931,9.949356,-1.134197,1.086341,-0.134390,-0.046425,0.004886
2026-01-04T14:01:06.316931,9.949356,-1.316052,1.115055,-0.125838,-0.039095,0.000000
2026-01-04T14:01:06.325931,9.987641,-1.359123,1.119840,-0.103847,-0.024434,0.001221
2026-01-04T14:01:06.335931,9.911071,-1.378265,1.110269,-0.069638,-0.004886,0.004886
2026-01-04T14:01:06.344931,9.848857,-1.440479,0.981057,-0.021991,0.004886,0.003665
2026-01-04T14:01:06.354931,9.743573,-1.344766,1.024128,0.017104,-0.002443,0.002443
2026-01-04T14:01:06.364931,9.714859,-1.215553,1.004985,0.039095,-0.017104,0.003665
2026-01-04T14:01:06.373931,9.729216,-1.124626,0.914058,0.042760,-0.029321,0.001221
2026-01-04T14:01:06.383931,9.781858,-1.033699,0.933200,0.030543,-0.037873,0.001221
2026-01-04T14:01:06.392931,9.824929,-0.985842,1.009771,0.004886,-0.039095,0.007330
2026-01-04T14:01:06.402931,9.848857,-0.942772,0.942772,-0.020769,-0.037873,0.003665
2026-01-04T14:01:06.412931,9.915856,-1.086341,0.995414,-0.029321,-0.040317,-0.003665
2026-01-04T14:01:06.421931,9.863214,-1.081555,1.043270,-0.026878,-0.032986,-0.007330
2026-01-04T14:01:06.431931,9.786644,-1.081555,1.076770,-0.013439,-0.020769,-0.007330
2026-01-04T14:01:06.441931,9.777073,-1.024128,1.024128,0.006108,-0.014660,-0.009773
2026-01-04T14:01:06.450931,9.772287,-1.004985,0.985842,0.018325,-0.029321,-0.015882
2026-01-04T14:01:06.460931,9.777073,-0.966700,0.971485,0.010995,-0.052534,-0.021991
2026-01-04T14:01:06.469931,9.915856,-1.019342,1.038485,0.001221,-0.058643,-0.025656
2026-01-04T14:01:06.479931,9.925428,-1.019342,1.100698,0.000000,-0.043982,-0.023212
2026-01-04T14:01:06.489931,9.781858,-1.162911,1.081555,0.013439,-0.019547,-0.028099
2026-01-04T14:01:06.498931,9.734002,-1.100698,1.062413,0.034208,-0.018325,-0.026878
2026-01-04T14:01:06.508931,9.662217,-1.057627,1.076770,0.056199,-0.036651,-0.029321
2026-01-04T14:01:06.517931,9.748359,-0.981057,1.167697,0.068416,-0.062308,-0.034208
2026-01-04T14:01:06.527931,9.872786,-0.971485,1.258624,0.068416,-0.075747,-0.031764
2026-01-04T14:01:06.537931,10.011569,-0.851844,1.320838,0.062308,-0.067195,-0.028099
2026-01-04T14:01:06.546931,10.030712,-0.870987,1.320838,0.063529,-0.032986,-0.021991
2026-01-04T14:01:06.556931,9.877571,-0.842273,1.359123,0.056199,-0.001221,-0.013439
2026-01-04T14:01:06.566931,9.848857,-0.780060,1.316052,0.043982,0.006108,-0.010995
2026-01-04T14:01:06.575931,9.781858,-0.827916,1.239482,0.037873,-0.002443,-0.021991
2026-01-04T14:01:06.585931,9.882357,-0.837487,1.277767,0.025656,-0.013439,-0.031764
2026-01-04T14:01:06.594931,9.992427,-0.736989,1.316052,0.021991,-0.017104,-0.037873
2026-01-04T14:01:06.604931,10.150353,-0.780060,1.287338,0.017104,-0.018325,-0.046425
2026-01-04T14:01:06.614931,10.188638,-0.684347,1.397408,0.010995,-0.003665,-0.050090
2026-01-04T14:01:06.623931,10.183852,-0.665204,1.311266,0.007330,0.019547,-0.048869
2026-01-04T14:01:06.633931,10.169496,-0.564706,1.306481,-0.002443,0.035430,-0.052534
2026-01-04T14:01:06.642931,10.078568,-0.607776,1.253839,-0.018325,0.043982,-0.057421
2026-01-04T14:01:06.652931,9.997212,-0.564706,1.253839,-0.029321,0.047647,-0.064751
2026-01-04T14:01:06.662931,9.954142,-0.760917,1.354337,-0.026878,0.043982,-0.081855
2026-01-04T14:01:06.671931,9.906285,-0.727418,1.229910,-0.004886,0.032986,-0.098960
2026-01-04T14:01:06.681931,9.973284,-0.708275,1.325623,0.034208,0.019547,-0.125838
2026-01-04T14:01:06.691931,10.102497,-0.526420,1.330409,0.067195,0.010995,-0.152716
2026-01-04T14:01:06.700931,10.222138,-0.497707,1.373480,0.078190,0.021991,-0.173485
2026-01-04T14:01:06.710931,10.222138,-0.435493,1.296909,0.069638,0.054977,-0.185702
2026-01-04T14:01:06.719931,10.092925,-0.468993,1.234696,0.046425,0.089186,-0.194255
2026-01-04T14:01:06.729931,9.954142,-0.507278,1.253839,0.025656,0.103847,-0.202807
2026-01-04T14:01:06.739931,9.757930,-0.636490,1.272981,0.017104,0.095294,-0.213802
2026-01-04T14:01:06.748931,9.777073,-0.799202,1.301695,0.023212,0.074525,-0.226020
2026-01-04T14:01:06.758931,9.777073,-0.909272,1.249053,0.045204,0.059864,-0.240680
2026-01-04T14:01:06.767931,9.772287,-0.923629,1.296909,0.085521,0.054977,-0.256563
2026-01-04T14:01:06.777931,9.638289,-0.981057,1.416550,0.124616,0.063529,-0.270002
2026-01-04T14:01:06.787931,9.571290,-0.990628,1.483550,0.152716,0.058643,-0.277332
2026-01-04T14:01:06.796931,9.485148,-1.067198,1.607976,0.164933,0.039095,-0.285884
2026-01-04T14:01:06.806931,9.566504,-1.253839,1.665404,0.171042,0.023212,-0.290771
2026-01-04T14:01:06.816931,9.528219,-1.387837,1.679761,0.168598,0.031764,-0.288328
2026-01-04T14:01:06.825931,9.446863,-1.526620,1.540977,0.160046,0.069638,-0.279776
2026-01-04T14:01:06.835931,9.097511,-1.655833,1.493121,0.150272,0.118507,-0.263893
2026-01-04T14:01:06.844931,8.786444,-1.842473,1.598405,0.139277,0.151494,-0.246789
2026-01-04T14:01:06.854931,8.298308,-2.057827,1.593619,0.134390,0.151494,-0.224798
2026-01-04T14:01:06.864931,8.097311,-2.263610,1.679761,0.146607,0.116064,-0.202807
2026-01-04T14:01:06.873931,7.992027,-2.407179,1.770688,0.190589,0.073303,-0.182037
2026-01-04T14:01:06.883931,7.944171,-2.536391,2.014756,0.239459,0.054977,-0.152716
2026-01-04T14:01:06.892931,7.853243,-2.531606,2.038684,0.271224,0.079412,-0.106290
2026-01-04T14:01:06.902931,7.652246,-2.574677,1.995614,0.282219,0.125838,-0.043982
2026-01-04T14:01:06.912931,7.274180,-2.612962,1.885544,0.260228,0.163711,0.026878
2026-01-04T14:01:06.921931,6.910471,-2.828316,1.646261,0.255341,0.178372,0.095294
2026-01-04T14:01:06.931931,6.570690,-2.880958,1.454836,0.305432,0.186924,0.138055
2026-01-04T14:01:06.941931,6.226124,-2.775674,1.368694,0.368962,0.160046,0.177150
2026-01-04T14:01:06.950931,6.144768,-2.737389,1.316052,0.403170,0.084299,0.208915
2026-01-04T14:01:06.960931,6.297909,-2.723032,1.426122,0.430049,-0.013439,0.240680
2026-01-04T14:01:06.969931,6.742974,-2.679961,1.684547,0.474031,-0.074525,0.274889
2026-01-04T14:01:06.979931,7.116254,-2.656033,1.775474,0.494800,-0.050090,0.324980
2026-01-04T14:01:06.989931,7.068397,-2.569891,1.765903,0.496022,0.070860,0.390953
2026-01-04T14:01:06.998931,6.685546,-2.569891,1.670190,0.500909,0.213802,0.466700
2026-01-04T14:01:07.008931,6.039484,-2.411965,1.564905,0.505796,0.309097,0.543669
2026-01-04T14:01:07.017931,5.355136,-2.416750,1.617548,0.499687,0.338419,0.624304
2026-01-04T14:01:07.027931,4.867001,-2.349751,1.655833,0.511904,0.315206,0.698829
2026-01-04T14:01:07.037931,4.503292,-2.191825,1.708475,0.525343,0.274889,0.772133
2026-01-04T14:01:07.046931,4.249652,-2.053041,1.646261,0.508239,0.244346,0.850324
2026-01-04T14:01:07.056931,4.163511,-1.928615,1.569691,0.463035,0.224798,0.934623
2026-01-04T14:01:07.066931,4.187439,-1.823330,1.469193,0.377514,0.199142,1.020144
2026-01-04T14:01:07.075931,4.369294,-1.928615,1.397408,0.252898,0.161268,1.117883
2026-01-04T14:01:07.085931,4.656432,-2.038684,1.464407,0.139277,0.111177,1.213178
2026-01-04T14:01:07.094931,5.120640,-2.143969,1.440479,0.052534,0.054977,1.295034
2026-01-04T14:01:07.104931,5.714060,-2.378465,1.493121,-0.009773,0.009773,1.369559
2026-01-04T14:01:07.114931,6.331408,-2.703889,1.268195,-0.061086,-0.013439,1.452637
2026-01-04T14:01:07.123931,6.843472,-3.029313,1.038485,-0.032986,0.009773,1.535714
2026-01-04T14:01:07.133931,7.197610,-3.134597,0.727418,0.085521,0.064751,1.599244
2026-01-04T14:01:07.142931,7.149753,-3.129811,0.564706,0.234572,0.136833,1.666440
2026-01-04T14:01:07.152931,6.838686,-2.947957,0.516849,0.375071,0.207694,1.720196
2026-01-04T14:01:07.162931,6.513263,-2.684746,0.459421,0.437379,0.232128,1.772730
2026-01-04T14:01:07.171931,6.364908,-2.608176,0.583848,0.421496,0.168598,1.816712
2026-01-04T14:01:07.181931,6.599404,-2.737389,0.741775,0.378736,0.035430,1.849699
2026-01-04T14:01:07.191931,7.250252,-3.029313,0.717846,0.315206,-0.101403,1.877799
2026-01-04T14:01:07.200931,8.035098,-3.436093,0.579063,0.254119,-0.197920,1.916894
2026-01-04T14:01:07.210931,8.920442,-3.661018,0.488135,0.232128,-0.227241,1.974316
2026-01-04T14:01:07.219931,9.556933,-3.641875,0.521635,0.221133,-0.184481,2.047619
2026-01-04T14:01:07.229931,9.853643,-3.412165,1.024128,0.178372,-0.079412,2.125810
2026-01-04T14:01:07.239931,9.796215,-3.378665,1.603191,0.017104,0.045204,2.227214
2026-01-04T14:01:07.248931,9.595218,-3.871586,1.464407,-0.239459,0.122173,2.339613
2026-01-04T14:01:07.258931,9.470791,-4.776073,1.339980,-0.443488,0.135612,2.422691
2026-01-04T14:01:07.267931,9.379864,-6.044269,1.019342,-0.510683,0.103847,2.491107
2026-01-04T14:01:07.277931,9.480363,-7.245466,0.937986,-0.410501,0.064751,2.546085
2026-01-04T14:01:07.287931,9.552147,-8.279166,0.909272,-0.106290,0.025656,2.593733
2026-01-04T14:01:07.296931,9.652646,-8.657232,1.071984,0.337197,0.013439,2.621833
2026-01-04T14:01:07.306931,9.576076,-8.523234,1.177268,0.757472,0.030543,2.648711
2026-01-04T14:01:07.316931,9.351150,-8.068597,1.134197,1.045801,0.036651,2.684141
2026-01-04T14:01:07.325931,9.236295,-7.408178,1.402194,1.187521,-0.018325,2.703688
2026-01-04T14:01:07.335931,9.504291,-6.719045,2.091326,1.150869,-0.152716,2.723236
2026-01-04T14:01:07.344931,10.236495,-6.388836,2.632104,0.922406,-0.282219,2.755001
2026-01-04T14:01:07.354931,11.050054,-6.489334,2.354537,0.558330,-0.295658,2.822196
2026-01-04T14:01:07.364931,11.509476,-6.972685,2.306680,0.135612,-0.178372,2.954143
2026-01-04T14:01:07.373931,11.274980,-7.594818,2.038684,-0.218689,0.003665,3.098307
2026-01-04T14:01:07.383931,10.542776,-8.312665,1.813759,-0.434935,0.182037,3.214372
2026-01-04T14:01:07.392931,9.370293,-9.092725,1.713260,-0.469144,0.306654,3.290119
2026-01-04T14:01:07.402931,8.106882,-9.748359,1.430907,-0.332310,0.317649,3.318219
2026-01-04T14:01:07.412931,7.188039,-10.317851,1.033699,-0.119729,0.190589,3.298671
2026-01-04T14:01:07.421931,6.915257,-10.839486,1.220339,0.184481,-0.075747,3.235141
2026-01-04T14:01:07.431931,7.532605,-10.868200,1.847259,0.553443,-0.404392,3.147177
2026-01-04T14:01:07.441931,8.666803,-10.834700,2.072184,0.781907,-0.646295,3.108081
2026-01-04T14:01:07.450931,10.011569,-10.604989,2.120040,0.930958,-0.681725,3.106859
2026-01-04T14:01:07.460931,10.729416,-9.877571,2.349751,1.047022,-0.507018,3.142290
2026-01-04T14:01:07.469931,10.571490,-8.858229,2.163111,0.973718,-0.216246,3.222924
2026-01-04T14:01:07.479931,9.700502,-8.087740,2.163111,0.805120,0.073303,3.271793
2026-01-04T14:01:07.489931,8.408378,-7.499106,2.220539,0.631634,0.280997,3.242472
2026-01-04T14:01:07.498931,7.054041,-7.121040,1.823330,0.337197,0.353080,3.211928
2026-01-04T14:01:07.508931,5.977270,-7.499106,1.512263,0.020769,0.280997,3.119077
2026-01-04T14:01:07.517931,5.431707,-8.149953,1.641476,-0.206472,0.090408,2.935817
2026-01-04T14:01:07.527931,5.685346,-9.064012,1.612762,-0.379958,-0.178372,2.712241
2026-01-04T14:01:07.537931,6.565905,-10.207781,1.703689,-0.447153,-0.433714,2.495994
2026-01-04T14:01:07.546931,7.747959,-10.839486,2.349751,-0.305432,-0.557108,2.282192
2026-01-04T14:01:07.556931,8.757730,-10.963913,3.024527,-0.116064,-0.481361,2.105041
2026-01-04T14:01:07.566931,9.150153,-10.791629,3.043670,0.013439,-0.212581,1.977981
2026-01-04T14:01:07.575931,8.748159,-10.327422,3.220739,0.157603,0.149051,1.849699
2026-01-04T14:01:07.585931,7.637889,-9.614361,3.187239,0.189368,0.444709,1.736078
2026-01-04T14:01:07.594931,6.345765,-9.346365,3.177668,0.057421,0.583987,1.631009
2026-01-04T14:01:07.604931,5.201996,-9.351150,3.326023,-0.125838,0.572991,1.480737
2026-01-04T14:01:07.614931,4.508077,-9.753144,3.168097,-0.437379,0.459370,1.334129
2026-01-04T14:01:07.623931,4.383651,-10.782058,2.809173,-0.779463,0.324980,1.164308
2026-01-04T14:01:07.633931,4.412364,-11.729616,2.775674,-0.945619,0.205250,0.944397
2026-01-04T14:01:07.642931,4.833501,-12.327822,2.718246,-0.976162,0.113620,0.711046
2026-01-04T14:01:07.652931,5.178068,-12.686745,2.555534,-0.869871,0.094073,0.483805
2026-01-04T14:01:07.662931,5.268995,-12.394821,2.277967,-0.625525,0.162490,0.243124
2026-01-04T14:01:07.671931,4.996213,-11.686545,1.847259,-0.416610,0.260228,0.003665
2026-01-04T14:01:07.681931,4.455435,-11.260623,1.641476,-0.337197,0.324980,-0.240680
2026-01-04T14:01:07.691931,4.168296,-11.485548,1.679761,-0.438601,0.311541,-0.492357
2026-01-04T14:01:07.700931,4.321437,-12.500105,1.885544,-0.615752,0.202807,-0.755029
2026-01-04T14:01:07.710931,5.163711,-13.773086,2.617747,-0.731816,0.024434,-1.015257
2026-01-04T14:01:07.719931,6.561119,-14.744572,3.067598,-0.715933,-0.112399,-1.247386
2026-01-04T14:01:07.729931,7.752745,-14.782858,2.627319,-0.563217,-0.070860,-1.414763
2026-01-04T14:01:07.739931,8.197810,-13.820943,1.952543,-0.328645,0.164933,-1.551597
2026-01-04T14:01:07.748931,7.642675,-11.897113,1.239482,-0.149051,0.477696,-1.678657
2026-01-04T14:01:07.758931,6.518048,-9.872786,0.981057,-0.114842,0.707381,-1.841147
2026-01-04T14:01:07.767931,5.350351,-8.614161,1.478764,-0.178372,0.756251,-2.062280
2026-01-04T14:01:07.777931,4.780859,-8.078169,1.579262,-0.384845,0.636521,-2.254092
2026-01-04T14:01:07.787931,4.809573,-8.729016,0.780060,-0.767246,0.412944,-2.382373
2026-01-04T14:01:07.796931,5.589633,-10.332207,0.000000,-1.191186,0.160046,-2.450790
2026-01-04T14:01:07.806931,6.939185,-12.021540,-0.081355,-1.353677,-0.023212,-2.531425
2026-01-04T14:01:07.816931,8.173882,-13.088739,0.296710,-1.231504,-0.063529,-2.605950
2026-01-04T14:01:07.825931,8.934799,-13.289736,0.373280,-0.941954,0.070860,-2.618167
2026-01-04T14:01:07.835931,8.767302,-12.375678,0.354137,-0.553443,0.348193,-2.598620
2026-01-04T14:01:07.844931,7.661817,-10.667203,0.947557,-0.276111,0.615752,-2.623054
2026-01-04T14:01:07.854931,6.384050,-9.236295,1.808973,-0.208915,0.708603,-2.724458
2026-01-04T14:01:07.864931,5.627918,-8.240881,2.143969,-0.322536,0.586430,-2.856405
2026-01-04T14:01:07.873931,5.728417,-7.585247,2.000399,-0.460592,0.356745,-3.053103
2026-01-04T14:01:07.883931,6.250052,-7.135396,0.641276,-0.453261,0.199142,-3.323106
2026-01-04T14:01:07.892931,6.766902,-6.589833,-0.516849,-0.272445,0.146607,-3.623651
2026-01-04T14:01:07.902931,7.298108,-6.436692,-0.689132,-0.083077,0.138055,-3.891210
2026-01-04T14:01:07.912931,7.939385,-6.905686,-0.564706,-0.090408,0.103847,-4.036596
2026-01-04T14:01:07.921931,8.824729,-7.920242,-0.569491,-0.190589,0.004886,-4.101348
2026-01-04T14:01:07.931931,10.236495,-8.733802,1.311266,-0.304210,-0.160046,-4.152661
2026-01-04T14:01:07.941931,11.858828,-9.408578,1.521835,-0.648738,-0.312762,-4.006053
2026-01-04T14:01:07.950931,13.083953,-10.169496,1.502692,-0.933401,-0.309097,-3.782476
2026-01-04T14:01:07.960931,13.490733,-10.375278,1.354337,-0.900415,-0.092851,-3.584556
2026-01-04T14:01:07.969931,12.868599,-9.781858,1.091127,-0.795346,0.202807,-3.395188
2026-01-04T14:01:07.979931,11.619546,-9.255437,0.579063,-0.731816,0.401949,-3.265684
2026-01-04T14:01:07.989931,10.480562,-8.508877,0.770488,-0.540004,0.414166,-3.236363
2026-01-04T14:01:07.998931,9.695717,-7.403393,0.349352,-0.333532,0.278554,-3.276680
2026-01-04T14:01:08.008931,9.509077,-6.527620,-0.401994,-0.193033,0.087964,-3.329214
2026-01-04T14:01:08.017931,9.700502,-6.063412,-0.942772,0.014660,-0.064751,-3.441614
2026-01-04T14:01:08.027931,10.155139,-5.757131,-0.842273,0.271224,-0.144164,-3.545461
2026-01-04T14:01:08.037931,10.676774,-5.441278,-0.086141,0.460592,-0.161268,-3.563787
2026-01-04T14:01:08.046931,10.896914,-4.622933,0.421136,0.574213,-0.136833,-3.533243
2026-01-04T14:01:08.056931,10.772487,-3.579662,0.023928,0.481361,-0.094073,-3.451387
2026-01-04T14:01:08.066931,10.518848,-2.933600,-0.330209,0.196698,-0.136833,-3.357314
2026-01-04T14:01:08.075931,10.609775,-2.402393,-0.057427,-0.039095,-0.278554,-3.296228
2026-01-04T14:01:08.085931,11.284551,-1.703689,1.239482,-0.367740,-0.519235,-3.207041
2026-01-04T14:01:08.094931,11.973684,-1.636690,2.488535,-0.878424,-0.638964,-3.067764
2026-01-04T14:01:08.104931,12.792029,-2.344966,2.670390,-1.385442,-0.599869,-2.885726
2026-01-04T14:01:08.114931,13.490733,-3.493520,3.139383,-1.640783,-0.393397,-2.752558
2026-01-04T14:01:08.123931,13.351950,-4.450650,2.378465,-1.673770,-0.034208,-2.582737
2026-01-04T14:01:08.133931,12.442677,-5.087140,1.115055,-1.456302,0.368962,-2.444682
2026-01-04T14:01:08.142931,11.006983,-5.321637,0.368494,-0.983492,0.670729,-2.368934
2026-01-04T14:01:08.152931,9.494720,-4.886143,0.052642,-0.417831,0.770911,-2.300518
2026-01-04T14:01:08.162931,8.461020,-4.192225,-0.162711,0.063529,0.680503,-2.218662
2026-01-04T14:01:08.171931,7.925028,-3.412165,-0.277567,0.404392,0.487470,-2.120923
2026-01-04T14:01:08.181931,7.829315,-2.522035,-0.200997,0.609643,0.304210,-2.006081
2026-01-04T14:01:08.191931,7.747959,-1.612762,-0.019142,0.664621,0.184481,-1.863138
2026-01-04T14:01:08.200931,7.728816,-0.813559,0.172283,0.580321,0.120951,-1.715309
2026-01-04T14:01:08.210931,7.523034,-0.086141,0.535992,0.384845,0.097738,-1.576031
2026-01-04T14:01:08.219931,7.221538,0.330209,1.172483,0.087964,0.074525,-1.451415
2026-01-04T14:01:08.229931,7.058826,0.253639,1.402194,-0.263893,0.024434,-1.339016
2026-01-04T14:01:08.239931,6.910471,0.062213,1.033699,-0.576656,-0.048869,-1.235169
2026-01-04T14:01:08.248931,7.140182,-0.229710,0.693918,-0.795346,-0.136833,-1.148426
2026-01-04T14:01:08.258931,7.288537,-0.602991,0.406779,-0.949284,-0.204028,-1.056796
2026-01-04T14:01:08.267931,7.355536,-1.153340,0.167497,-1.020144,-0.205250,-0.952949
2026-01-04T14:01:08.277931,7.192824,-1.526620,0.191425,-0.965166,-0.140498,-0.868650
2026-01-04T14:01:08.287931,6.800401,-1.933400,0.153140,-0.828333,-0.061086,-0.783129
2026-01-04T14:01:08.296931,6.245266,-2.057827,0.181854,-0.634077,-0.015882,-0.714712
2026-01-04T14:01:08.306931,5.642275,-2.048256,0.344566,-0.393397,-0.045204,-0.657290
2026-01-04T14:01:08.316931,5.297709,-1.938186,0.540777,-0.130725,-0.128281,-0.607199
2026-01-04T14:01:08.325931,5.235495,-1.526620,0.803988,0.116064,-0.238237,-0.570548
2026-01-04T14:01:08.335931,5.532205,-1.014556,0.698704,0.285884,-0.326201,-0.526565
2026-01-04T14:01:08.344931,5.924628,-0.344566,0.526420,0.361632,-0.367740,-0.486248
2026-01-04T14:01:08.354931,6.240481,0.162711,0.378065,0.315206,-0.344527,-0.433714
2026-01-04T14:01:08.364931,6.230910,0.382851,0.445065,0.201585,-0.261450,-0.371405
2026-01-04T14:01:08.373931,5.943771,0.488135,0.507278,0.042760,-0.138055,-0.306654
2026-01-04T14:01:08.383931,5.393422,0.267996,0.650847,-0.129503,-0.019547,-0.252898
2026-01-04T14:01:08.392931,4.599005,-0.090927,0.617348,-0.250454,0.043982,-0.202807
2026-01-04T14:01:08.402931,3.976871,-0.416351,0.751346,-0.295658,0.009773,-0.175929
2026-01-04T14:01:08.412931,3.632304,-0.794417,0.847059,-0.256563,-0.129503,-0.175929
2026-01-04T14:01:08.421931,3.938585,-1.043270,0.803988,-0.134390,-0.338419,-0.178372
2026-01-04T14:01:08.431931,4.666004,-1.000199,0.813559,0.034208,-0.546113,-0.182037
2026-01-04T14:01:08.441931,5.637490,-0.818345,0.837487,0.183259,-0.664621,-0.171042
2026-01-04T14:01:08.450931,6.422335,-0.468993,0.770488,0.282219,-0.643851,-0.150272
2026-01-04T14:01:08.460931,6.972685,-0.315852,0.622133,0.333532,-0.511904,-0.122173
2026-01-04T14:01:08.469931,6.924828,-0.205782,0.588634,0.339641,-0.351858,-0.083077
2026-01-04T14:01:08.479931,6.728617,-0.071784,0.679561,0.334754,-0.263893,-0.046425
2026-01-04T14:01:08.489931,6.671189,0.143569,0.689132,0.313984,-0.289550,-0.025656
2026-01-04T14:01:08.498931,6.920042,0.449850,0.689132,0.259006,-0.383623,-0.003665
2026-01-04T14:01:08.508931,7.532605,0.669990,0.775274,0.180816,-0.486248,0.001221
2026-01-04T14:01:08.517931,8.255237,0.784845,0.746560,0.054977,-0.557108,0.007330
2026-01-04T14:01:08.527931,9.083154,0.684347,0.674775,-0.091629,-0.580321,0.021991
2026-01-04T14:01:08.537931,9.844072,0.535992,0.803988,-0.213802,-0.553443,0.030543
2026-01-04T14:01:08.546931,10.494919,0.244067,0.837487,-0.310319,-0.483805,0.067195
2026-01-04T14:01:08.556931,10.987841,-0.052642,0.760917,-0.359188,-0.389731,0.124616
2026-01-04T14:01:08.566931,11.241480,-0.196211,0.842273,-0.349414,-0.277332,0.180816
2026-01-04T14:01:08.575931,11.265408,-0.239282,0.885344,-0.313984,-0.157603,0.234572
2026-01-04T14:01:08.585931,11.059626,-0.162711,0.837487,-0.260228,-0.057421,0.295658
2026-01-04T14:01:08.594931,10.810772,0.114855,1.043270,-0.208915,-0.004886,0.345749
2026-01-04T14:01:08.604931,10.633703,0.354137,1.177268,-0.205250,0.008552,0.399505
2026-01-04T14:01:08.614931,10.571490,0.780060,1.272981,-0.244346,0.017104,0.443488
2026-01-04T14:01:08.623931,10.528419,1.009771,1.421336,-0.340862,0.041538,0.480139
2026-01-04T14:01:08.633931,10.384850,1.067198,1.450050,-0.502131,0.073303,0.514348
2026-01-04T14:01:08.642931,10.169496,0.827916,1.430907,-0.668286,0.112399,0.532674
2026-01-04T14:01:08.652931,9.906285,0.306281,1.694118,-0.789237,0.136833,0.526565
2026-01-04T14:01:08.662931,9.705288,-0.478564,1.703689,-0.830776,0.141720,0.509461
2026-01-04T14:01:08.671931,9.547362,-1.387837,1.794616,-0.745255,0.134390,0.478918
2026-01-04T14:01:08.681931,9.571290,-2.182254,2.033899,-0.516791,0.105068,0.432492
2026-01-04T14:01:08.691931,9.690931,-2.641676,2.062613,-0.188146,0.078190,0.389731
2026-01-04T14:01:08.700931,9.858429,-2.699103,2.009970,0.201585,0.097738,0.364075
2026-01-04T14:01:08.710931,9.906285,-2.359323,1.861615,0.553443,0.155159,0.361632
2026-01-04T14:01:08.719931,9.911071,-1.670190,1.694118,0.766024,0.241902,0.384845
2026-01-04T14:01:08.729931,9.662217,-1.067198,1.426122,0.801455,0.337197,0.445931
2026-01-04T14:01:08.739931,9.145367,-0.579063,1.359123,0.674395,0.415388,0.533896
2026-01-04T14:01:08.748931,8.604590,-0.459421,1.277767,0.442266,0.458148,0.627969
2026-01-04T14:01:08.758931,8.073383,-0.626919,1.335195,0.185702,0.452040,0.718377
2026-01-04T14:01:08.767931,7.724031,-1.057627,1.392622,-0.041538,0.405614,0.789237
2026-01-04T14:01:08.777931,7.523034,-1.698904,1.464407,-0.186924,0.331088,0.844215
2026-01-04T14:01:08.787931,7.566105,-2.435893,1.593619,-0.190589,0.235793,0.885754
2026-01-04T14:01:08.796931,7.944171,-3.014956,1.445264,-0.062308,0.150272,0.917519
2026-01-04T14:01:08.806931,8.384450,-3.139383,1.239482,0.147829,0.147829,0.956614
2026-01-04T14:01:08.816931,8.676374,-3.000599,0.842273,0.394618,0.267558,1.000597
2026-01-04T14:01:08.825931,8.441878,-2.555534,0.382851,0.598647,0.466700,1.062905
2026-01-04T14:01:08.835931,7.805387,-2.096112,0.239282,0.726929,0.657290,1.134987
2026-01-04T14:01:08.844931,6.829115,-1.660618,0.186640,0.778242,0.766024,1.246164
2026-01-04T14:01:08.854931,5.915057,-1.134197,0.167497,0.723264,0.780685,1.372003
2026-01-04T14:01:08.864931,5.106283,-0.770488,0.392422,0.559552,0.713490,1.496619
2026-01-04T14:01:08.873931,4.594219,-0.626919,0.492921,0.335975,0.581543,1.612683
2026-01-04T14:01:08.883931,4.220939,-0.746560,0.574277,0.096516,0.416610,1.706757
2026-01-04T14:01:08.892931,4.331008,-1.215553,0.756131,-0.079412,0.232128,1.773952
2026-01-04T14:01:08.902931,4.733003,-1.641476,0.698704,-0.144164,0.004886,1.814269
2026-01-04T14:01:08.912931,5.747559,-2.072184,0.512064,-0.125838,-0.212581,1.827708
2026-01-04T14:01:08.921931,6.939185,-2.407179,0.047856,-0.042760,-0.313984,1.827708
2026-01-04T14:01:08.931931,7.891528,-2.617747,-0.349352,0.094073,-0.255341,1.825264
2026-01-04T14:01:08.941931,8.307880,-2.589034,-0.401994,0.212581,-0.107512,1.822821
2026-01-04T14:01:08.950931,8.327022,-2.555534,-0.602991,0.324980,0.063529,1.835038
2026-01-04T14:01:08.960931,7.939385,-2.325823,-0.512064,0.455705,0.232128,1.866803
2026-01-04T14:01:08.969931,7.135396,-1.785045,-0.014356,0.612086,0.426383,1.926668
2026-01-04T14:01:08.979931,6.202196,-1.182054,0.205782,0.520457,0.493579,2.014633
2026-01-04T14:01:08.989931,5.402993,-1.100698,0.000000,0.261450,0.404392,2.090380
2026-01-04T14:01:08.998931,5.020141,-1.493121,-0.215354,0.019547,0.177150,2.150245
2026-01-04T14:01:09.008931,5.268995,-2.153540,-0.258424,-0.106290,-0.113620,2.178344
2026-01-04T14:01:09.017931,5.962913,-2.775674,-0.368494,-0.106290,-0.368962,2.180788
2026-01-04T14:01:09.027931,6.963113,-3.388236,-0.617348,0.019547,-0.477696,2.163684
2026-01-04T14:01:09.037931,7.714460,-3.842873,-0.579063,0.256563,-0.405614,2.139249
2026-01-04T14:01:09.046931,7.982456,-3.952942,-0.732203,0.505796,-0.243124,2.138027
2026-01-04T14:01:09.056931,7.671389,-3.981656,-0.851844,0.669508,-0.075747,2.149023
2026-01-04T14:01:09.066931,7.044469,-3.991228,-0.971485,0.768468,0.014660,2.174679
2026-01-04T14:01:09.075931,6.613761,-3.790230,-1.062413,0.828333,-0.031764,2.173458
2026-01-04T14:01:09.085931,6.484549,-3.469592,-0.483350,0.874758,-0.155159,2.169792
2026-01-04T14:01:09.094931,6.766902,-3.144168,0.119641,0.786794,-0.354301,2.171014
2026-01-04T14:01:09.104931,7.365107,-3.062812,0.306281,0.561995,-0.527787,2.183231
2026-01-04T14:01:09.114931,7.982456,-3.522234,-0.057427,0.237015,-0.610865,2.216218
2026-01-04T14:01:09.123931,8.379664,-4.532006,-0.205782,-0.032986,-0.613308,2.252870
2026-01-04T14:01:09.133931,8.532805,-5.570491,-0.354137,-0.129503,-0.563217,2.274861
2026-01-04T14:01:09.142931,8.374879,-6.666403,-0.124426,-0.061086,-0.496022,2.304183
2026-01-04T14:01:09.152931,8.298308,-7.657032,0.220139,0.213802,-0.433714,2.331061
2026-01-04T14:01:09.162931,8.212167,-8.279166,0.143569,0.712268,-0.272445,2.386039
2026-01-04T14:01:09.171931,8.561519,-11.121839,0.066999,0.849102,-0.338419,2.467895
2026-01-04T14:01:09.181931,7.834101,-8.499305,0.004785,1.055574,-0.331088,2.557081
2026-01-04T14:01:09.191931,8.054240,-7.992027,-0.497707,1.191186,-0.351858,2.673145
2026-01-04T14:01:09.200931,8.322237,-6.939185,-0.894915,1.122770,-0.441044,2.774549
2026-01-04T14:01:09.210931,8.590233,-6.369693,-0.981057,0.786794,-0.593760,2.836857
2026-01-04T14:01:09.219931,8.977870,-6.226124,-1.071984,0.350636,-0.742811,2.861292
2026-01-04T14:01:09.229931,9.489934,-6.680760,-0.732203,0.070860,-0.799011,2.886948
2026-01-04T14:01:09.239931,10.164710,-7.446463,-0.052642,-0.185702,-0.884532,2.888170
2026-01-04T14:01:09.248931,11.059626,-8.714659,0.330209,-0.180816,-0.831998,2.849074
2026-01-04T14:01:09.258931,10.825129,-11.169695,1.904686,-0.250454,-0.737925,2.773327
2026-01-04T14:01:09.267931,11.456834,-11.734402,2.512463,-0.063529,-0.509461,2.702467
2026-01-04T14:01:09.277931,11.078768,-12.251251,1.177268,0.298102,-0.246789,2.713462
2026-01-04T14:01:09.287931,10.021141,-12.327822,0.306281,0.805120,-0.078190,2.735453
2026-01-04T14:01:09.296931,8.997012,-11.643474,-0.325423,1.320690,-0.083077,2.764775
2026-01-04T14:01:09.306931,8.513662,-10.743773,-0.617348,1.629788,-0.238237,2.786766
2026-01-04T14:01:09.316931,8.580661,-9.494720,-0.717846,1.776395,-0.447153,2.783101
2026-01-04T14:01:09.325931,8.930013,-8.073383,-0.186640,1.780060,-0.623082,2.737897
2026-01-04T14:01:09.335931,9.489934,-7.278966,0.660419,1.491732,-0.709825,2.673145
2026-01-04T14:01:09.344931,10.040283,-7.111468,1.416550,1.082452,-0.680503,2.616946
2026-01-04T14:01:09.354931,10.384850,-7.508677,2.665604,0.741590,-0.541226,2.519207
2026-01-04T14:01:09.364931,10.183852,-8.274380,3.024527,0.371405,-0.309097,2.448347
2026-01-04T14:01:09.373931,9.466006,-9.284151,2.842673,0.223576,-0.036651,2.343278
2026-01-04T14:01:09.383931,8.379664,-10.092925,3.010170,0.311541,0.184481,2.201557
2026-01-04T14:01:09.392931,7.192824,-10.877771,2.330609,0.312762,0.299323,2.152688
2026-01-04T14:01:09.402931,6.192624,-11.418549,1.828116,0.442266,0.329867,2.100154
2026-01-04T14:01:09.412931,5.268995,-11.097911,2.378465,0.700051,0.322536,1.965763
2026-01-04T14:01:09.421931,4.503292,-10.528419,2.067398,0.690277,0.278554,1.880242
2026-01-04T14:01:09.431931,3.857230,-10.068997,2.115255,0.536339,0.200363,1.789834
2026-01-04T14:01:09.441931,3.603590,-9.523433,2.842673,0.372627,0.092851,1.599244
2026-01-04T14:01:09.450931,3.617947,-9.499505,3.058027,-0.004886,-0.036651,1.458745
2026-01-04T14:01:09.460931,3.943371,-10.068997,3.101098,-0.344527,-0.112399,1.325577
2026-01-04T14:01:09.469931,4.130011,-10.983055,3.278166,-0.507018,-0.109955,1.166752
2026-01-04T14:01:09.479931,4.369294,-12.126824,3.297309,-0.596204,-0.052534,1.027475
2026-01-04T14:01:09.489931,4.393222,-13.433306,3.345165,-0.464257,0.061086,0.869871
2026-01-04T14:01:09.498931,4.287938,-14.146367,3.483949,-0.069638,0.195476,0.701273
2026-01-04T14:01:09.508931,3.981656,-14.065011,3.412165,0.326201,0.323758,0.586430
2026-01-04T14:01:09.517931,3.527020,-13.414163,3.259024,0.646295,0.441044,0.441044
2026-01-04T14:01:09.527931,2.991028,-12.485748,3.249453,0.810007,0.502131,0.262671
2026-01-04T14:01:09.537931,2.694318,-11.499905,3.474378,0.757472,0.466700,0.061086
2026-01-04T14:01:09.546931,2.727817,-10.863414,3.440878,0.489913,0.338419,-0.164933
2026-01-04T14:01:09.556931,3.129811,-10.710273,2.914457,-0.002443,0.163711,-0.339641
2026-01-04T14:01:09.566931,3.842873,-11.174481,2.344966,-0.546113,-0.003665,-0.505796
2026-01-04T14:01:09.575931,4.666004,-11.499905,1.832902,-0.916297,-0.133168,-0.715933
2026-01-04T14:01:09.585931,5.321637,-11.581261,1.316052,-1.075122,-0.196698,-0.955393
2026-01-04T14:01:09.594931,5.910271,-11.815757,1.402194,-1.065348,-0.195476,-1.181413
2026-01-04T14:01:09.604931,6.259623,-12.098111,1.976471,-0.944397,-0.114842,-1.387885
2026-01-04T14:01:09.614931,6.302694,-12.409178,2.120040,-0.723264,0.031764,-1.588249
2026-01-04T14:01:09.623931,6.120840,-12.610175,2.277967,-0.493579,0.158824,-1.777617
2026-01-04T14:01:09.633931,5.967699,-12.844671,1.823330,-0.293215,0.205250,-1.986533
2026-01-04T14:01:09.642931,6.116054,-13.428520,1.115055,-0.256563,0.097738,-2.125810
2026-01-04T14:01:09.652931,6.891329,-14.041083,0.646062,-0.285884,-0.123394,-2.235766
2026-01-04T14:01:09.662931,8.087740,-13.954941,0.602991,-0.259006,-0.356745,-2.361604
2026-01-04T14:01:09.671931,9.217152,-12.758530,0.382851,-0.064751,-0.442266,-2.533868
2026-01-04T14:01:09.681931,9.595218,-10.691131,0.401994,0.179594,-0.328645,-2.673145
2026-01-04T14:01:09.691931,9.217152,-8.542376,0.760917,0.169820,-0.118507,-2.735453
2026-01-04T14:01:09.700931,8.240881,-7.039684,0.535992,-0.123394,0.079412,-2.750114
2026-01-04T14:01:09.710931,7.202396,-6.235695,0.311066,-0.535117,0.179594,-2.808757
2026-01-04T14:01:09.719931,6.427121,-6.049055,0.306281,-0.966388,0.140498,-2.934595
2026-01-04T14:01:09.729931,6.273980,-6.618547,0.679561,-1.318246,-0.036651,-3.114190
2026-01-04T14:01:09.739931,6.872186,-7.546962,0.502492,-1.463632,-0.237015,-3.342653
2026-01-04T14:01:09.748931,7.929814,-8.350950,0.143569,-1.357342,-0.351858,-3.574782
2026-01-04T14:01:09.758931,9.059226,-8.781658,-0.497707,-0.984714,-0.376292,-3.776368
2026-01-04T14:01:09.767931,10.289137,-8.662017,-0.181854,-0.447153,-0.377514,-3.942523
2026-01-04T14:01:09.777931,11.499905,-8.082954,0.445065,-0.063529,-0.365297,-4.020714
2026-01-04T14:01:09.787931,12.552747,-7.666603,0.315852,-0.046425,-0.301767,-3.955962
2026-01-04T14:01:09.796931,13.098310,-7.690531,0.086141,-0.221133,-0.142942,-3.843563
2026-01-04T14:01:09.806931,13.026526,-7.800601,0.062213,-0.414166,0.091629,-3.727498
2026-01-04T14:01:09.816931,12.189038,-7.819744,-0.062213,-0.561995,0.331088,-3.596773
2026-01-04T14:01:09.825931,10.820343,-7.369893,-0.334995,-0.557108,0.453261,-3.521026
2026-01-04T14:01:09.835931,9.748359,-6.580262,0.086141,-0.438601,0.368962,-3.541795
2026-01-04T14:01:09.844931,9.427721,-5.484349,0.205782,-0.366519,0.111177,-3.640756
2026-01-04T14:01:09.854931,9.896714,-4.570291,-0.382851,-0.370184,-0.200363,-3.756820
2026-01-04T14:01:09.864931,10.748559,-3.866801,-0.976271,-0.334754,-0.405614,-3.914423
2026-01-04T14:01:09.873931,11.882757,-3.728017,-0.856630,-0.478918,-0.581543,-3.982840
2026-01-04T14:01:09.883931,13.036097,-4.029513,-0.713061,-0.552222,-0.516791,-3.940079
2026-01-04T14:01:09.892931,13.686945,-4.139583,-0.550349,-0.607199,-0.294436,-3.826459
2026-01-04T14:01:09.902931,13.701302,-4.048655,-0.368494,-0.703716,-0.006108,-3.698177
2026-01-04T14:01:09.912931,13.026526,-3.996013,0.368494,-0.799011,0.263893,-3.580891
2026-01-04T14:01:09.921931,12.236894,-3.675375,0.928415,-0.856432,0.432492,-3.450166
2026-01-04T14:01:09.931931,10.279565,-6.072983,4.197010,-1.165530,0.412944,-3.290119
2026-01-04T14:01:09.941931,11.121839,-4.230510,1.919043,-1.436754,0.248011,-3.163059
2026-01-04T14:01:09.950931,11.523833,-4.929214,1.100698,-1.466076,0.112399,-3.045773
2026-01-04T14:01:09.960931,11.739187,-5.235495,0.760917,-1.287703,0.045204,-2.929709
2026-01-04T14:01:09.969931,11.767901,-5.431707,0.516849,-1.022588,0.039095,-2.807536
2026-01-04T14:01:09.979931,11.571690,-5.192425,0.483350,-0.696386,0.078190,-2.689028
2026-01-04T14:01:09.989931,11.198409,-4.651647,0.555134,-0.395840,0.117286,-2.549750
2026-01-04T14:01:09.998931,10.686345,-4.268795,0.387637,-0.189368,0.153938,-2.405586
2026-01-04T14:01:10.008931,10.140782,-4.010370,0.220139,-0.013439,0.191811,-2.255313
2026-01-04T14:01:10.017931,9.623932,-3.747160,0.014356,0.188146,0.217467,-2.128254
2026-01-04T14:01:10.027931,9.049655,-3.306880,0.081355,0.384845,0.233350,-2.018298
2026-01-04T14:01:10.037931,8.532805,-2.699103,0.196211,0.487470,0.211359,-1.894903
2026-01-04T14:01:10.046931,8.145168,-2.105683,0.172283,0.488692,0.160046,-1.767843
2026-01-04T14:01:10.056931,7.905885,-1.560120,0.153140,0.395840,0.096516,-1.649335
2026-01-04T14:01:10.066931,7.633104,-0.985842,0.468993,0.252898,0.050090,-1.533271
2026-01-04T14:01:10.075931,7.436892,-0.502492,0.717846,0.070860,0.036651,-1.429424
2026-01-04T14:01:10.085931,7.154539,-0.105284,0.928415,-0.147829,0.067195,-1.351233
2026-01-04T14:01:10.094931,6.843472,-0.153140,0.966700,-0.404392,0.139277,-1.286481
2026-01-04T14:01:10.104931,6.340979,-0.325423,0.794417,-0.641408,0.206472,-1.231504
2026-01-04T14:01:10.114931,5.876772,-0.789631,0.617348,-0.802676,0.213802,-1.185078
2026-01-04T14:01:10.123931,5.508277,-1.234696,0.339780,-0.877202,0.145385,-1.141096
2026-01-04T14:01:10.133931,5.513063,-1.622333,0.081355,-0.831998,0.017104,-1.087339
2026-01-04T14:01:10.142931,5.742774,-1.698904,0.124426,-0.669508,-0.106290,-1.023809
2026-01-04T14:01:10.152931,6.034698,-1.325623,0.617348,-0.485026,-0.185702,-0.948062
2026-01-04T14:01:10.162931,6.417550,-0.732203,0.904486,-0.381179,-0.188146,-0.842993
2026-01-04T14:01:10.171931,6.508477,-0.229710,0.856630,-0.392175,-0.053756,-0.715933
2026-01-04T14:01:10.181931,5.910271,0.287138,0.794417,-0.502131,0.208915,-0.599869
2026-01-04T14:01:10.191931,4.804787,0.330209,0.660419,-0.664621,0.466700,-0.511904
2026-01-04T14:01:10.200931,3.469592,0.215354,0.449850,-0.817337,0.591317,-0.460592
2026-01-04T14:01:10.210931,2.392822,-0.186640,0.330209,-0.929736,0.529009,-0.433714
2026-01-04T14:01:10.219931,1.737189,-0.713061,0.129212,-0.976162,0.294436,-0.422718
2026-01-04T14:01:10.229931,1.852044,-1.186840,0.224925,-0.896749,-0.031764,-0.423940
2026-01-04T14:01:10.239931,2.431107,-1.560120,0.507278,-0.692721,-0.354301,-0.433714
2026-01-04T14:01:10.248931,3.536591,-1.569691,0.770488,-0.426383,-0.586430,-0.423940
2026-01-04T14:01:10.258931,4.666004,-1.249053,1.148554,-0.157603,-0.673173,-0.405614
2026-01-04T14:01:10.267931,5.556134,-0.813559,1.201196,0.078190,-0.601091,-0.373849
2026-01-04T14:01:10.277931,5.953342,-0.186640,1.215553,0.227241,-0.419053,-0.343306
2026-01-04T14:01:10.287931,5.924628,0.234496,0.942772,0.250454,-0.228463,-0.315206
2026-01-04T14:01:10.296931,5.584847,0.445065,0.789631,0.197920,-0.124616,-0.296880
2026-01-04T14:01:10.306931,5.431707,0.406779,0.622133,0.117286,-0.161268,-0.282219
2026-01-04T14:01:10.316931,5.694917,0.253639,0.679561,0.046425,-0.315206,-0.272445
2026-01-04T14:01:10.325931,6.489334,0.191425,0.598205,0.008552,-0.513126,-0.267558
2026-01-04T14:01:10.335931,7.685746,0.315852,0.421136,0.014660,-0.701273,-0.273667
2026-01-04T14:01:10.344931,9.116654,0.660419,0.354137,0.002443,-0.838106,-0.274889
2026-01-04T14:01:10.354931,10.729416,1.067198,0.253639,-0.075747,-0.900415,-0.263893
2026-01-04T14:01:10.364931,12.294322,1.292124,0.497707,-0.295658,-0.907745,-0.232128
2026-01-04T14:01:10.373931,13.667802,1.397408,0.253639,-0.540004,-0.770911,-0.167377
2026-01-04T14:01:10.383931,14.333007,1.215553,0.157926,-0.799011,-0.532674,-0.096516
2026-01-04T14:01:10.392931,14.146367,0.330209,0.373280,-0.886976,-0.326201,-0.065973
2026-01-04T14:01:10.402931,13.284951,0.650847,0.650847,-0.949284,-0.155159,-0.076969
2026-01-04T14:01:10.412931,12.672388,0.971485,1.722832,-0.458148,0.421496,0.207694
2026-01-04T14:01:10.421931,9.772287,0.110069,0.717846,-0.758694,0.713490,0.373849
2026-01-04T14:01:10.431931,7.211967,0.358923,0.937986,-0.349414,0.864984,0.279776
2026-01-04T14:01:10.441931,8.738588,1.880758,7.982456,-0.658512,0.693942,0.259006
2026-01-04T14:01:10.450931,6.747759,-0.760917,2.751745,-0.466700,0.172263,0.222354
2026-01-04T14:01:10.460931,7.039684,-0.880558,2.684746,-0.199142,-0.131946,0.208915
2026-01-04T14:01:10.469931,7.657032,-0.923629,2.804388,-0.006108,-0.261450,0.202807
2026-01-04T14:01:10.479931,8.231309,-0.914058,2.488535,0.149051,-0.298102,0.226020
2026-01-04T14:01:10.489931,8.824729,-0.861416,2.158325,0.279776,-0.263893,0.263893
2026-01-04T14:01:10.498931,9.217152,-0.679561,2.167897,0.395840,-0.205250,0.310319
2026-01-04T14:01:10.508931,9.590432,-0.478564,2.196611,0.459370,-0.156381,0.353080
2026-01-04T14:01:10.517931,9.958927,-0.363709,2.053041,0.449596,-0.116064,0.415388
2026-01-04T14:01:10.527931,10.274780,-0.220139,1.761117,0.412944,-0.092851,0.475253
2026-01-04T14:01:10.537931,10.676774,0.014356,1.674975,0.322536,-0.084299,0.531452
2026-01-04T14:01:10.546931,10.978270,0.004785,1.727617,0.174707,-0.051312,0.592539
2026-01-04T14:01:10.556931,11.140982,-0.033499,1.698904,0.014660,0.040317,0.653625
2026-01-04T14:01:10.566931,10.805986,-0.296710,1.698904,-0.136833,0.199142,0.720820
2026-01-04T14:01:10.575931,10.155139,-0.727418,1.928615,-0.262671,0.364075,0.794124
2026-01-04T14:01:10.585931,9.332008,-1.000199,1.684547,-0.349414,0.477696,0.883310
2026-01-04T14:01:10.594931,8.575876,-1.205982,1.182054,-0.406836,0.525343,0.961501
2026-01-04T14:01:10.604931,7.867600,-1.397408,0.856630,-0.452040,0.524122,1.037248
2026-01-04T14:01:10.614931,7.355536,-1.751546,0.698704,-0.485026,0.496022,1.119104
2026-01-04T14:01:10.623931,6.896114,-2.072184,0.660419,-0.477696,0.471587,1.193630
2026-01-04T14:01:10.633931,6.498906,-2.392822,0.866201,-0.408057,0.445931,1.254716
2026-01-04T14:01:10.642931,6.154339,-2.694318,1.153340,-0.300545,0.417831,1.314581
2026-01-04T14:01:10.652931,5.737988,-3.101098,1.306481,-0.189368,0.379958,1.374446
2026-01-04T14:01:10.662931,5.436492,-3.617947,1.014556,0.000000,0.322536,1.435533
2026-01-04T14:01:10.671931,5.249852,-3.876372,0.971485,0.342084,0.235793,1.475850
2026-01-04T14:01:10.681931,5.268995,-3.550948,0.780060,0.725707,0.109955,1.506393
2026-01-04T14:01:10.691931,5.522634,-3.048455,0.445065,1.021366,-0.001221,1.539380
2026-01-04T14:01:10.700931,5.915057,-2.411965,0.244067,1.193630,-0.057421,1.585805
2026-01-04T14:01:10.710931,6.273980,-1.880758,0.258424,1.200960,-0.063529,1.660331
2026-01-04T14:01:10.719931,6.436692,-1.651047,0.014356,1.082452,-0.019547,1.750739
2026-01-04T14:01:10.729931,6.350551,-1.655833,-0.062213,0.954171,0.068416,1.847256
2026-01-04T14:01:10.739931,5.953342,-1.794616,-0.215354,0.852767,0.134390,1.930333
2026-01-04T14:01:10.748931,5.623133,-2.038684,-0.258424,0.751364,0.105068,1.992641
2026-01-04T14:01:10.758931,5.513063,-2.574677,-0.043070,0.713490,-0.041538,2.043954
2026-01-04T14:01:10.767931,5.934200,-2.397608,-0.052642,0.852767,-0.210137,2.046398
2026-01-04T14:01:10.777931,6.513263,-1.852044,-0.220139,0.987158,-0.323758,2.020741
2026-01-04T14:01:10.787931,7.245466,-1.373480,-0.564706,0.994488,-0.362853,1.980424
2026-01-04T14:01:10.796931,7.604390,-1.277767,-0.545563,0.951727,-0.332310,1.946216
2026-01-04T14:01:10.806931,7.532605,-1.330409,-0.258424,0.707381,-0.372627,1.919338
2026-01-04T14:01:10.816931,7.015755,-1.574477,-0.282353,0.359188,-0.485026,1.888794
2026-01-04T14:01:10.825931,10.274780,-3.282952,-18.482161,0.152716,-0.593760,1.843590
2026-01-04T14:01:10.835931,6.092126,-2.416750,-1.737189,0.680503,-0.378736,1.875355
2026-01-04T14:01:10.844931,6.178267,-2.632104,-0.253639,1.021366,-0.437379,1.852143
2026-01-04T14:01:10.854931,7.015755,-2.555534,-0.205782,1.191186,-0.615752,1.809382
2026-01-04T14:01:10.864931,8.111668,-2.206182,-0.320638,1.303586,-0.679282,1.767843
2026-01-04T14:01:10.873931,8.977870,-1.804188,-0.770488,1.292590,-0.591317,1.753182
2026-01-04T14:01:10.883931,9.432506,-1.550549,-1.172483,1.147204,-0.430049,1.771508
2026-01-04T14:01:10.892931,9.442077,-1.569691,-1.024128,0.912632,-0.276111,1.813047
2026-01-04T14:01:10.902931,9.217152,-1.828116,-0.870987,0.585208,-0.174707,1.877799
2026-01-04T14:01:10.912931,8.867800,-2.598605,-0.315852,0.226020,-0.145385,1.937664
2026-01-04T14:01:10.921931,8.671589,-3.665804,-0.119641,-0.079412,-0.194255,1.996307
2026-01-04T14:01:10.931931,8.901300,-4.910071,0.086141,-0.207694,-0.298102,2.064724
2026-01-04T14:01:10.941931,9.667003,-6.029912,0.153140,0.123394,-0.255341,2.152688
2026-01-04T14:01:10.950931,10.518848,-7.101897,0.349352,0.825889,0.007330,2.268753
2026-01-04T14:01:10.960931,12.002398,-8.681160,-0.354137,0.560774,-0.293215,2.263866
2026-01-04T14:01:10.969931,11.356336,-8.293523,-0.531206,0.718377,-0.243124,2.364047
2026-01-04T14:01:10.979931,11.274980,-7.877171,-0.631705,1.059240,-0.039095,2.514320
2026-01-04T14:01:10.989931,10.480562,-7.384250,-0.885344,1.187521,0.053756,2.674367
2026-01-04T14:01:10.998931,9.695717,-6.853043,-0.918843,1.152091,0.013439,2.809979
2026-01-04T14:01:11.008931,9.006584,-6.321837,-0.808774,1.000597,-0.146607,2.899165
2026-01-04T14:01:11.017931,8.930013,-5.958128,-0.727418,0.821002,-0.379958,2.957808
2026-01-04T14:01:11.027931,9.600004,-5.886343,-0.492921,0.734259,-0.572991,3.006678
2026-01-04T14:01:11.037931,10.786844,-6.125625,0.004785,0.704938,-0.660956,3.061655
2026-01-04T14:01:11.046931,11.892328,-6.585047,0.100498,0.662177,-0.623082,3.114190
2026-01-04T14:01:11.056931,10.054640,-8.944370,4.225724,0.392175,-0.486248,3.127629
2026-01-04T14:01:11.066931,12.064611,-8.700302,-0.555134,0.221133,-0.332310,3.122742
2026-01-04T14:01:11.075931,10.987841,-8.537591,-0.698704,0.305432,-0.061086,3.130072
2026-01-04T14:01:11.085931,9.767501,-8.676374,-0.583848,0.553443,0.124616,3.126407
2026-01-04T14:01:11.094931,8.595018,-9.365507,-0.339780,0.711046,0.047647,3.114190
2026-01-04T14:01:11.104931,8.236095,-9.504291,-0.100498,0.882089,-0.174707,3.087312
2026-01-04T14:01:11.114931,8.504091,-9.638289,-0.019142,1.032362,-0.433714,3.076316
2026-01-04T14:01:11.123931,9.164510,-9.188438,-0.062213,1.125213,-0.609643,3.095864
2026-01-04T14:01:11.133931,9.781858,-8.173882,0.287138,1.149648,-0.625525,3.090977
2026-01-04T14:01:11.142931,9.839286,-6.943971,0.928415,1.034805,-0.480139,3.056769
2026-01-04T14:01:11.152931,9.379864,-6.020341,1.603191,0.768468,-0.238237,3.004234
2026-01-04T14:01:11.162931,8.394021,-5.670989,1.856830,0.344527,-0.026878,2.951700
2026-01-04T14:01:11.171931,7.403393,-6.465406,1.598405,-0.156381,0.072082,2.900387
2026-01-04T14:01:11.181931,6.709474,-8.135596,0.899701,-0.541226,0.051312,2.811201
2026-01-04T14:01:11.191931,6.317051,-9.934999,0.473778,-0.660956,-0.079412,2.669480
2026-01-04T14:01:11.200931,6.355336,-11.380264,0.153140,-0.507018,-0.265115,2.498438
2026-01-04T14:01:11.210931,6.709474,-12.078968,0.052642,-0.133168,-0.432492,2.327396
2026-01-04T14:01:11.219931,7.135396,-11.806186,0.258424,0.348193,-0.496022,2.196670
2026-01-04T14:01:11.229931,7.312465,-10.916056,0.751346,0.724486,-0.448374,2.112371
2026-01-04T14:01:11.239931,7.049255,-9.781858,0.933200,0.853989,-0.312762,2.074497
2026-01-04T14:01:11.248931,6.474977,-8.776873,1.158126,0.697607,-0.175929,2.032959
2026-01-04T14:01:11.258931,5.771488,-8.360522,1.789831,0.378736,-0.100181,1.915672
2026-01-04T14:01:11.267931,5.158925,-8.595018,2.277967,0.026878,-0.084299,1.729969
2026-01-04T14:01:11.277931,4.718646,-9.437292,2.675175,-0.251676,-0.129503,1.538158
2026-01-04T14:01:11.287931,4.728217,-10.590632,3.407379,-0.383623,-0.204028,1.317025
2026-01-04T14:01:11.296931,4.996213,-11.930613,3.091526,-0.416610,-0.257785,1.137430
2026-01-04T14:01:11.306931,5.288137,-12.892528,2.191825,-0.323758,-0.235793,1.021366
2026-01-04T14:01:11.316931,5.307280,-13.251451,1.646261,-0.045204,-0.102625,0.885754
2026-01-04T14:01:11.325931,4.890929,-12.782458,1.426122,0.212581,0.070860,0.789237
2026-01-04T14:01:11.335931,4.287938,-12.150753,1.330409,0.285884,0.197920,0.722042
2026-01-04T14:01:11.344931,3.699303,-11.576475,1.502692,0.205250,0.248011,0.634077
2026-01-04T14:01:11.354931,3.426521,-11.346764,2.277967,0.019547,0.197920,0.498465
2026-01-04T14:01:11.364931,3.924229,-11.720045,3.349951,-0.161268,0.070860,0.283441
2026-01-04T14:01:11.373931,4.957928,-12.538390,3.077169,-0.290771,-0.078190,0.065973
2026-01-04T14:01:11.383931,6.422335,-13.485948,2.330609,-0.235793,-0.117286,-0.166155
2026-01-04T14:01:11.392931,7.561319,-14.050654,2.043470,0.054977,0.042760,-0.404392
2026-01-04T14:01:11.402931,7.963313,-13.902299,1.392622,0.397062,0.338419,-0.557108
2026-01-04T14:01:11.412931,7.551748,-13.270594,0.655633,0.614530,0.642630,-0.686612
2026-01-04T14:01:11.421931,6.728617,-12.457034,0.535992,0.647517,0.803898,-0.831998
2026-01-04T14:01:11.431931,5.833701,-11.495119,0.512064,0.558330,0.805120,-1.031140
2026-01-04T14:01:11.441931,5.345565,-10.466206,0.837487,0.331088,0.668286,-1.244943
2026-01-04T14:01:11.450931,5.283352,-9.858429,1.904686,0.012217,0.477696,-1.513723
2026-01-04T14:01:11.460931,5.737988,-9.738787,2.325823,-0.403170,0.307876,-1.737300
2026-01-04T14:01:11.469931,6.374479,-9.753144,2.201396,-0.756251,0.237015,-1.932777
2026-01-04T14:01:11.479931,6.809973,-9.509077,2.478964,-0.902858,0.291993,-2.149023
2026-01-04T14:01:11.489931,6.757331,-8.934799,2.474178,-0.971275,0.436157,-2.337169
2026-01-04T14:01:11.498931,6.431907,-8.551947,2.321037,-1.027475,0.596204,-2.510655
2026-01-04T14:01:11.508931,5.900700,-8.628518,1.603191,-1.142317,0.679282,-2.664593
2026-01-04T14:01:11.517931,5.675775,-9.810572,0.191425,-1.461189,0.613308,-2.715906
2026-01-04T14:01:11.527931,6.254838,-11.523833,-0.425922,-1.610240,0.401949,-2.818531
2026-01-04T14:01:11.537931,7.293323,-12.940384,-0.722632,-1.431867,0.109955,-2.943148
2026-01-04T14:01:11.546931,8.949156,-13.916656,-0.636490,-1.167974,-0.133168,-2.976134
2026-01-04T14:01:11.556931,10.566704,-14.352149,-0.267996,-0.770911,-0.183259,-2.967582
2026-01-04T14:01:11.566931,11.499905,-13.663017,0.095712,-0.279776,-0.001221,-2.923600
2026-01-04T14:01:11.575931,11.270194,-12.332607,0.105284,0.050090,0.337197,-2.842966
2026-01-04T14:01:11.585931,9.839286,-10.963913,0.387637,0.180816,0.693942,-2.790431
2026-01-04T14:01:11.594931,7.992027,-9.643075,0.320638,0.230907,0.894306,-2.762332
2026-01-04T14:01:11.604931,6.407978,-8.288737,0.655633,0.226020,0.846659,-2.816088
2026-01-04T14:01:11.614931,5.647061,-7.006184,1.383051,0.129503,0.575434,-2.951700
2026-01-04T14:01:11.623931,5.996413,-6.111268,1.655833,-0.065973,0.188146,-3.110525
2026-01-04T14:01:11.633931,7.231109,-5.575276,1.272981,-0.305432,-0.157603,-3.249802
2026-01-04T14:01:11.642931,8.618947,-5.111069,-0.062213,-0.448374,-0.316428,-3.389079
2026-01-04T14:01:11.652931,9.614361,-4.455435,-0.770488,-0.459370,-0.312762,-3.524691
2026-01-04T14:01:11.662931,10.356136,-4.039084,-0.665204,-0.692721,-0.409279,-3.652973
2026-01-04T14:01:11.671931,10.911271,-3.795016,-0.483350,-1.015257,-0.498465,-3.696955
2026-01-04T14:01:11.681931,11.710473,-4.086941,-0.526420,-0.555887,-0.017104,-3.578447
2026-01-04T14:01:11.691931,11.169695,-4.398007,-0.153140,-0.758694,0.064751,-3.539352
2026-01-04T14:01:11.700931,11.145767,-5.010570,-0.157926,-1.005483,0.124616,-3.499035
2026-01-04T14:01:11.710931,10.782058,-5.450849,-0.287138,-1.231504,0.178372,-3.467270
2026-01-04T14:01:11.719931,10.490134,-5.958128,-0.330209,-1.292590,0.199142,-3.480709
2026-01-04T14:01:11.729931,10.423135,-6.106483,-0.133998,-1.042135,0.206472,-3.516139
2026-01-04T14:01:11.739931,10.916056,-5.747559,0.296710,-0.485026,0.280997,-3.546682
2026-01-04T14:01:11.748931,10.107282,-7.814958,6.360122,-0.838106,0.029321,-3.589443
2026-01-04T14:01:11.758931,11.820543,-4.144368,-0.196211,-0.668286,-0.147829,-3.729942
2026-01-04T14:01:11.767931,12.337393,-3.058027,-0.038285,-0.400727,0.012217,-3.848450
2026-01-04T14:01:11.777931,11.954541,-2.541177,-0.086141,-0.467922,0.152716,-3.893654
2026-01-04T14:01:11.787931,11.322836,-2.756531,-0.311066,-0.761137,0.124616,-3.859445
2026-01-04T14:01:11.796931,10.877771,-3.584448,-0.559920,-1.144761,-0.043982,-3.792250
2026-01-04T14:01:11.806931,10.346564,-4.723431,-0.607776,-0.692721,0.262671,-3.588221
2026-01-04T14:01:11.816931,10.686345,-5.101497,-2.148754,-0.675616,0.174707,-3.444057
2026-01-04T14:01:11.825931,10.523633,-5.388636,-0.703489,-0.532674,0.047647,-3.299893
2026-01-04T14:01:11.835931,10.557133,-5.039284,-0.167497,-0.245567,-0.040317,-3.154507
2026-01-04T14:01:11.844931,10.872985,-4.273581,0.282353,0.056199,-0.081855,-3.014008
2026-01-04T14:01:11.854931,11.131410,-3.407379,0.545563,0.321315,-0.037873,-2.833192
2026-01-04T14:01:11.864931,11.294122,-2.756531,0.679561,0.489913,0.103847,-2.637715
2026-01-04T14:01:11.873931,11.117053,-2.220539,0.732203,0.498465,0.255341,-2.463008
2026-01-04T14:01:11.883931,10.671988,-3.206382,0.143569,0.041538,0.162490,-2.317622
2026-01-04T14:01:11.892931,9.442077,-2.062613,0.033499,-0.183259,0.184481,-2.145358
2026-01-04T14:01:11.902931,8.662017,-1.718046,-0.124426,-0.416610,0.127059,-1.966985
2026-01-04T14:01:11.912931,7.814958,-1.732403,-0.334995,-0.718377,-0.100181,-1.799608
2026-01-04T14:01:11.921931,7.345965,-1.890329,-0.622133,-1.083674,-0.459370,-1.637118
2026-01-04T14:01:11.931931,6.982256,-1.914258,-0.430708,-0.657290,-0.344527,-1.422093
2026-01-04T14:01:11.941931,7.144968,-2.244467,-0.392422,-0.384845,-0.344527,-1.269377
2026-01-04T14:01:11.950931,7.192824,-2.244467,-0.124426,-0.273667,-0.421496,-1.161865
2026-01-04T14:01:11.960931,7.264609,-2.191825,0.267996,-0.144164,-0.456927,-1.086118
2026-01-04T14:01:11.969931,7.393821,-2.072184,0.368494,0.040317,-0.431270,-1.020144
2026-01-04T14:01:11.979931,7.551748,-1.775474,0.512064,0.282219,-0.320093,-0.933401
2026-01-04T14:01:11.989931,7.546962,-1.363908,0.488135,0.448374,-0.197920,-0.853989
2026-01-04T14:01:11.998931,7.408178,-0.923629,0.555134,0.481361,-0.102625,-0.786794
2026-01-04T14:01:12.008931,6.872186,-0.440279,0.497707,0.366519,-0.050090,-0.711046
2026-01-04T14:01:12.017931,6.211767,-0.143569,0.282353,0.106290,-0.054977,-0.640186
2026-01-04T14:01:12.027931,5.206781,0.071784,0.124426,-0.147829,-0.087964,-0.581543
2026-01-04T14:01:12.037931,4.249652,0.229710,0.076570,-0.335975,-0.152716,-0.542448
2026-01-04T14:01:12.046931,3.464807,0.052642,-0.023928,-0.437379,-0.246789,-0.503352
2026-01-04T14:01:12.056931,2.718246,0.090927,0.559920,-0.125838,-0.182037,-0.430049
2026-01-04T14:01:12.066931,2.723032,-0.138783,0.253639,0.026878,-0.313984,-0.389731
2026-01-04T14:01:12.075931,3.268595,-0.229710,0.454636,0.216246,-0.434935,-0.326201
2026-01-04T14:01:12.085931,4.067798,-0.129212,0.626919,0.524122,-0.443488,-0.246789
2026-01-04T14:01:12.094931,4.450650,0.349352,2.545963,0.070860,-0.671951,-0.273667
2026-01-04T14:01:12.104931,5.527420,0.339780,1.071984,-0.032986,-0.678060,-0.204028
2026-01-04T14:01:12.114931,5.766702,0.684347,0.660419,-0.076969,-0.461814,-0.111177
2026-01-04T14:01:12.123931,5.364708,0.669990,0.526420,-0.178372,-0.223576,-0.043982
2026-01-04T14:01:12.133931,4.843072,0.488135,0.277567,-0.248011,-0.084299,0.001221
2026-01-04T14:01:12.142931,4.431507,0.502492,0.162711,-0.283441,-0.094073,0.013439
2026-01-04T14:01:12.152931,4.532006,0.401994,0.043070,-0.307876,-0.237015,0.009773
2026-01-04T14:01:12.162931,5.297709,0.526420,0.239282,-0.307876,-0.425162,-0.012217
2026-01-04T14:01:12.171931,6.427121,0.823130,0.373280,-0.315206,-0.583987,-0.051312
2026-01-04T14:01:12.181931,7.738388,1.076770,0.550349,-0.394618,-0.664621,-0.084299
2026-01-04T14:01:12.191931,9.040083,1.134197,0.301495,-0.561995,-0.682947,-0.117286
2026-01-04T14:01:12.200931,10.279565,0.732203,0.277567,-0.824667,-0.698829,-0.160046
2026-01-04T14:01:12.210931,11.318050,0.358923,0.296710,-0.822224,-0.847880,-0.246789
2026-01-04T14:01:12.219931,12.299108,0.181854,0.114855,-0.945619,-1.104444,-0.259006
2026-01-04T14:01:12.229931,15.251851,-2.474178,1.411765,-0.441044,-0.623082,-0.036651
2026-01-04T14:01:12.239931,12.696316,-2.545963,0.181854,-0.690277,-0.196698,-0.075747
2026-01-04T14:01:12.248931,13.495519,-2.096112,-1.172483,-0.779463,-0.086742,-0.102625
2026-01-04T14:01:12.258931,12.385249,-1.885544,0.066999,-0.454483,0.100181,-0.048869
2026-01-04T14:01:12.267931,11.533404,-1.579262,0.483350,-0.152716,0.260228,0.010995
2026-01-04T14:01:12.277931,10.322636,-0.942772,0.823130,0.160046,0.383623,0.108733
2026-01-04T14:01:12.287931,9.188438,-0.526420,1.473978,0.234572,0.324980,0.202807
2026-01-04T14:01:12.296931,8.260023,0.028713,1.330409,0.248011,0.274889,0.310319
2026-01-04T14:01:12.306931,7.389036,-0.062213,1.483550,0.273667,0.212581,0.408057
2026-01-04T14:01:12.316931,6.963113,0.057427,1.296909,0.299323,0.107512,0.477696
2026-01-04T14:01:12.325931,6.896114,0.110069,1.143769,0.337197,-0.050090,0.509461
2026-01-04T14:01:12.335931,7.537391,0.081355,1.220339,0.411723,-0.246789,0.516791
2026-01-04T14:01:12.344931,8.647660,0.301495,1.086341,0.494800,-0.431270,0.502131
2026-01-04T14:01:12.354931,10.222138,0.555134,0.612562,0.535117,-0.498465,0.485026
2026-01-04T14:01:12.364931,11.475977,0.990628,0.598205,0.459370,-0.441044,0.465479
2026-01-04T14:01:12.373931,12.983455,1.402194,-1.540977,0.351858,-0.213802,0.470366
2026-01-04T14:01:12.383931,12.830314,1.004985,-0.535992,0.141720,0.112399,0.504574
2026-01-04T14:01:12.392931,12.184252,0.870987,0.507278,-0.046425,0.452040,0.349414
2026-01-04T14:01:12.402931,11.073982,1.454836,0.449850,-0.290771,0.693942,0.277332
2026-01-04T14:01:12.412931,9.561719,1.598405,0.488135,-0.447153,0.849102,0.616973
2026-01-04T14:01:12.421931,8.776873,0.306281,0.942772,-0.596204,0.945619,0.970053
2026-01-04T14:01:12.431931,8.269594,-0.090927,1.086341,-1.027475,0.995710,1.187521
2026-01-04T14:01:12.441931,7.451249,-2.086541,0.406779,-0.684168,0.579100,0.860098
2026-01-04T14:01:12.450931,8.441878,-1.823330,1.028913,-0.371405,0.327423,0.714712
2026-01-04T14:01:12.460931,8.858229,-2.076970,0.157926,-0.162490,0.243124,0.697607
2026-01-04T14:01:12.469931,9.336793,-2.009970,0.267996,0.063529,0.239459,0.681725
2026-01-04T14:01:12.479931,9.451649,-1.966900,0.430708,0.257785,0.312762,0.684168
2026-01-04T14:01:12.489931,9.131011,-1.837687,0.559920,0.412944,0.455705,0.698829
2026-01-04T14:01:12.498931,8.327022,-1.837687,0.583848,0.543669,0.590095,0.726929
2026-01-04T14:01:12.508931,7.570890,-1.718046,0.722632,0.669508,0.647517,0.763581
2026-01-04T14:01:12.517931,6.900900,-1.368694,1.186840,0.780685,0.618195,0.796568
2026-01-04T14:01:12.527931,6.585047,-0.995414,1.057627,0.797789,0.546113,0.853989
2026-01-04T14:01:12.537931,6.599404,-0.516849,0.775274,0.720820,0.465479,0.939510
2026-01-04T14:01:12.546931,6.685546,-0.181854,0.483350,0.557108,0.395840,1.033583
2026-01-04T14:01:12.556931,6.819544,-0.057427,0.205782,0.326201,0.364075,1.142317
2026-01-04T14:01:12.566931,6.963113,-0.301495,0.205782,0.092851,0.368962,1.242499
2026-01-04T14:01:12.575931,6.728617,-0.775274,0.119641,-0.086742,0.387288,1.315803
2026-01-04T14:01:12.585931,6.470192,-1.540977,-0.081355,-0.164933,0.386066,1.369559
2026-01-04T14:01:12.594931,6.221338,-1.942971,-0.114855,-0.035430,0.390953,1.396437
2026-01-04T14:01:12.604931,5.895914,-2.191825,-0.014356,0.212581,0.411723,1.420872
2026-01-04T14:01:12.614931,5.800201,-2.388036,0.086141,0.464257,0.376292,1.415985
2026-01-04T14:01:12.623931,6.020341,-2.311466,0.110069,0.722042,0.267558,1.392772
2026-01-04T14:01:12.633931,6.513263,-2.076970,0.234496,0.915075,0.124616,1.385442
2026-01-04T14:01:12.642931,7.255038,-1.828116,0.062213,0.965166,-0.008552,1.387885
2026-01-04T14:01:12.652931,7.996813,-1.536192,-0.100498,0.901636,-0.087964,1.418428
2026-01-04T14:01:12.662931,8.456235,-1.134197,-0.004785,0.681725,-0.146607,1.478293
2026-01-04T14:01:12.671931,9.437292,-0.928415,1.837687,0.840550,0.140498,1.640783
2026-01-04T14:01:12.681931,8.403592,-0.918843,-1.277767,0.612086,0.305432,1.771508
2026-01-04T14:01:12.691931,7.460820,-0.914058,-0.411565,0.346971,0.387288,1.888794
2026-01-04T14:01:12.700931,6.666403,-1.124626,-0.301495,0.118507,0.354301,1.984089
2026-01-04T14:01:12.710931,6.331408,-1.631905,0.138783,-0.039095,0.194255,2.026850
2026-01-04T14:01:12.719931,6.742974,-2.277967,0.239282,-0.018325,0.017104,2.056171
2026-01-04T14:01:12.729931,7.633104,-3.014956,0.177068,0.134390,-0.086742,2.098932
2026-01-04T14:01:12.739931,8.657232,-3.503092,0.172283,0.256563,-0.129503,2.134362
2026-01-04T14:01:12.748931,9.308079,-3.823730,0.047856,0.298102,-0.141720,2.173458
2026-01-04T14:01:12.758931,9.571290,-3.689732,-0.368494,0.283441,-0.139277,2.210109
2026-01-04T14:01:12.767931,9.308079,-3.407379,-0.425922,0.229685,-0.146607,2.249205
2026-01-04T14:01:12.777931,8.858229,-3.072384,-0.033499,0.645073,0.177150,2.365269
2026-01-04T14:01:12.787931,8.255237,-2.885744,-0.239282,0.751364,0.289550,2.452012
2026-01-04T14:01:12.796931,7.671389,-2.813959,-0.483350,0.659734,0.224798,2.508212
2026-01-04T14:01:12.806931,7.412964,-2.909672,-0.607776,0.605978,0.079412,2.500881
2026-01-04T14:01:12.816931,7.585247,-2.971885,-0.411565,0.546113,-0.120951,2.459342
2026-01-04T14:01:12.825931,8.068597,-3.235096,-0.244067,0.460592,-0.318871,2.416582
2026-01-04T14:01:12.835931,8.824729,-3.541377,-0.488135,0.394618,-0.445931,2.378708
2026-01-04T14:01:12.844931,9.614361,-3.799802,-0.832702,0.398284,-0.485026,2.353052
2026-01-04T14:01:12.854931,10.145567,-3.976871,-1.124626,0.428827,-0.436157,2.350608
2026-01-04T14:01:12.864931,10.413563,-4.254438,-1.105484,0.455705,-0.322536,2.372600
2026-01-04T14:01:12.873931,10.231709,-4.565505,-1.014556,0.448374,-0.200363,2.423912
2026-01-04T14:01:12.883931,9.781858,-5.058426,-1.067198,0.417831,-0.102625,2.492329
2026-01-04T14:01:12.892931,9.087940,-5.412564,-0.784845,0.428827,-0.064751,2.544864
2026-01-04T14:01:12.902931,8.465806,-5.383850,-0.425922,0.485026,-0.112399,2.574185
2026-01-04T14:01:12.912931,8.207381,-5.010570,-0.162711,0.574213,-0.210137,2.570520
2026-01-04T14:01:12.921931,8.322237,-4.594219,0.181854,0.701273,-0.222354,2.581515
2026-01-04T14:01:12.931931,8.729016,-4.488935,0.531206,0.796568,-0.127059,2.604728
2026-01-04T14:01:12.941931,9.982855,-3.809373,2.469392,0.155159,-0.377514,2.531425
2026-01-04T14:01:12.950931,9.523433,-6.001199,0.114855,-0.244346,-0.464257,2.520429
2026-01-04T14:01:12.960931,9.638289,-6.896114,0.014356,-0.261450,-0.345749,2.483777
2026-01-04T14:01:12.969931,9.384650,-7.982456,0.019142,-0.114842,-0.201585,2.443460
2026-01-04T14:01:12.979931,8.925228,-8.877371,0.110069,0.145385,-0.080634,2.409251
2026-01-04T14:01:12.989931,8.384450,-9.475577,0.325423,0.521678,-0.021991,2.356717
2026-01-04T14:01:12.998931,7.925028,-9.370293,0.626919,0.954171,-0.048869,2.304183
2026-01-04T14:01:13.008931,7.652246,-8.532805,0.866201,1.323133,-0.149051,2.235766
2026-01-04T14:01:13.017931,7.728816,-7.326822,1.067198,1.492954,-0.291993,2.173458
2026-01-04T14:01:13.027931,8.087740,-6.403193,1.593619,1.439198,-0.419053,2.113593
2026-01-04T14:01:13.037931,8.652446,-5.938985,1.741974,1.122770,-0.460592,2.098932
2026-01-04T14:01:13.046931,9.064012,-6.197410,1.239482,0.700051,-0.379958,2.103819
2026-01-04T14:01:13.056931,9.011369,-6.795616,0.966700,0.335975,-0.221133,2.108706
2026-01-04T14:01:13.066931,8.470592,-7.551748,0.875773,0.020769,-0.072082,2.131919
2026-01-04T14:01:13.075931,7.747959,-8.614161,0.636490,-0.244346,0.025656,2.178344
2026-01-04T14:01:13.085931,6.991827,-9.810572,0.708275,-0.394618,0.053756,2.211331
2026-01-04T14:01:13.094931,6.618547,-10.906485,0.847059,-0.432492,-0.004886,2.222327
2026-01-04T14:01:13.104931,6.494120,-11.566904,1.220339,-0.302989,-0.134390,2.169792
2026-01-04T14:01:13.114931,6.685546,-11.854043,1.928615,-0.036651,-0.274889,2.050063
2026-01-04T14:01:13.123931,7.192824,-11.791829,2.072184,0.191811,-0.376292,1.959655
2026-01-04T14:01:13.133931,7.776673,-11.523833,2.019542,0.365297,-0.378736,1.892460
2026-01-04T14:01:13.142931,8.063812,-11.083554,2.344966,0.524122,-0.294436,1.814269
2026-01-04T14:01:13.152931,8.121239,-10.973484,2.340180,0.481361,-0.168598,1.800830
2026-01-04T14:01:13.162931,7.805387,-11.452048,1.832902,0.280997,-0.019547,1.859473
2026-01-04T14:01:13.171931,7.154539,-11.815757,1.454836,0.205250,0.122173,1.904677
2026-01-04T14:01:13.181931,6.379265,-12.002398,1.191625,0.191811,0.197920,1.930333
2026-01-04T14:01:13.191931,5.656632,-12.141181,0.947557,0.212581,0.206472,1.914451
2026-01-04T14:01:13.200931,5.063212,-12.212966,1.182054,0.348193,0.178372,1.836260
2026-01-04T14:01:13.210931,4.656432,-11.997612,1.402194,0.470366,0.117286,1.734856
2026-01-04T14:01:13.219931,4.589433,-11.877971,1.837687,0.596204,0.046425,1.591914
2026-01-04T14:01:13.229931,4.723431,-11.356336,1.938186,0.728151,-0.015882,1.411098
2026-01-04T14:01:13.239931,4.967499,-10.686345,1.995614,0.744033,-0.050090,1.230282
2026-01-04T14:01:13.248931,5.388636,-10.064211,2.565105,0.728151,-0.030543,1.016479
2026-01-04T14:01:13.258931,5.493920,-9.413364,3.081955,0.638964,0.048869,0.840550
2026-01-04T14:01:13.267931,5.503491,-8.906085,2.842673,0.296880,0.133168,0.770911
2026-01-04T14:01:13.277931,5.096712,-9.336793,2.464607,-0.188146,0.217467,0.722042
2026-01-04T14:01:13.287931,4.618147,-10.088140,2.191825,-0.559552,0.282219,0.638964
2026-01-04T14:01:13.296931,4.130011,-11.035697,1.986042,-0.761137,0.322536,0.511904
2026-01-04T14:01:13.306931,3.761517,-12.241680,1.828116,-0.839328,0.305432,0.354301
2026-01-04T14:01:13.316931,3.622733,-13.447663,1.703689,-0.718377,0.216246,0.163711
2026-01-04T14:01:13.325931,4.110869,-14.136795,1.598405,-0.331088,0.073303,-0.085521
2026-01-04T14:01:13.335931,4.814359,-13.964512,1.689332,0.183259,-0.073303,-0.376292
2026-01-04T14:01:13.344931,5.857629,-12.935598,1.866401,0.588873,-0.163711,-0.657290
2026-01-04T14:01:13.354931,6.666403,-11.442477,2.139183,0.797789,-0.169820,-0.915075
2026-01-04T14:01:13.364931,7.135396,-9.705288,2.847458,0.866206,-0.097738,-1.196073
2026-01-04T14:01:13.373931,7.379464,-7.939385,3.460021,0.742811,0.025656,-1.439198
2026-01-04T14:01:13.383931,7.144968,-6.991827,2.957528,0.315206,0.166155,-1.589471
2026-01-04T14:01:13.392931,6.809973,-7.073183,2.459821,-0.227241,0.283441,-1.718974
2026-01-04T14:01:13.402931,6.455835,-7.996813,2.163111,-0.660956,0.332310,-1.871690
2026-01-04T14:01:13.412931,6.288337,-9.341579,1.555334,-0.950506,0.295658,-2.019520
2026-01-04T14:01:13.421931,6.551548,-11.040483,0.636490,-1.126435,0.184481,-2.125810
2026-01-04T14:01:13.431931,7.168896,-12.356535,-0.066999,-1.065348,0.045204,-2.240653
2026-01-04T14:01:13.441931,8.015955,-12.648460,-0.095712,-0.707381,-0.058643,-2.419025
2026-01-04T14:01:13.450931,8.772087,-11.528619,0.076570,-0.243124,-0.083077,-2.636493
2026-01-04T14:01:13.460931,9.073583,-9.370293,0.492921,0.087964,-0.023212,-2.842966
2026-01-04T14:01:13.469931,8.805587,-7.025327,0.985842,0.120951,0.067195,-3.012786
2026-01-04T14:01:13.479931,8.571090,-5.331208,2.411965,-0.153938,0.092851,-3.202154
2026-01-04T14:01:13.489931,8.738588,-4.996213,3.192025,-0.735481,0.061086,-3.346319
2026-01-04T14:01:13.498931,9.164510,-5.967699,2.072184,-1.395215,0.035430,-3.433061
2026-01-04T14:01:13.508931,9.757930,-7.752745,0.105284,-1.773952,0.050090,-3.545461
2026-01-04T14:01:13.517931,10.255637,-9.738787,-1.531406,-1.778839,0.097738,-3.661525
2026-01-04T14:01:13.527931,10.614561,-11.432906,-1.593619,-1.536936,0.092851,-3.721390
2026-01-04T14:01:13.537931,11.260623,-12.083754,-1.679761,-1.237612,-0.030543,-3.753155
2026-01-04T14:01:13.546931,11.729616,-11.763115,-1.387837,-0.653625,-0.023212,-3.737272
2026-01-04T14:01:13.556931,11.858828,-10.207781,-0.674775,0.322536,0.360410,-3.629760
2026-01-04T14:01:13.566931,11.830114,-8.035098,0.215354,0.946840,0.725707,-3.536908
2026-01-04T14:01:13.575931,14.108082,-3.828516,0.535992,0.393397,0.529009,-3.621208
2026-01-04T14:01:13.585931,11.351550,-4.158725,1.689332,-0.140498,0.489913,-3.565008
2026-01-04T14:01:13.594931,10.810772,-4.211367,1.196411,-0.731816,0.401949,-3.483152
2026-01-04T14:01:13.604931,10.791629,-4.541577,0.521635,-1.231504,0.252898,-3.510030
2026-01-04T14:01:13.614931,10.849057,-5.125426,-0.023928,-1.420872,0.153938,-3.622430
2026-01-04T14:01:13.623931,10.849057,-5.335994,-0.579063,-1.293812,0.105068,-3.787363
2026-01-04T14:01:13.633931,10.911271,-5.498706,-0.311066,-1.055574,0.028099,-3.907093
2026-01-04T14:01:13.642931,11.461620,-6.211767,0.129212,-0.847880,-0.078190,-3.953518
2026-01-04T14:01:13.652931,12.093325,-7.034898,0.043070,-0.607199,-0.136833,-3.925419
2026-01-04T14:01:13.662931,12.672388,-7.652246,-0.105284,-0.243124,-0.089186,-3.880215
2026-01-04T14:01:13.671931,12.801600,-7.173682,0.071784,0.191811,0.048869,-3.799580
2026-01-04T14:01:13.681931,12.289536,-5.771488,0.181854,0.532674,0.208915,-3.693290
2026-01-04T14:01:13.691931,11.624332,-3.818944,0.607776,0.671951,0.290771,-3.597995
2026-01-04T14:01:13.700931,11.179267,-2.033899,1.081555,0.527787,0.213802,-3.549126
2026-01-04T14:01:13.710931,11.351550,-0.933200,1.478764,0.120951,-0.050090,-3.499035
2026-01-04T14:01:13.719931,12.275179,-0.564706,1.234696,-0.448374,-0.339641,-3.420844
2026-01-04T14:01:13.729931,13.399806,-0.995414,0.698704,-0.996931,-0.465479,-3.301115
2026-01-04T14:01:13.739931,14.112867,-1.804188,0.339780,-1.384220,-0.397062,-3.141068
2026-01-04T14:01:13.748931,13.892728,-2.421536,-0.263210,-1.576031,-0.195476,-2.970026
2026-01-04T14:01:13.758931,12.748958,-2.947957,-0.358923,-1.802052,-0.096516,-2.825862
2026-01-04T14:01:13.767931,11.361121,-3.598805,-0.607776,-1.962098,-0.172263,-2.709797
2026-01-04T14:01:13.777931,10.537990,-4.465006,-0.373280,-1.192408,0.117286,-2.499660
2026-01-04T14:01:13.787931,9.279366,-5.053641,-0.363709,-0.701273,0.034208,-2.362826
2026-01-04T14:01:13.796931,9.111868,-5.268995,-0.157926,-0.078190,-0.095294,-2.250427
2026-01-04T14:01:13.806931,9.528219,-4.584648,0.086141,0.686612,-0.125838,-2.156353
2026-01-04T14:01:13.816931,10.068997,-3.153740,0.540777,1.244943,-0.107512,-2.048841
2026-01-04T14:01:13.825931,10.418349,-2.344966,0.306281,1.081231,-0.273667,-1.957211
2026-01-04T14:01:13.835931,10.662417,-0.301495,0.813559,0.963945,-0.140498,-1.827708
2026-01-04T14:01:13.844931,10.475777,1.038485,0.947557,0.579100,0.079412,-1.651779
2026-01-04T14:01:13.854931,9.537790,1.627119,0.646062,-0.046425,0.272445,-1.459967
2026-01-04T14:01:13.864931,8.260023,1.694118,0.507278,-0.770911,0.345749,-1.286481
2026-01-04T14:01:13.873931,6.996613,1.579262,0.244067,-1.514945,0.260228,-1.132543
2026-01-04T14:01:13.883931,6.135197,0.526420,0.387637,-1.392772,0.357966,-0.960279
2026-01-04T14:01:13.892931,5.144568,0.215354,-0.124426,-1.453858,0.224798,-0.814894
2026-01-04T14:01:13.902931,4.890929,-0.459421,0.239282,-1.544267,-0.046425,-0.762359
2026-01-04T14:01:13.912931,6.345765,-0.177068,0.646062,-1.626122,-0.250454,-0.830776
2026-01-04T14:01:13.921931,5.714060,-4.436293,2.890529,-1.590692,-0.436157,-0.783129
2026-01-04T14:01:13.931931,7.322037,-2.770888,1.215553,-1.218065,-0.635299,-0.788015
2026-01-04T14:01:13.941931,8.111668,-2.689532,1.258624,-0.735481,-0.514348,-0.773355
2026-01-04T14:01:13.950931,8.001598,-1.990828,1.167697,-0.315206,-0.118507,-0.736703
2026-01-04T14:01:13.960931,6.819544,-1.430907,0.488135,-0.062308,0.337197,-0.684168
2026-01-04T14:01:13.969931,4.986642,-1.105484,0.009571,0.068416,0.653625,-0.636521
2026-01-04T14:01:13.979931,3.215953,-0.947557,-0.205782,0.136833,0.693942,-0.605978
2026-01-04T14:01:13.989931,2.014756,-0.770488,-0.124426,0.193033,0.510683,-0.565661
2026-01-04T14:01:13.998931,1.560120,-0.468993,-0.004785,0.274889,0.234572,-0.526565
2026-01-04T14:01:14.008931,1.708475,0.023928,0.224925,0.356745,-0.021991,-0.471587
2026-01-04T14:01:14.017931,2.373680,1.009771,0.387637,0.194255,-0.323758,-0.442266
2026-01-04T14:01:14.027931,2.866601,1.095912,1.244267,0.008552,-0.421496,-0.375071
2026-01-04T14:01:14.037931,3.330809,1.220339,1.454836,-0.232128,-0.399505,-0.326201
2026-01-04T14:01:14.046931,3.622733,0.746560,2.000399,-0.459370,-0.344527,-0.288328
2026-01-04T14:01:14.056931,3.895515,0.282353,2.172682,-0.561995,-0.333532,-0.252898
2026-01-04T14:01:14.066931,4.364508,0.148355,1.856830,-0.579100,-0.362853,-0.222354
2026-01-04T14:01:14.075931,5.024927,0.440279,1.249053,-0.577878,-0.383623,-0.189368
2026-01-04T14:01:14.085931,5.699703,0.870987,0.813559,-0.602312,-0.383623,-0.164933
2026-01-04T14:01:14.094931,6.331408,1.167697,1.024128,-0.695164,-0.403170,-0.144164
2026-01-04T14:01:14.104931,6.891329,1.129412,0.947557,-0.866206,-0.443488,-0.102625
2026-01-04T14:01:14.114931,7.786244,0.655633,0.784845,-1.003040,-0.485026,-0.057421
2026-01-04T14:01:14.123931,8.532805,0.210568,0.904486,-1.050687,-0.520457,-0.030543
2026-01-04T14:01:14.133931,9.403792,-0.339780,0.890130,-1.020144,-0.561995,-0.010995
2026-01-04T14:01:14.142931,10.384850,-0.751346,0.550349,-0.878424,-0.591317,-0.002443
2026-01-04T14:01:14.152931,11.284551,-0.856630,0.674775,-0.626747,-0.604756,-0.019547
2026-01-04T14:01:14.162931,12.169895,-0.827916,0.818345,-0.361632,-0.592539,-0.048869
2026-01-04T14:01:14.171931,12.878171,-0.636490,0.770488,-0.128281,-0.511904,-0.068416
2026-01-04T14:01:14.181931,13.217952,-0.488135,1.000199,0.100181,-0.362853,-0.092851
2026-01-04T14:01:14.191931,13.064811,-0.277567,1.143769,0.295658,-0.182037,-0.116064
2026-01-04T14:01:14.200931,12.476177,-0.210568,1.296909,0.430049,0.018325,-0.097738
2026-01-04T14:01:14.210931,11.385049,-0.004785,1.411765,0.558330,0.204028,-0.065973
2026-01-04T14:01:14.219931,10.107282,0.181854,1.722832,0.657290,0.331088,-0.024434
2026-01-04T14:01:14.229931,8.915657,0.401994,1.875972,0.700051,0.361632,0.043982
2026-01-04T14:01:14.239931,7.968099,0.813559,1.852044,0.709825,0.320093,0.131946
2026-01-04T14:01:14.248931,7.398607,1.172483,1.799402,0.667064,0.241902,0.217467
2026-01-04T14:01:14.258931,7.164110,1.607976,1.799402,0.551000,0.146607,0.302989
2026-01-04T14:01:14.267931,7.178467,1.158126,1.368694,0.331088,0.056199,0.344527
2026-01-04T14:01:14.277931,7.513462,1.052841,1.316052,-0.107512,0.096516,0.039095
2026-01-04T14:01:14.287931,7.963313,2.522035,1.756331,-0.555887,0.085521,-0.142942
2026-01-04T14:01:14.296931,5.891129,5.178068,9.054440,-0.291993,0.238237,0.135612
2026-01-04T14:01:14.306931,9.595218,1.071984,1.813759,-0.284663,-0.045204,0.603534
2026-01-04T14:01:14.316931,10.413563,1.502692,1.071984,-0.313984,-0.191811,0.810007
2026-01-04T14:01:14.325931,11.284551,1.469193,0.928415,-0.335975,-0.188146,0.972497
2026-01-04T14:01:14.335931,11.720045,0.382851,0.866201,-0.459370,-0.131946,1.009149
2026-01-04T14:01:14.344931,11.777472,0.617348,0.746560,-0.513126,0.015882,0.812450
2026-01-04T14:01:14.354931,11.452048,0.899701,0.799202,-0.585208,0.222354,0.708603
2026-01-04T14:01:14.364931,10.585847,0.746560,0.832702,-0.615752,0.442266,0.805120
2026-01-04T14:01:14.373931,9.695717,-0.004785,1.454836,-0.579100,0.454483,0.797789
2026-01-04T14:01:14.383931,8.963513,-0.507278,1.100698,-0.492357,0.410501,0.768468
2026-01-04T14:01:14.392931,8.508877,-0.626919,1.134197,-0.300545,0.360410,0.801455
2026-01-04T14:01:14.402931,8.360522,-1.033699,1.612762,-0.111177,0.259006,0.894306
2026-01-04T14:01:14.412931,7.781459,-9.408578,0.239282,0.059864,0.182037,0.963945
2026-01-04T14:01:14.421931,8.537591,-1.737189,0.856630,0.189368,0.188146,0.759916
2026-01-04T14:01:14.431931,8.513662,-1.244267,1.138983,0.287106,0.248011,0.736703
2026-01-04T14:01:14.441931,8.202595,-1.349551,0.990628,0.312762,0.276111,0.840550
2026-01-04T14:01:14.450931,7.896314,-1.478764,0.866201,0.318871,0.248011,0.957836
2026-01-04T14:01:14.460931,7.676174,-1.560120,0.780060,0.332310,0.180816,1.060461
2026-01-04T14:01:14.469931,7.465606,-1.746760,0.751346,0.375071,0.118507,1.131322
2026-01-04T14:01:14.479931,7.417750,-1.828116,0.775274,0.455705,0.042760,1.170417
2026-01-04T14:01:14.489931,7.676174,-1.741974,0.732203,0.557108,-0.072082,1.199739
2026-01-04T14:01:14.498931,8.212167,-1.655833,0.636490,0.637743,-0.184481,1.219286
2026-01-04T14:01:14.508931,8.805587,-1.363908,0.512064,0.697607,-0.190589,1.240056
2026-01-04T14:01:14.517931,8.925228,-1.158126,0.320638,0.744033,-0.062308,1.269377
2026-01-04T14:01:14.527931,8.551947,-0.961914,0.397208,0.733038,0.138055,1.314581
2026-01-04T14:01:14.537931,7.647461,-1.004985,0.263210,0.686612,0.318871,1.378111
2026-01-04T14:01:14.546931,6.541976,-1.076770,0.473778,0.690277,0.405614,1.424537
2026-01-04T14:01:14.556931,5.613561,-1.148554,0.440279,0.690277,0.366519,1.473406
2026-01-04T14:01:14.566931,5.101497,-1.296909,0.612562,0.665842,0.205250,1.532049
2026-01-04T14:01:14.575931,5.201996,-1.373480,0.780060,0.668286,-0.035430,1.593136
2026-01-04T14:01:14.585931,5.991627,-1.311266,0.492921,0.671951,-0.265115,1.661553
2026-01-04T14:01:14.594931,6.876972,-1.110269,0.205782,0.631634,-0.364075,1.732413
2026-01-04T14:01:14.604931,7.676174,-1.062413,0.220139,0.559552,-0.295658,1.800830
2026-01-04T14:01:14.614931,7.752745,-1.129412,0.239282,0.463035,-0.113620,1.876577
2026-01-04T14:01:14.623931,7.307680,-1.373480,0.062213,0.381179,0.087964,1.947437
2026-01-04T14:01:14.633931,6.498906,-1.718046,0.090927,0.365297,0.205250,1.990198
2026-01-04T14:01:14.642931,5.757131,-1.933400,-0.009571,0.423940,0.190589,2.004859
2026-01-04T14:01:14.652931,5.508277,-1.952543,-0.119641,0.548556,0.058643,1.968207
2026-01-04T14:01:14.662931,5.694917,-1.933400,0.086141,0.708603,-0.144164,1.893681
2026-01-04T14:01:14.671931,6.513263,-1.875972,0.320638,0.853989,-0.353080,1.822821
2026-01-04T14:01:14.681931,7.647461,-1.909472,0.095712,0.941954,-0.471587,1.770287
2026-01-04T14:01:14.691931,8.628518,-1.995614,-0.181854,0.965166,-0.477696,1.744630
2026-01-04T14:01:14.700931,9.322436,-2.124826,-0.215354,0.934623,-0.381179,1.762956
2026-01-04T14:01:14.710931,9.533005,-2.134397,-0.258424,0.852767,-0.217467,1.850921
2026-01-04T14:01:14.719931,9.059226,-1.947757,-0.244067,0.728151,-0.054977,1.957211
2026-01-04T14:01:14.729931,8.331808,-1.852044,-0.172283,0.571769,0.052534,2.065945
2026-01-04T14:01:14.739931,7.494320,-1.890329,-0.062213,0.406836,0.063529,2.145358
2026-01-04T14:01:14.748931,6.809973,-2.201396,0.186640,0.252898,-0.040317,2.201557
2026-01-04T14:01:14.758931,6.766902,-2.914457,0.512064,0.122173,-0.234572,2.230879
2026-01-04T14:01:14.767931,7.360322,-3.814159,0.602991,0.076969,-0.438601,2.247983
2026-01-04T14:01:14.777931,8.226524,-4.651647,0.574277,0.171042,-0.553443,2.239431
2026-01-04T14:01:14.787931,9.040083,-5.216353,0.162711,0.367740,-0.552222,2.238209
2026-01-04T14:01:14.796931,9.638289,-5.632704,-0.248853,0.643851,-0.458148,2.243096
2026-01-04T14:01:14.806931,9.844072,-5.723631,-0.263210,0.933401,-0.339641,2.268753
2026-01-04T14:01:14.816931,9.743573,-5.441278,-0.401994,1.152091,-0.246789,2.316400
2026-01-04T14:01:14.825931,9.461220,-4.780859,-0.516849,1.276708,-0.180816,2.373821
2026-01-04T14:01:14.835931,8.987441,-3.890729,-0.311066,1.268155,-0.150272,2.415360
2026-01-04T14:01:14.844931,8.441878,-3.187239,-0.076570,1.094670,-0.168598,2.445903
2026-01-04T14:01:14.854931,8.116454,-2.914457,0.253639,0.784350,-0.238237,2.459342
2026-01-04T14:01:14.864931,8.140382,-3.215953,0.602991,0.403170,-0.367740,2.464229
2026-01-04T14:01:14.873931,8.628518,-4.019941,0.751346,0.026878,-0.530230,2.458121
2026-01-04T14:01:14.883931,9.265009,-5.273781,0.019142,-0.246789,-0.638964,2.452012
2026-01-04T14:01:14.892931,9.796215,-6.498906,-0.545563,-0.294436,-0.625525,2.449569
2026-01-04T14:01:14.902931,9.949356,-7.293323,-0.531206,-0.117286,-0.510683,2.449569
2026-01-04T14:01:14.912931,9.700502,-7.417750,-0.282353,0.145385,-0.348193,2.470338
2026-01-04T14:01:14.921931,8.891728,-6.977470,0.019142,0.362853,-0.218689,2.491107
2026-01-04T14:01:14.931931,8.097311,-6.297909,0.401994,0.441044,-0.193033,2.489886
2026-01-04T14:01:14.941931,7.527819,-5.991627,0.995414,0.312762,-0.299323,2.476447
2026-01-04T14:01:14.950931,7.570890,-6.364908,1.325623,0.041538,-0.516791,2.444682
2026-01-04T14:01:14.960931,8.102097,-7.154539,1.689332,-0.147829,-0.762359,2.386039
2026-01-04T14:01:14.969931,9.212367,-8.154739,2.005185,-0.211359,-0.929736,2.313957
2026-01-04T14:01:14.979931,10.150353,-9.288937,1.134197,-0.151494,-0.923628,2.272418
2026-01-04T14:01:14.989931,10.571490,-10.025926,0.014356,0.112399,-0.722042,2.276083
2026-01-04T14:01:14.998931,10.250852,-9.853643,-0.799202,0.496022,-0.433714,2.312735
2026-01-04T14:01:15.008931,9.164510,-9.011369,-1.100698,0.736703,-0.218689,2.390926
2026-01-04T14:01:15.017931,8.140382,-8.006384,-0.933200,0.696386,-0.166155,2.469116
2026-01-04T14:01:15.027931,7.479963,-7.336394,-0.277567,0.427605,-0.272445,2.494773
2026-01-04T14:01:15.037931,7.255038,-7.130611,0.229710,0.031764,-0.477696,2.460564
2026-01-04T14:01:15.046931,7.618747,-7.451249,0.937986,-0.353080,-0.690277,2.389704
2026-01-04T14:01:15.056931,8.298308,-8.264809,1.411765,-0.682947,-0.819780,2.332282
2026-01-04T14:01:15.066931,8.953942,-9.451649,1.698904,-0.895528,-0.812450,2.302961
2026-01-04T14:01:15.075931,9.250652,-10.576275,2.062613,-0.868650,-0.641408,2.272418
2026-01-04T14:01:15.085931,8.853443,-11.241480,2.053041,-0.663399,-0.342084,2.251648
2026-01-04T14:01:15.094931,7.829315,-11.466405,1.584048,-0.368962,-0.028099,2.222327
2026-01-04T14:01:15.104931,6.446264,-11.294122,0.708275,-0.109955,0.164933,2.173458
2026-01-04T14:01:15.114931,5.278566,-11.054840,-0.086141,0.002443,0.168598,2.111149
2026-01-04T14:01:15.123931,4.546362,-11.136196,-0.693918,-0.030543,0.024434,2.034180
2026-01-04T14:01:15.133931,4.388436,-11.432906,-0.569491,-0.040317,-0.190589,1.904677
2026-01-04T14:01:15.142931,4.689932,-11.686545,0.244067,0.065973,-0.398284,1.736078
2026-01-04T14:01:15.152931,5.359922,-11.743973,0.253639,0.190589,-0.521678,1.590692
2026-01-04T14:01:15.162931,6.020341,-11.763115,0.066999,0.364075,-0.524122,1.434311
2026-01-04T14:01:15.171931,6.451049,-11.595618,0.210568,0.540004,-0.425162,1.284038
2026-01-04T14:01:15.181931,6.613761,-11.404192,0.512064,0.631634,-0.288328,1.210734
2026-01-04T14:01:15.191931,6.360122,-10.997412,0.756131,0.632856,-0.138055,1.192408
2026-01-04T14:01:15.200931,5.699703,-10.762916,0.665204,0.496022,-0.004886,1.209512
2026-01-04T14:01:15.210931,4.828716,-10.758130,0.512064,0.266337,0.080634,1.202182
2026-01-04T14:01:15.219931,3.962514,-10.767701,0.464207,0.098960,0.097738,1.161865
2026-01-04T14:01:15.229931,3.282952,-10.557133,0.660419,-0.025656,0.040317,1.077566
2026-01-04T14:01:15.239931,2.971885,-10.523633,0.339780,-0.219911,-0.068416,0.979827
2026-01-04T14:01:15.248931,2.995813,-10.997412,-0.047856,-0.450818,-0.193033,0.879645
2026-01-04T14:01:15.258931,3.182454,-11.815757,-0.071784,-0.580321,-0.302989,0.744033
2026-01-04T14:01:15.267931,3.622733,-12.634103,-0.086141,-0.536339,-0.367740,0.582765
2026-01-04T14:01:15.277931,4.101297,-13.366307,-0.038285,-0.331088,-0.359188,0.411723
2026-01-04T14:01:15.287931,4.455435,-13.677373,0.526420,0.058643,-0.271224,0.193033
2026-01-04T14:01:15.296931,4.809573,-13.395020,0.866201,0.486248,-0.151494,0.003665
2026-01-04T14:01:15.306931,4.852644,-12.825529,1.148554,0.746477,-0.035430,-0.139277
2026-01-04T14:01:15.316931,4.957928,-12.102896,1.320838,0.813672,0.048869,-0.254119
2026-01-04T14:01:15.325931,5.048855,-11.428120,1.234696,0.702494,0.106290,-0.361632
2026-01-04T14:01:15.335931,5.067998,-11.121839,0.890130,0.372627,0.145385,-0.432492
2026-01-04T14:01:15.344931,5.144568,-10.973484,0.947557,-0.034208,0.167377,-0.503352
2026-01-04T14:01:15.354931,5.388636,-11.073982,1.076770,-0.346971,0.188146,-0.623082
2026-01-04T14:01:15.364931,5.666203,-10.987841,1.186840,-0.540004,0.219911,-0.763581
2026-01-04T14:01:15.373931,6.029912,-10.825129,1.115055,-0.586430,0.280997,-0.941954
2026-01-04T14:01:15.383931,6.154339,-10.480562,1.076770,-0.481361,0.376292,-1.154535
2026-01-04T14:01:15.392931,6.364908,-10.107282,0.823130,-0.289550,0.496022,-1.381776
2026-01-04T14:01:15.402931,6.302694,-9.911071,0.612562,-0.081855,0.608421,-1.634675
2026-01-04T14:01:15.412931,6.202196,-10.140782,-0.325423,-0.085521,0.637743,-1.788613
2026-01-04T14:01:15.421931,6.393621,-10.710273,-1.091127,-0.156381,0.585208,-1.909564
2026-01-04T14:01:15.431931,6.661618,-11.040483,-1.210768,-0.238237,0.465479,-2.013411
2026-01-04T14:01:15.441931,7.427321,-11.140982,-0.483350,-0.381179,0.300545,-2.117258
2026-01-04T14:01:15.450931,8.494520,-10.920842,0.028713,-0.482583,0.161268,-2.245540
2026-01-04T14:01:15.460931,9.633503,-10.423135,0.301495,-0.579100,0.129503,-2.345722
2026-01-04T14:01:15.469931,10.389635,-10.049854,0.449850,-0.711046,0.261450,-2.421469
2026-01-04T14:01:15.479931,10.423135,-9.542576,0.301495,-0.784350,0.535117,-2.500881
2026-01-04T14:01:15.489931,9.772287,-8.853443,-0.301495,-0.755029,0.857654,-2.629163
2026-01-04T14:01:15.498931,8.394021,-7.972884,-1.272981,-0.627969,1.078787,-2.796540
2026-01-04T14:01:15.508931,7.054041,-7.178467,-1.856830,-0.410501,1.120326,-3.059212
2026-01-04T14:01:15.517931,6.273980,-6.814758,-2.172682,-0.327423,0.889419,-3.380527
2026-01-04T14:01:15.527931,6.245266,-7.183253,-2.483749,-0.221133,0.626747,-3.619986
2026-01-04T14:01:15.537931,6.972685,-7.934599,-2.335394,-0.261450,0.274889,-3.725055
2026-01-04T14:01:15.546931,8.561519,-8.465806,-1.813759,-0.387288,-0.109955,-3.758042
2026-01-04T14:01:15.556931,10.844272,-8.537591,0.210568,-0.475253,-0.388510,-3.773924
2026-01-04T14:01:15.566931,13.112667,-8.422735,1.679761,-0.620638,-0.394618,-3.693290
2026-01-04T14:01:15.575931,14.572289,-8.681160,1.430907,-0.736703,0.013439,-3.444057
2026-01-04T14:01:15.585931,14.151152,-9.346365,0.966700,-1.027475,0.472809,-3.251024
2026-01-04T14:01:15.594931,12.232109,-8.446663,-1.062413,-0.989601,1.032362,-3.130072
2026-01-04T14:01:15.604931,9.111868,-7.704888,-2.388036,-0.939510,1.224173,-3.152063
2026-01-04T14:01:15.614931,6.742974,-7.168896,-4.082155,-0.769690,1.007927,-3.285232
2026-01-04T14:01:15.623931,5.369493,-6.518048,-3.771088,-0.224798,0.712268,-3.430618
2026-01-04T14:01:15.633931,4.986642,-5.986842,-2.038684,0.222354,0.296880,-3.541795
2026-01-04T14:01:15.642931,5.714060,-4.814359,-1.177268,0.438601,-0.167377,-3.645642
2026-01-04T14:01:15.652931,6.972685,-3.771088,-0.334995,0.535117,-0.475253,-3.745824
2026-01-04T14:01:15.662931,8.633303,-2.852244,2.273181,0.456927,-0.681725,-3.824015
2026-01-04T14:01:15.671931,10.748559,-2.603390,2.445464,-0.040317,-0.847880,-3.750711
2026-01-04T14:01:15.681931,12.758530,-3.704089,0.540777,-0.715933,-0.825889,-3.586999
2026-01-04T14:01:15.691931,13.993226,-5.393422,0.105284,-1.020144,-0.505796,-3.463605
2026-01-04T14:01:15.700931,13.993226,-6.259623,0.000000,-0.946840,0.004886,-3.315775
2026-01-04T14:01:15.710931,12.557533,-6.455835,-0.277567,-0.767246,0.477696,-3.169168
2026-01-04T14:01:15.719931,10.633703,-6.049055,-0.143569,-0.511904,0.730594,-3.059212
2026-01-04T14:01:15.729931,8.839086,-5.053641,-0.133998,-0.274889,0.711046,-3.003012
2026-01-04T14:01:15.739931,7.886743,-4.067798,-0.334995,-0.177150,0.476474,-2.968804
2026-01-04T14:01:15.748931,8.011170,-3.239881,-0.799202,-0.149051,0.103847,-2.967582
2026-01-04T14:01:15.758931,9.035298,-2.809173,-1.134197,-0.156381,-0.288328,-2.962695
2026-01-04T14:01:15.767931,10.662417,-2.574677,-1.383051,-0.201585,-0.568104,-2.930930
2026-01-04T14:01:15.777931,12.270394,-2.507678,-1.359123,-0.230907,-0.640186,-2.864957
2026-01-04T14:01:15.787931,13.213166,-2.421536,-1.215553,-0.215024,-0.513126,-2.758666
2026-01-04T14:01:15.796931,13.399806,-2.086541,-0.760917,-0.219911,-0.252898,-2.623054
2026-01-04T14:01:15.806931,12.839886,-1.866401,0.028713,-0.305432,0.032986,-2.481334
2026-01-04T14:01:15.816931,11.787044,-1.995614,0.033499,-0.439822,0.229685,-2.331061
2026-01-04T14:01:15.825931,10.906485,-2.244467,-0.052642,-0.494800,0.254119,-2.227214
2026-01-04T14:01:15.835931,10.447063,-2.354537,-0.234496,-0.450818,0.139277,-2.149023
2026-01-04T14:01:15.844931,10.590632,-2.029113,-0.602991,-0.350636,-0.010995,-2.087936
2026-01-04T14:01:15.854931,10.920842,-1.416550,-1.009771,-0.259006,-0.100181,-2.024406
2026-01-04T14:01:15.864931,11.193624,-0.885344,-0.928415,-0.267558,-0.089186,-1.931555
2026-01-04T14:01:15.873931,11.040483,-0.655633,-0.789631,-0.392175,0.010995,-1.797165
2026-01-04T14:01:15.883931,10.566704,-0.780060,-0.478564,-0.564439,0.151494,-1.637118
2026-01-04T14:01:15.892931,9.667003,-1.177268,-0.406779,-0.702494,0.265115,-1.467297
2026-01-04T14:01:15.902931,8.733802,-1.397408,-0.320638,-0.737925,0.315206,-1.321912
2026-01-04T14:01:15.912931,7.824529,-1.483550,-0.220139,-0.671951,0.287106,-1.211956
2026-01-04T14:01:15.921931,7.274180,-1.296909,0.186640,-0.557108,0.177150,-1.132543
2026-01-04T14:01:15.931931,7.183253,-0.914058,0.397208,-0.489913,0.012217,-1.065348
2026-01-04T14:01:15.941931,7.441678,-0.454636,0.038285,-0.504574,-0.140498,-0.966388
2026-01-04T14:01:15.950931,7.838886,0.153140,-0.224925,-0.560774,-0.199142,-0.882089
2026-01-04T14:01:15.960931,7.992027,0.622133,-0.354137,-0.714712,-0.142942,-0.789237
2026-01-04T14:01:15.969931,7.637889,0.593420,-0.502492,-0.926071,0.012217,-0.691499
2026-01-04T14:01:15.979931,6.685546,0.052642,-0.200997,-1.088561,0.186924,-0.621860
2026-01-04T14:01:15.989931,5.393422,-0.650847,0.143569,-1.174082,0.290771,-0.563217
2026-01-04T14:01:15.998931,4.072584,-1.445264,0.253639,-1.131322,0.306654,-0.525343
2026-01-04T14:01:16.008931,2.971885,-2.091326,0.612562,-0.932180,0.226020,-0.508239
2026-01-04T14:01:16.017931,2.297109,-2.321037,1.201196,-0.614530,0.029321,-0.499687
2026-01-04T14:01:16.027931,2.301895,-1.904686,1.220339,-0.265115,-0.207694,-0.481361
2026-01-04T14:01:16.037931,2.766102,-0.957129,1.057627,-0.014660,-0.377514,-0.450818
2026-01-04T14:01:16.046931,3.345165,0.004785,0.875773,0.031764,-0.443488,-0.409279
2026-01-04T14:01:16.056931,3.718446,0.435493,0.789631,-0.117286,-0.393397,-0.342084
2026-01-04T14:01:16.066931,3.627519,0.172283,0.717846,-0.339641,-0.271224,-0.278554
2026-01-04T14:01:16.075931,3.139383,-0.555134,0.746560,-0.476474,-0.163711,-0.227241
2026-01-04T14:01:16.085931,2.598605,-1.402194,0.933200,-0.486248,-0.156381,-0.200363
2026-01-04T14:01:16.094931,2.445464,-1.914258,1.229910,-0.364075,-0.285884,-0.175929
2026-01-04T14:01:16.104931,3.144168,-2.062613,1.392622,-0.163711,-0.530230,-0.161268
2026-01-04T14:01:16.114931,4.431507,-1.698904,1.521835,0.048869,-0.769690,-0.131946
2026-01-04T14:01:16.123931,6.072983,-1.148554,1.651047,0.226020,-0.902858,-0.105068
2026-01-04T14:01:16.133931,7.523034,-0.612562,1.517049,0.277332,-0.926071,-0.080634
2026-01-04T14:01:16.142931,8.910871,-0.215354,0.914058,0.223576,-0.864984,-0.048869
2026-01-04T14:01:16.152931,10.102497,-0.167497,0.531206,0.151494,-0.780685,-0.031764
2026-01-04T14:01:16.162931,11.155338,-0.387637,-0.047856,0.064751,-0.729372,-0.020769
2026-01-04T14:01:16.171931,12.236894,-0.870987,-0.655633,0.043982,-0.698829,-0.007330
2026-01-04T14:01:16.181931,13.246665,-1.239482,-0.598205,0.173485,-0.657290,-0.012217
2026-01-04T14:01:16.191931,14.036297,-1.182054,-0.267996,0.405614,-0.572991,0.019547
2026-01-04T14:01:16.200931,14.495719,-0.669990,0.478564,0.629191,-0.406836,0.091629
2026-01-04T14:01:16.210931,14.199009,0.339780,0.684347,0.756251,-0.090408,0.221133
2026-01-04T14:01:16.219931,12.748958,1.363908,0.789631,0.730594,0.332310,0.356745
2026-01-04T14:01:16.229931,10.509276,1.837687,0.904486,0.552222,0.670729,0.464257
2026-01-04T14:01:16.239931,8.279166,1.057627,0.454636,0.452040,0.891863,0.342084
2026-01-04T14:01:16.248931,7.317251,1.493121,0.114855,0.301767,0.954171,0.007330
2026-01-04T14:01:16.258931,7.302894,2.507678,0.583848,0.031764,0.329867,0.218689
2026-01-04T14:01:16.267931,5.977270,0.827916,0.756131,0.021991,-0.067195,0.387288
2026-01-04T14:01:16.277931,6.905686,0.344566,1.244267,0.174707,-0.329867,0.367740
2026-01-04T14:01:16.287931,8.547162,0.545563,1.220339,0.394618,-0.522900,0.364075
2026-01-04T14:01:16.296931,10.356136,1.158126,0.928415,0.561995,-0.537561,0.493579
2026-01-04T14:01:16.306931,11.600403,0.535992,0.741775,0.561995,-0.410501,0.549778
2026-01-04T14:01:16.316931,12.078968,0.933200,0.650847,0.560774,-0.185702,0.309097
2026-01-04T14:01:16.325931,12.055040,2.440679,0.306281,0.465479,-0.007330,0.125838
2026-01-04T14:01:16.335931,11.136196,2.617747,0.066999,0.323758,0.089186,0.257785
2026-01-04T14:01:16.344931,10.322636,2.526820,0.540777,0.409279,0.360410,0.565661
2026-01-04T14:01:16.354931,9.829715,1.703689,0.172283,0.074525,0.415388,0.509461
2026-01-04T14:01:16.364931,9.647860,1.488335,0.320638,-0.001221,0.328645,0.518013
2026-01-04T14:01:16.373931,9.667003,0.847059,-0.081355,0.026878,0.223576,0.557108
2026-01-04T14:01:16.383931,9.724431,1.335195,-0.186640,0.053756,0.219911,0.553443
2026-01-04T14:01:16.392931,9.695717,1.751546,-0.473778,-0.002443,0.240680,0.582765
2026-01-04T14:01:16.402931,9.681360,1.718046,-0.464207,-0.180816,0.249232,0.623082
2026-01-04T14:01:16.412931,9.614361,1.153340,-0.028713,-0.393397,0.261450,0.668286
2026-01-04T14:01:16.421931,9.456434,0.301495,0.153140,-0.515570,0.315206,0.714712
2026-01-04T14:01:16.431931,9.016155,-0.205782,0.311066,-0.503352,0.438601,0.777020
2026-01-04T14:01:16.441931,8.374879,-0.636490,0.071784,-0.339641,0.558330,0.934623
2026-01-04T14:01:16.450931,7.475177,-0.593420,-0.143569,-0.048869,0.583987,1.078787
2026-01-04T14:01:16.460931,8.800801,1.962114,1.148554,0.118507,0.540004,0.789237
2026-01-04T14:01:16.469931,6.699903,-0.665204,0.296710,0.152716,0.382401,0.794124
2026-01-04T14:01:16.479931,6.699903,-0.483350,0.435493,0.206472,0.252898,0.858876
2026-01-04T14:01:16.489931,7.054041,-0.545563,0.598205,0.295658,0.208915,0.915075
2026-01-04T14:01:16.498931,7.322037,-0.483350,0.569491,0.350636,0.207694,0.974940
2026-01-04T14:01:16.508931,7.523034,-0.483350,0.583848,0.274889,0.205250,1.021366
2026-01-04T14:01:16.517931,7.479963,-0.559920,0.406779,0.158824,0.230907,1.064127
2026-01-04T14:01:16.527931,7.082754,-0.760917,0.272781,0.062308,0.312762,1.114217
2026-01-04T14:01:16.537931,6.403193,-1.028913,0.095712,-0.002443,0.392175,1.161865
2026-01-04T14:01:16.546931,5.714060,-1.253839,0.095712,0.013439,0.430049,1.202182
2026-01-04T14:01:16.556931,5.082355,-1.517049,0.124426,0.122173,0.431270,1.246164
2026-01-04T14:01:16.566931,4.752145,-1.746760,0.234496,0.272445,0.384845,1.281595
2026-01-04T14:01:16.575931,4.268795,-1.670190,3.235096,0.415388,0.289550,1.313359
2026-01-04T14:01:16.585931,5.417350,-1.904686,0.612562,0.437379,0.041538,1.323133
2026-01-04T14:01:16.594931,6.661618,-1.847259,0.090927,0.469144,-0.112399,1.336572
2026-01-04T14:01:16.604931,7.628318,-1.804188,0.110069,0.520457,-0.150272,1.320690
2026-01-04T14:01:16.614931,8.470592,-1.751546,0.004785,0.509461,-0.117286,1.315803
2026-01-04T14:01:16.623931,8.815158,-1.751546,0.019142,0.403170,-0.015882,1.361007
2026-01-04T14:01:16.633931,8.690731,-1.842473,-0.598205,0.476474,0.265115,1.470963
2026-01-04T14:01:16.642931,8.020741,-1.741974,-0.397208,0.443488,0.456927,1.591914
2026-01-04T14:01:16.652931,7.168896,-1.464407,-0.445065,0.304210,0.505796,1.698205
2026-01-04T14:01:16.662931,6.254838,-1.416550,-0.387637,0.129503,0.422718,1.789834
2026-01-04T14:01:16.671931,5.934200,-1.478764,-0.330209,-0.052534,0.217467,1.865582
2026-01-04T14:01:16.681931,6.149554,-1.770688,-0.368494,-0.221133,-0.041538,1.930333
2026-01-04T14:01:16.691931,6.876972,-2.383251,-0.430708,-0.329867,-0.259006,1.982868
2026-01-04T14:01:16.700931,7.791030,-3.182454,-0.679561,-0.349414,-0.355523,2.031737
2026-01-04T14:01:16.710931,8.446663,-4.139583,-0.880558,-0.229685,-0.329867,2.080606
2026-01-04T14:01:16.719931,8.882157,-4.728217,-0.693918,0.004886,-0.232128,2.125810
2026-01-04T14:01:16.729931,8.982656,-5.130211,-0.516849,0.312762,-0.128281,2.167349
2026-01-04T14:01:16.739931,8.839086,-5.106283,-0.464207,0.671951,-0.039095,2.190562
2026-01-04T14:01:16.748931,8.532805,-4.479363,-0.196211,0.966388,0.007330,2.233322
2026-01-04T14:01:16.758931,8.226524,-3.646661,-0.239282,1.066570,-0.018325,2.290744
2026-01-04T14:01:16.767931,8.087740,-2.880958,-0.574277,1.016479,-0.106290,2.329839
2026-01-04T14:01:16.777931,8.183453,-2.383251,-0.708275,0.844215,-0.219911,2.360382
2026-01-04T14:01:16.787931,8.556733,-2.378465,-0.368494,0.579100,-0.360410,2.395812
2026-01-04T14:01:16.796931,9.217152,-2.723032,-0.521635,0.307876,-0.481361,2.420247
2026-01-04T14:01:16.806931,9.834500,-3.402593,-0.961914,0.130725,-0.513126,2.428799
2026-01-04T14:01:16.816931,10.399207,-4.426721,-0.918843,0.062308,-0.441044,2.443460
2026-01-04T14:01:16.825931,10.523633,-5.379065,-0.928415,0.111177,-0.299323,2.491107
2026-01-04T14:01:16.835931,10.308279,-6.297909,-0.957129,0.268780,-0.145385,2.548529
2026-01-04T14:01:16.844931,9.805787,-6.752545,-0.875773,0.521678,-0.026878,2.604728
2026-01-04T14:01:16.854931,9.154939,-6.719045,-0.803988,0.823446,0.008552,2.640159
2026-01-04T14:01:16.864931,8.623732,-6.092126,-0.607776,1.081231,-0.058643,2.669480
2026-01-04T14:01:16.873931,8.484948,-5.087140,-0.047856,1.232725,-0.199142,2.682919
2026-01-04T14:01:16.883931,8.824729,-4.010370,0.167497,1.218065,-0.333532,2.707354
2026-01-04T14:01:16.892931,9.365507,-3.665804,0.220139,0.915075,-0.492357,2.707354
2026-01-04T14:01:16.902931,9.934999,-3.938585,0.086141,0.469144,-0.632856,2.670702
2026-01-04T14:01:16.912931,10.212566,-4.383651,-0.210568,0.100181,-0.664621,2.619389
2026-01-04T14:01:16.921931,10.045069,-5.307280,-0.483350,-0.169820,-0.629191,2.552194
2026-01-04T14:01:16.931931,9.614361,-6.527620,-0.497707,-0.041538,-0.439822,2.497216
2026-01-04T14:01:16.941931,9.260223,-7.791030,-0.392422,0.202807,-0.326201,2.432464
2026-01-04T14:01:16.950931,9.064012,-8.877371,-0.277567,0.658512,-0.217467,2.392147
2026-01-04T14:01:16.960931,8.604590,-10.236495,-0.870987,0.769690,-0.403170,2.355495
2026-01-04T14:01:16.969931,9.590432,-8.810372,-0.062213,1.065348,-0.463035,2.315178
2026-01-04T14:01:16.979931,9.944570,-7.613961,0.325423,1.369559,-0.404392,2.268753
2026-01-04T14:01:16.989931,9.920642,-6.058626,0.751346,1.409876,-0.276111,2.282192
2026-01-04T14:01:16.998931,9.451649,-5.087140,1.052841,1.048244,-0.123394,2.343278
2026-01-04T14:01:17.008931,8.757730,-5.302494,1.052841,0.450818,-0.008552,2.394591
2026-01-04T14:01:17.017931,8.020741,-6.092126,0.832702,-0.096516,0.034208,2.400699
2026-01-04T14:01:17.027931,7.326822,-7.121040,0.847059,-0.430049,0.003665,2.321287
2026-01-04T14:01:17.037931,6.924828,-8.331808,0.875773,-0.565661,-0.103847,2.206444
2026-01-04T14:01:17.046931,6.977470,-9.695717,0.746560,-0.510683,-0.243124,2.100154
