Timestamp,Acceleration_X,Acceleration_Y,Acceleration_Z,Gyro_X,Gyro_Y,Gyro_Z
2025-12-31T16:12:26.150148,9.810572,-1.306481,0.349352,0.039095,-0.021991,0.002443
2025-12-31T16:12:26.160148,9.834500,-1.383051,0.392422,0.028099,-0.018325,0.003665
2025-12-31T16:12:26.169148,9.868000,-1.373480,0.459421,0.023212,-0.009773,0.006108
2025-12-31T16:12:26.179148,9.839286,-1.330409,0.459421,0.009773,-0.003665,0.008552
2025-12-31T16:12:26.188148,9.753144,-1.316052,0.387637,-0.009773,-0.008552,0.013439
2025-12-31T16:12:26.198148,9.791430,-1.339980,0.354137,-0.028099,-0.017104,0.004886
2025-12-31T16:12:26.208148,9.834500,-1.469193,0.363709,-0.041538,-0.020769,0.001221
2025-12-31T16:12:26.217148,9.815358,-1.517049,0.296710,-0.039095,-0.018325,-0.002443
2025-12-31T16:12:26.227148,9.724431,-1.531406,0.330209,-0.021991,-0.009773,-0.006108
2025-12-31T16:12:26.237148,9.690931,-1.478764,0.363709,-0.013439,-0.010995,-0.009773
2025-12-31T16:12:26.246148,9.652646,-1.550549,0.387637,-0.013439,-0.026878,-0.017104
2025-12-31T16:12:26.256148,9.719645,-1.545763,0.425922,-0.013439,-0.047647,-0.024434
2025-12-31T16:12:26.265148,9.887142,-1.540977,0.464207,-0.002443,-0.059864,-0.026878
2025-12-31T16:12:26.275148,9.973284,-1.464407,0.540777,-0.008552,-0.052534,-0.024434
2025-12-31T16:12:26.285148,9.949356,-1.416550,0.468993,-0.020769,-0.034208,-0.020769
2025-12-31T16:12:26.294148,9.920642,-1.450050,0.497707,-0.036651,-0.014660,-0.013439
2025-12-31T16:12:26.304148,9.815358,-1.473978,0.401994,-0.051312,-0.003665,-0.013439
2025-12-31T16:12:26.313148,9.652646,-1.550549,0.531206,-0.062308,-0.007330,-0.007330
2025-12-31T16:12:26.323148,9.705288,-1.655833,0.464207,-0.052534,-0.017104,-0.002443
2025-12-31T16:12:26.333148,9.729216,-1.598405,0.473778,-0.032986,-0.024434,0.003665
2025-12-31T16:12:26.342148,9.724431,-1.564905,0.425922,-0.030543,-0.029321,0.012217
2025-12-31T16:12:26.352148,9.753144,-1.569691,0.430708,-0.039095,-0.030543,0.019547
2025-12-31T16:12:26.362148,9.753144,-1.598405,0.430708,-0.040317,-0.021991,0.028099
2025-12-31T16:12:26.371148,9.767501,-1.655833,0.287138,-0.029321,-0.017104,0.032986
2025-12-31T16:12:26.381148,9.700502,-1.612762,0.344566,-0.009773,-0.020769,0.035430
2025-12-31T16:12:26.390148,9.681360,-1.598405,0.349352,0.007330,-0.035430,0.034208
2025-12-31T16:12:26.400148,9.777073,-1.651047,0.449850,0.020769,-0.052534,0.026878
2025-12-31T16:12:26.410148,9.901499,-1.584048,0.344566,0.037873,-0.057421,0.018325
2025-12-31T16:12:26.419148,9.944570,-1.617548,0.406779,0.056199,-0.047647,0.012217
2025-12-31T16:12:26.429148,9.896714,-1.679761,0.497707,0.065973,-0.035430,0.009773
2025-12-31T16:12:26.438148,9.868000,-1.665404,0.488135,0.081855,-0.025656,0.006108
2025-12-31T16:12:26.448148,9.834500,-1.607976,0.416351,0.105068,-0.018325,0.008552
2025-12-31T16:12:26.458148,9.734002,-1.502692,0.411565,0.128281,-0.012217,0.014660
2025-12-31T16:12:26.467148,9.667003,-1.478764,0.411565,0.129503,-0.009773,0.025656
2025-12-31T16:12:26.477148,9.552147,-1.478764,0.320638,0.134390,-0.018325,0.025656
2025-12-31T16:12:26.487148,9.619146,-1.421336,0.440279,0.146607,-0.047647,0.012217
2025-12-31T16:12:26.496148,9.781858,-1.378265,0.526420,0.140498,-0.085521,0.001221
2025-12-31T16:12:26.506148,10.102497,-1.378265,0.631705,0.128281,-0.097738,-0.009773
2025-12-31T16:12:26.515148,10.179067,-1.354337,0.526420,0.114842,-0.064751,-0.008552
2025-12-31T16:12:26.525148,10.102497,-1.325623,0.454636,0.096516,-0.012217,0.001221
2025-12-31T16:12:26.535148,9.882357,-1.306481,0.311066,0.059864,0.026878,0.012217
2025-12-31T16:12:26.544148,9.585647,-1.330409,0.181854,0.021991,0.034208,0.018325
2025-12-31T16:12:26.554148,9.442077,-1.435693,0.224925,0.001221,0.001221,0.019547
2025-12-31T16:12:26.563148,9.552147,-1.555334,0.287138,-0.002443,-0.051312,0.017104
2025-12-31T16:12:26.573148,9.734002,-1.641476,0.272781,0.012217,-0.089186,0.013439
2025-12-31T16:12:26.583148,10.059426,-1.569691,0.339780,0.031764,-0.096516,0.008552
2025-12-31T16:12:26.592148,10.159924,-1.555334,0.492921,0.050090,-0.067195,0.013439
2025-12-31T16:12:26.602148,10.135996,-1.526620,0.449850,0.061086,-0.025656,0.019547
2025-12-31T16:12:26.612148,9.896714,-1.478764,0.401994,0.070860,0.001221,0.021991
2025-12-31T16:12:26.621148,9.690931,-1.426122,0.258424,0.080634,0.001221,0.024434
2025-12-31T16:12:26.631148,9.518648,-1.411765,0.224925,0.085521,-0.032986,0.018325
2025-12-31T16:12:26.640148,9.600004,-1.383051,0.339780,0.090408,-0.064751,0.009773
2025-12-31T16:12:26.650148,9.829715,-1.383051,0.382851,0.098960,-0.075747,0.004886
2025-12-31T16:12:26.660148,9.868000,-1.421336,0.473778,0.107512,-0.058643,0.006108
2025-12-31T16:12:26.669148,9.791430,-1.282552,0.358923,0.113620,-0.034208,0.012217
2025-12-31T16:12:26.679148,9.662217,-1.229910,0.282353,0.107512,-0.030543,0.014660
2025-12-31T16:12:26.688148,9.647860,-1.272981,0.296710,0.079412,-0.051312,0.013439
2025-12-31T16:12:26.698148,9.796215,-1.406979,0.277567,0.056199,-0.076969,0.013439
2025-12-31T16:12:26.708148,9.872786,-1.445264,0.296710,0.061086,-0.089186,0.006108
2025-12-31T16:12:26.717148,9.934999,-1.368694,0.330209,0.074525,-0.087964,-0.003665
2025-12-31T16:12:26.727148,10.030712,-1.392622,0.397208,0.072082,-0.076969,-0.010995
2025-12-31T16:12:26.737148,10.035497,-1.459621,0.425922,0.057421,-0.059864,-0.015882
2025-12-31T16:12:26.746148,9.906285,-1.507478,0.392422,0.052534,-0.041538,-0.015882
2025-12-31T16:12:26.756148,9.801001,-1.569691,0.349352,0.069638,-0.030543,-0.018325
2025-12-31T16:12:26.765148,9.662217,-1.406979,0.382851,0.086742,-0.031764,-0.017104
2025-12-31T16:12:26.775148,9.647860,-1.325623,0.440279,0.080634,-0.042760,-0.009773
2025-12-31T16:12:26.785148,9.657432,-1.397408,0.483350,0.065973,-0.054977,-0.006108
2025-12-31T16:12:26.794148,9.805787,-1.363908,0.449850,0.056199,-0.058643,-0.001221
2025-12-31T16:12:26.804148,9.839286,-1.397408,0.492921,0.050090,-0.058643,0.002443
2025-12-31T16:12:26.813148,9.949356,-1.421336,0.535992,0.042760,-0.053756,0.002443
2025-12-31T16:12:26.823148,9.934999,-1.383051,0.459421,0.035430,-0.041538,0.003665
2025-12-31T16:12:26.833148,9.868000,-1.368694,0.378065,0.021991,-0.024434,0.010995
2025-12-31T16:12:26.842148,9.848857,-1.411765,0.421136,0.010995,-0.007330,0.019547
2025-12-31T16:12:26.852148,9.791430,-1.517049,0.387637,0.003665,0.004886,0.023212
2025-12-31T16:12:26.862148,9.767501,-1.517049,0.368494,0.009773,0.007330,0.028099
2025-12-31T16:12:26.871148,9.714859,-1.445264,0.397208,0.023212,-0.001221,0.029321
2025-12-31T16:12:26.881148,9.810572,-1.421336,0.373280,0.030543,-0.020769,0.025656
2025-12-31T16:12:26.890148,9.906285,-1.411765,0.354137,0.031764,-0.035430,0.020769
2025-12-31T16:12:26.900148,10.045069,-1.392622,0.416351,0.032986,-0.031764,0.021991
2025-12-31T16:12:26.910148,10.088140,-1.316052,0.368494,0.030543,-0.006108,0.029321
2025-12-31T16:12:26.919148,9.925428,-1.229910,0.425922,0.015882,0.021991,0.039095
2025-12-31T16:12:26.929148,9.829715,-1.205982,0.430708,-0.010995,0.029321,0.048869
2025-12-31T16:12:26.938148,9.633503,-1.210768,0.363709,-0.036651,0.024434,0.053756
2025-12-31T16:12:26.948148,9.633503,-1.301695,0.349352,-0.046425,0.014660,0.054977
2025-12-31T16:12:26.958148,9.647860,-1.296909,0.354137,-0.048869,0.006108,0.052534
2025-12-31T16:12:26.967148,9.628718,-1.253839,0.406779,-0.052534,0.002443,0.053756
2025-12-31T16:12:26.977148,9.710074,-1.253839,0.397208,-0.063529,0.007330,0.054977
2025-12-31T16:12:26.987148,9.595218,-1.249053,0.315852,-0.079412,0.010995,0.058643
2025-12-31T16:12:26.996148,9.528219,-1.253839,0.263210,-0.101403,0.006108,0.064751
2025-12-31T16:12:27.006148,9.456434,-1.263410,0.287138,-0.130725,-0.007330,0.069638
2025-12-31T16:12:27.015148,9.537790,-1.416550,0.267996,-0.140498,-0.026878,0.072082
2025-12-31T16:12:27.025148,9.614361,-1.411765,0.239282,-0.146607,-0.048869,0.068416
2025-12-31T16:12:27.035148,9.667003,-1.450050,0.301495,-0.141720,-0.074525,0.051312
2025-12-31T16:12:27.044148,9.767501,-1.488335,0.401994,-0.135612,-0.105068,0.035430
2025-12-31T16:12:27.054148,9.992427,-1.603191,0.488135,-0.133168,-0.127059,0.009773
2025-12-31T16:12:27.063148,10.202995,-1.670190,0.545563,-0.116064,-0.124616,-0.007330
2025-12-31T16:12:27.073148,10.289137,-1.631905,0.569491,-0.092851,-0.105068,-0.024434
2025-12-31T16:12:27.083148,10.269994,-1.689332,0.564706,-0.070860,-0.072082,-0.035430
2025-12-31T16:12:27.092148,10.164710,-1.718046,0.531206,-0.048869,-0.030543,-0.035430
2025-12-31T16:12:27.102148,9.958927,-1.732403,0.488135,-0.025656,-0.009773,-0.035430
2025-12-31T16:12:27.112148,9.796215,-1.694118,0.516849,-0.006108,-0.012217,-0.032986
2025-12-31T16:12:27.121148,9.753144,-1.698904,0.521635,0.015882,-0.024434,-0.026878
2025-12-31T16:12:27.131148,9.805787,-1.684547,0.559920,0.043982,-0.036651,-0.017104
2025-12-31T16:12:27.140148,9.863214,-1.665404,0.516849,0.061086,-0.031764,-0.001221
2025-12-31T16:12:27.150148,9.820143,-1.622333,0.435493,0.080634,-0.012217,0.015882
2025-12-31T16:12:27.160148,9.738787,-1.550549,0.421136,0.095294,-0.003665,0.024434
2025-12-31T16:12:27.169148,9.719645,-1.517049,0.387637,0.102625,-0.010995,0.026878
2025-12-31T16:12:27.179148,9.796215,-1.540977,0.411565,0.111177,-0.029321,0.024434
2025-12-31T16:12:27.188148,9.863214,-1.488335,0.363709,0.124616,-0.034208,0.020769
2025-12-31T16:12:27.198148,9.901499,-1.296909,0.411565,0.133168,-0.025656,0.010995
2025-12-31T16:12:27.208148,9.891928,-1.215553,0.387637,0.117286,-0.013439,0.004886
2025-12-31T16:12:27.217148,9.791430,-1.258624,0.363709,0.085521,-0.006108,0.006108
2025-12-31T16:12:27.227148,9.719645,-1.239482,0.277567,0.067195,-0.010995,0.003665
2025-12-31T16:12:27.237148,9.738787,-1.359123,0.373280,0.063529,-0.018325,0.004886
2025-12-31T16:12:27.246148,9.738787,-1.330409,0.296710,0.062308,-0.024434,0.006108
2025-12-31T16:12:27.256148,9.705288,-1.210768,0.363709,0.062308,-0.030543,0.003665
2025-12-31T16:12:27.265148,9.719645,-1.153340,0.387637,0.045204,-0.031764,0.004886
2025-12-31T16:12:27.275148,9.690931,-1.148554,0.296710,0.012217,-0.030543,0.012217
2025-12-31T16:12:27.285148,9.734002,-1.263410,0.430708,-0.012217,-0.035430,0.015882
2025-12-31T16:12:27.294148,9.887142,-1.454836,0.435493,-0.025656,-0.032986,0.021991
2025-12-31T16:12:27.304148,9.872786,-1.416550,0.411565,-0.002443,-0.026878,0.017104
2025-12-31T16:12:27.313148,9.820143,-1.234696,0.445065,0.006108,-0.026878,0.015882
2025-12-31T16:12:27.323148,9.848857,-1.277767,0.397208,-0.026878,-0.025656,0.018325
2025-12-31T16:12:27.333148,9.868000,-1.402194,0.291924,-0.047647,-0.025656,0.018325
2025-12-31T16:12:27.342148,9.901499,-1.540977,0.325423,-0.046425,-0.023212,0.021991
2025-12-31T16:12:27.352148,9.844072,-1.574477,0.267996,-0.031764,-0.023212,0.017104
2025-12-31T16:12:27.362148,9.853643,-1.550549,0.272781,0.007330,-0.024434,0.008552
2025-12-31T16:12:27.371148,9.863214,-1.430907,0.363709,0.013439,-0.029321,0.010995
2025-12-31T16:12:27.381148,9.915856,-1.493121,0.373280,0.006108,-0.031764,0.015882
2025-12-31T16:12:27.390148,9.949356,-1.469193,0.344566,0.010995,-0.020769,0.018325
2025-12-31T16:12:27.400148,9.844072,-1.435693,0.354137,0.035430,-0.004886,0.015882
2025-12-31T16:12:27.410148,9.719645,-1.210768,0.339780,0.045204,0.001221,0.019547
2025-12-31T16:12:27.419148,9.652646,-1.000199,0.330209,0.020769,-0.006108,0.023212
2025-12-31T16:12:27.429148,9.628718,-1.105484,0.301495,-0.026878,-0.017104,0.029321
2025-12-31T16:12:27.438148,9.729216,-1.287338,0.311066,-0.065973,-0.025656,0.034208
2025-12-31T16:12:27.448148,9.748359,-1.387837,0.282353,-0.067195,-0.031764,0.032986
2025-12-31T16:12:27.458148,9.719645,-1.330409,0.330209,-0.056199,-0.037873,0.030543
2025-12-31T16:12:27.467148,9.734002,-1.258624,0.334995,-0.056199,-0.039095,0.025656
2025-12-31T16:12:27.477148,9.757930,-1.196411,0.382851,-0.078190,-0.036651,0.023212
2025-12-31T16:12:27.487148,9.815358,-1.296909,0.425922,-0.113620,-0.030543,0.024434
2025-12-31T16:12:27.496148,9.805787,-1.387837,0.325423,-0.131946,-0.031764,0.023212
2025-12-31T16:12:27.506148,9.834500,-1.531406,0.387637,-0.124616,-0.029321,0.021991
2025-12-31T16:12:27.515148,9.858429,-1.469193,0.392422,-0.118507,-0.030543,0.021991
2025-12-31T16:12:27.525148,9.791430,-1.531406,0.392422,-0.118507,-0.034208,0.025656
2025-12-31T16:12:27.535148,9.863214,-1.564905,0.421136,-0.112399,-0.041538,0.025656
2025-12-31T16:12:27.544148,9.944570,-1.536192,0.483350,-0.107512,-0.042760,0.030543
2025-12-31T16:12:27.554148,9.877571,-1.655833,0.349352,-0.098960,-0.032986,0.035430
2025-12-31T16:12:27.563148,9.906285,-1.660618,0.382851,-0.073303,-0.026878,0.037873
2025-12-31T16:12:27.573148,9.872786,-1.627119,0.406779,-0.051312,-0.024434,0.036651
2025-12-31T16:12:27.583148,9.887142,-1.598405,0.382851,-0.031764,-0.029321,0.032986
2025-12-31T16:12:27.592148,9.858429,-1.574477,0.397208,-0.009773,-0.032986,0.028099
2025-12-31T16:12:27.602148,9.858429,-1.512263,0.397208,0.001221,-0.024434,0.028099
2025-12-31T16:12:27.612148,9.829715,-1.512263,0.392422,0.007330,-0.010995,0.028099
2025-12-31T16:12:27.621148,9.667003,-1.512263,0.306281,0.018325,-0.003665,0.028099
2025-12-31T16:12:27.631148,9.633503,-1.450050,0.277567,0.035430,-0.008552,0.026878
2025-12-31T16:12:27.640148,9.676574,-1.344766,0.330209,0.034208,-0.030543,0.019547
2025-12-31T16:12:27.650148,9.805787,-1.292124,0.349352,0.007330,-0.051312,0.020769
2025-12-31T16:12:27.660148,10.035497,-1.378265,0.435493,-0.021991,-0.061086,0.023212
2025-12-31T16:12:27.669148,9.978070,-1.478764,0.382851,-0.020769,-0.036651,0.024434
2025-12-31T16:12:27.679148,9.882357,-1.349551,0.368494,-0.014660,0.003665,0.029321
2025-12-31T16:12:27.688148,9.638289,-1.335195,0.325423,-0.032986,0.015882,0.032986
2025-12-31T16:12:27.698148,9.547362,-1.421336,0.296710,-0.048869,-0.010995,0.029321
2025-12-31T16:12:27.708148,9.614361,-1.521835,0.258424,-0.047647,-0.053756,0.020769
2025-12-31T16:12:27.717148,9.853643,-1.674975,0.373280,-0.031764,-0.075747,0.013439
2025-12-31T16:12:27.727148,9.978070,-1.684547,0.378065,-0.014660,-0.067195,0.018325
2025-12-31T16:12:27.737148,10.025926,-1.555334,0.411565,0.017104,-0.029321,0.017104
2025-12-31T16:12:27.746148,9.844072,-1.397408,0.339780,0.031764,0.001221,0.017104
2025-12-31T16:12:27.756148,9.609575,-1.311266,0.306281,0.004886,0.003665,0.023212
2025-12-31T16:12:27.765148,9.552147,-1.387837,0.325423,-0.031764,-0.024434,0.023212
2025-12-31T16:12:27.775148,9.638289,-1.540977,0.311066,-0.037873,-0.054977,0.020769
2025-12-31T16:12:27.785148,9.815358,-1.545763,0.349352,-0.017104,-0.067195,0.015882
2025-12-31T16:12:27.794148,9.930213,-1.545763,0.459421,-0.009773,-0.061086,0.014660
2025-12-31T16:12:27.804148,9.934999,-1.517049,0.392422,-0.017104,-0.036651,0.018325
2025-12-31T16:12:27.813148,9.920642,-1.502692,0.368494,-0.015882,-0.015882,0.021991
2025-12-31T16:12:27.823148,9.734002,-1.607976,0.339780,-0.007330,-0.012217,0.024434
2025-12-31T16:12:27.833148,9.700502,-1.584048,0.320638,-0.003665,-0.028099,0.020769
2025-12-31T16:12:27.842148,9.801001,-1.636690,0.358923,0.007330,-0.046425,0.018325
2025-12-31T16:12:27.852148,9.887142,-1.646261,0.382851,0.025656,-0.048869,0.021991
2025-12-31T16:12:27.862148,9.939785,-1.545763,0.301495,0.045204,-0.036651,0.025656
2025-12-31T16:12:27.871148,9.858429,-1.406979,0.325423,0.046425,-0.018325,0.028099
2025-12-31T16:12:27.881148,9.829715,-1.459621,0.330209,0.036651,-0.012217,0.032986
2025-12-31T16:12:27.890148,9.710074,-1.469193,0.306281,0.029321,-0.017104,0.034208
2025-12-31T16:12:27.900148,9.738787,-1.488335,0.363709,0.037873,-0.030543,0.031764
2025-12-31T16:12:27.910148,9.791430,-1.450050,0.392422,0.043982,-0.036651,0.026878
2025-12-31T16:12:27.919148,9.815358,-1.335195,0.378065,0.037873,-0.041538,0.025656
2025-12-31T16:12:27.929148,9.872786,-1.325623,0.287138,0.026878,-0.036651,0.028099
2025-12-31T16:12:27.938148,9.781858,-1.373480,0.411565,0.009773,-0.028099,0.032986
2025-12-31T16:12:27.948148,9.724431,-1.450050,0.330209,0.000000,-0.025656,0.031764
2025-12-31T16:12:27.958148,9.729216,-1.473978,0.239282,0.001221,-0.028099,0.030543
2025-12-31T16:12:27.967148,9.757930,-1.440479,0.301495,0.003665,-0.034208,0.029321
2025-12-31T16:12:27.977148,9.824929,-1.464407,0.320638,0.003665,-0.042760,0.028099
2025-12-31T16:12:27.987148,9.930213,-1.507478,0.263210,0.009773,-0.043982,0.023212
2025-12-31T16:12:27.996148,9.954142,-1.502692,0.334995,0.023212,-0.037873,0.020769
2025-12-31T16:12:28.006148,9.868000,-1.445264,0.277567,0.031764,-0.028099,0.019547
2025-12-31T16:12:28.015148,9.844072,-1.440479,0.263210,0.029321,-0.028099,0.013439
2025-12-31T16:12:28.025148,9.834500,-1.459621,0.358923,0.028099,-0.032986,0.008552
2025-12-31T16:12:28.035148,9.853643,-1.488335,0.344566,0.035430,-0.032986,0.003665
2025-12-31T16:12:28.044148,9.791430,-1.426122,0.325423,0.048869,-0.031764,0.003665
2025-12-31T16:12:28.054148,9.786644,-1.402194,0.325423,0.051312,-0.035430,0.002443
2025-12-31T16:12:28.063148,9.824929,-1.445264,0.354137,0.046425,-0.042760,0.000000
2025-12-31T16:12:28.073148,9.844072,-1.493121,0.411565,0.043982,-0.045204,0.000000
2025-12-31T16:12:28.083148,9.863214,-1.512263,0.459421,0.053756,-0.035430,0.000000
2025-12-31T16:12:28.092148,9.805787,-1.440479,0.430708,0.063529,-0.023212,0.003665
2025-12-31T16:12:28.102148,9.772287,-1.359123,0.311066,0.063529,-0.018325,0.008552
2025-12-31T16:12:28.112148,9.791430,-1.287338,0.315852,0.045204,-0.028099,0.008552
2025-12-31T16:12:28.121148,9.844072,-1.402194,0.272781,0.025656,-0.042760,0.010995
2025-12-31T16:12:28.131148,10.021141,-1.464407,0.373280,0.029321,-0.041538,0.010995
2025-12-31T16:12:28.140148,9.963713,-1.440479,0.401994,0.042760,-0.026878,0.010995
2025-12-31T16:12:28.150148,9.968498,-1.387837,0.373280,0.047647,-0.010995,0.010995
2025-12-31T16:12:28.160148,9.772287,-1.363908,0.320638,0.036651,0.000000,0.012217
2025-12-31T16:12:28.169148,9.686145,-1.416550,0.244067,0.029321,-0.006108,0.014660
2025-12-31T16:12:28.179148,9.753144,-1.493121,0.344566,0.032986,-0.024434,0.009773
2025-12-31T16:12:28.188148,9.805787,-1.483550,0.291924,0.048869,-0.031764,0.003665
2025-12-31T16:12:28.198148,9.815358,-1.339980,0.296710,0.064751,-0.034208,0.000000
2025-12-31T16:12:28.208148,9.839286,-1.287338,0.311066,0.062308,-0.025656,-0.001221
2025-12-31T16:12:28.217148,9.748359,-1.234696,0.339780,0.041538,-0.017104,0.002443
2025-12-31T16:12:28.227148,9.777073,-1.292124,0.344566,0.024434,-0.012217,0.004886
2025-12-31T16:12:28.237148,9.652646,-1.330409,0.311066,0.019547,-0.018325,0.006108
2025-12-31T16:12:28.246148,9.714859,-1.335195,0.325423,0.018325,-0.030543,0.006108
2025-12-31T16:12:28.256148,9.767501,-1.349551,0.315852,0.008552,-0.042760,0.004886
2025-12-31T16:12:28.265148,9.868000,-1.349551,0.339780,-0.001221,-0.042760,0.003665
2025-12-31T16:12:28.275148,9.915856,-1.397408,0.358923,-0.010995,-0.031764,0.006108
2025-12-31T16:12:28.285148,9.877571,-1.459621,0.315852,-0.009773,-0.021991,0.008552
2025-12-31T16:12:28.294148,9.772287,-1.454836,0.320638,-0.001221,-0.023212,0.008552
2025-12-31T16:12:28.304148,9.810572,-1.445264,0.320638,0.006108,-0.036651,0.003665
2025-12-31T16:12:28.313148,9.829715,-1.512263,0.229710,0.015882,-0.046425,-0.001221
2025-12-31T16:12:28.323148,9.920642,-1.483550,0.339780,0.034208,-0.048869,-0.003665
2025-12-31T16:12:28.333148,9.901499,-1.459621,0.306281,0.045204,-0.045204,-0.004886
2025-12-31T16:12:28.342148,9.887142,-1.363908,0.277567,0.041538,-0.040317,-0.004886
2025-12-31T16:12:28.352148,9.934999,-1.392622,0.291924,0.036651,-0.040317,-0.007330
2025-12-31T16:12:28.362148,9.863214,-1.426122,0.267996,0.043982,-0.042760,-0.007330
2025-12-31T16:12:28.371148,9.906285,-1.402194,0.220139,0.050090,-0.042760,-0.007330
2025-12-31T16:12:28.381148,9.868000,-1.359123,0.191425,0.045204,-0.039095,-0.006108
2025-12-31T16:12:28.390148,9.834500,-1.354337,0.306281,0.035430,-0.031764,-0.007330
2025-12-31T16:12:28.400148,9.738787,-1.363908,0.315852,0.035430,-0.028099,-0.003665
2025-12-31T16:12:28.410148,9.580861,-1.287338,0.200997,0.029321,-0.029321,-0.002443
2025-12-31T16:12:28.419148,9.633503,-1.397408,0.311066,0.026878,-0.045204,-0.007330
2025-12-31T16:12:28.429148,9.647860,-1.320838,0.287138,0.032986,-0.068416,-0.010995
2025-12-31T16:12:28.438148,9.729216,-1.268195,0.258424,0.032986,-0.081855,-0.017104
2025-12-31T16:12:28.448148,9.805787,-1.263410,0.334995,0.014660,-0.089186,-0.020769
2025-12-31T16:12:28.458148,9.939785,-1.311266,0.296710,-0.001221,-0.085521,-0.026878
2025-12-31T16:12:28.467148,9.915856,-1.339980,0.258424,-0.008552,-0.070860,-0.024434
2025-12-31T16:12:28.477148,9.848857,-1.430907,0.277567,-0.007330,-0.059864,-0.023212
2025-12-31T16:12:28.487148,9.877571,-1.397408,0.282353,-0.007330,-0.059864,-0.028099
2025-12-31T16:12:28.496148,9.877571,-1.445264,0.248853,-0.004886,-0.065973,-0.028099
2025-12-31T16:12:28.506148,9.896714,-1.483550,0.277567,0.002443,-0.065973,-0.025656
2025-12-31T16:12:28.515148,9.887142,-1.426122,0.334995,0.013439,-0.064751,-0.025656
2025-12-31T16:12:28.525148,9.829715,-1.368694,0.267996,0.021991,-0.048869,-0.015882
2025-12-31T16:12:28.535148,9.714859,-1.392622,0.258424,0.025656,-0.043982,-0.008552
2025-12-31T16:12:28.544148,9.652646,-1.316052,0.196211,0.021991,-0.054977,-0.003665
2025-12-31T16:12:28.554148,9.686145,-1.421336,0.229710,0.017104,-0.078190,-0.003665
2025-12-31T16:12:28.563148,9.801001,-1.450050,0.244067,0.028099,-0.090408,-0.012217
2025-12-31T16:12:28.573148,9.829715,-1.402194,0.224925,0.054977,-0.086742,-0.019547
2025-12-31T16:12:28.583148,9.891928,-1.363908,0.229710,0.076969,-0.078190,-0.023212
2025-12-31T16:12:28.592148,9.877571,-1.258624,0.234496,0.081855,-0.079412,-0.029321
2025-12-31T16:12:28.602148,9.868000,-1.301695,0.167497,0.074525,-0.083077,-0.036651
2025-12-31T16:12:28.612148,9.911071,-1.287338,0.148355,0.070860,-0.089186,-0.036651
2025-12-31T16:12:28.621148,9.891928,-1.282552,0.114855,0.068416,-0.089186,-0.039095
2025-12-31T16:12:28.631148,9.868000,-1.253839,0.119641,0.067195,-0.090408,-0.039095
2025-12-31T16:12:28.640148,9.853643,-1.249053,0.196211,0.063529,-0.090408,-0.036651
2025-12-31T16:12:28.650148,9.791430,-1.239482,0.177068,0.061086,-0.098960,-0.041538
2025-12-31T16:12:28.660148,9.791430,-1.229910,0.047856,0.059864,-0.106290,-0.045204
2025-12-31T16:12:28.669148,9.815358,-1.282552,0.172283,0.058643,-0.116064,-0.047647
2025-12-31T16:12:28.679148,9.734002,-1.296909,0.172283,0.056199,-0.123394,-0.052534
2025-12-31T16:12:28.688148,9.762716,-1.253839,0.196211,0.067195,-0.128281,-0.059864
2025-12-31T16:12:28.698148,9.791430,-1.277767,0.234496,0.073303,-0.131946,-0.063529
2025-12-31T16:12:28.708148,9.824929,-1.215553,0.181854,0.076969,-0.129503,-0.068416
2025-12-31T16:12:28.717148,9.753144,-1.253839,0.210568,0.084299,-0.122173,-0.068416
2025-12-31T16:12:28.727148,9.719645,-1.167697,0.095712,0.092851,-0.124616,-0.067195
2025-12-31T16:12:28.737148,9.686145,-1.196411,0.057427,0.087964,-0.133168,-0.067195
2025-12-31T16:12:28.746148,9.729216,-1.129412,0.071784,0.083077,-0.144164,-0.067195
2025-12-31T16:12:28.756148,9.748359,-1.186840,0.028713,0.074525,-0.150272,-0.063529
2025-12-31T16:12:28.765148,9.791430,-1.201196,0.009571,0.072082,-0.151494,-0.064751
2025-12-31T16:12:28.775148,9.796215,-1.129412,0.043070,0.069638,-0.147829,-0.062308
2025-12-31T16:12:28.785148,9.791430,-1.129412,0.014356,0.068416,-0.152716,-0.065973
2025-12-31T16:12:28.794148,9.757930,-1.124626,-0.004785,0.059864,-0.157603,-0.072082
2025-12-31T16:12:28.804148,9.824929,-1.182054,0.052642,0.056199,-0.173485,-0.080634
2025-12-31T16:12:28.813148,9.925428,-1.215553,0.004785,0.054977,-0.183259,-0.089186
2025-12-31T16:12:28.823148,9.925428,-1.215553,-0.023928,0.067195,-0.188146,-0.098960
2025-12-31T16:12:28.833148,9.973284,-1.210768,0.004785,0.078190,-0.180816,-0.105068
2025-12-31T16:12:28.842148,9.911071,-1.263410,-0.071784,0.090408,-0.169820,-0.107512
2025-12-31T16:12:28.852148,9.920642,-1.220339,-0.081355,0.112399,-0.157603,-0.109955
2025-12-31T16:12:28.862148,9.762716,-1.148554,-0.114855,0.131946,-0.151494,-0.106290
2025-12-31T16:12:28.871148,9.667003,-1.201196,-0.124426,0.145385,-0.160046,-0.109955
2025-12-31T16:12:28.881148,9.671788,-1.038485,-0.057427,0.156381,-0.174707,-0.109955
2025-12-31T16:12:28.890148,9.676574,-0.961914,-0.129212,0.151494,-0.185702,-0.103847
2025-12-31T16:12:28.900148,9.690931,-1.000199,-0.114855,0.146607,-0.191811,-0.101403
2025-12-31T16:12:28.910148,9.719645,-1.024128,-0.119641,0.140498,-0.194255,-0.101403
2025-12-31T16:12:28.919148,9.690931,-1.024128,-0.172283,0.139277,-0.201585,-0.100181
2025-12-31T16:12:28.929148,9.695717,-0.957129,-0.267996,0.135612,-0.204028,-0.103847
2025-12-31T16:12:28.938148,9.772287,-1.009771,-0.186640,0.133168,-0.201585,-0.114842
2025-12-31T16:12:28.948148,9.681360,-1.024128,-0.143569,0.133168,-0.206472,-0.120951
2025-12-31T16:12:28.958148,9.791430,-1.071984,-0.224925,0.140498,-0.217467,-0.134390
2025-12-31T16:12:28.967148,9.738787,-1.038485,-0.287138,0.157603,-0.218689,-0.147829
2025-12-31T16:12:28.977148,9.729216,-1.081555,-0.253639,0.174707,-0.219911,-0.155159
2025-12-31T16:12:28.987148,9.719645,-1.076770,-0.267996,0.190589,-0.228463,-0.160046
2025-12-31T16:12:28.996148,9.695717,-1.048056,-0.263210,0.219911,-0.232128,-0.169820
2025-12-31T16:12:29.006148,9.676574,-1.043270,-0.334995,0.229685,-0.238237,-0.171042
2025-12-31T16:12:29.015148,9.614361,-1.071984,-0.296710,0.244346,-0.251676,-0.177150
2025-12-31T16:12:29.025148,9.690931,-0.904486,-0.019142,0.288328,-0.272445,-0.196698
2025-12-31T16:12:29.035148,9.911071,-0.679561,0.473778,0.317649,-0.274889,-0.215024
2025-12-31T16:12:29.044148,10.054640,-0.545563,0.425922,0.302989,-0.232128,-0.217467
2025-12-31T16:12:29.054148,10.011569,-0.363709,0.186640,0.259006,-0.153938,-0.204028
2025-12-31T16:12:29.063148,9.810572,-0.124426,-0.081355,0.163711,-0.074525,-0.177150
2025-12-31T16:12:29.073148,9.499505,-0.191425,-0.239282,0.000000,-0.025656,-0.145385
2025-12-31T16:12:29.083148,9.121439,-0.397208,-0.277567,-0.145385,-0.035430,-0.122173
2025-12-31T16:12:29.092148,9.116654,-0.794417,-0.430708,-0.255341,-0.080634,-0.102625
2025-12-31T16:12:29.102148,9.221938,-1.100698,-0.421136,-0.280997,-0.129503,-0.081855
2025-12-31T16:12:29.112148,9.198010,-1.316052,-0.267996,-0.241902,-0.145385,-0.073303
2025-12-31T16:12:29.121148,9.183653,-1.301695,-0.401994,-0.194255,-0.145385,-0.064751
2025-12-31T16:12:29.131148,9.121439,-1.320838,-0.191425,-0.135612,-0.145385,-0.045204
2025-12-31T16:12:29.140148,8.982656,-1.430907,-0.066999,-0.078190,-0.142942,-0.041538
2025-12-31T16:12:29.150148,8.791230,-1.564905,0.057427,0.001221,-0.131946,-0.043982
2025-12-31T16:12:29.160148,8.575876,-1.560120,0.047856,0.109955,-0.123394,-0.047647
2025-12-31T16:12:29.169148,8.451449,-1.507478,0.334995,0.221133,-0.135612,-0.057421
2025-12-31T16:12:29.179148,8.403592,-1.416550,0.880558,0.349414,-0.150272,-0.075747
2025-12-31T16:12:29.188148,8.365307,-1.115055,1.028913,0.452040,-0.140498,-0.087964
2025-12-31T16:12:29.198148,8.173882,-0.722632,0.760917,0.464257,-0.094073,-0.069638
2025-12-31T16:12:29.208148,7.810172,-0.378065,0.689132,0.421496,-0.037873,-0.047647
2025-12-31T16:12:29.217148,7.293323,-0.172283,0.679561,0.317649,-0.003665,-0.040317
2025-12-31T16:12:29.227148,7.063612,-0.440279,0.291924,0.175929,-0.004886,-0.048869
2025-12-31T16:12:29.237148,6.872186,-1.014556,0.502492,0.127059,-0.010995,-0.076969
2025-12-31T16:12:29.246148,6.967899,-1.579262,1.306481,0.186924,-0.008552,-0.107512
2025-12-31T16:12:29.256148,7.058826,-1.933400,1.904686,0.329867,0.059864,-0.105068
2025-12-31T16:12:29.265148,6.675975,-1.540977,1.808973,0.504574,0.211359,-0.080634
2025-12-31T16:12:29.275148,6.159125,-0.842273,1.713260,0.547335,0.392175,-0.028099
2025-12-31T16:12:29.285148,5.623133,-0.569491,1.574477,0.370184,0.535117,0.097738
2025-12-31T16:12:29.294148,5.125426,-0.751346,1.545763,0.146607,0.647517,0.267558
2025-12-31T16:12:29.304148,4.594219,-0.751346,1.713260,0.003665,0.789237,0.425162
2025-12-31T16:12:29.313148,4.091726,-0.741775,1.875972,-0.140498,0.954171,0.601091
2025-12-31T16:12:29.323148,3.847658,-0.899701,2.263610,-0.223576,1.097113,0.778242
2025-12-31T16:12:29.333148,3.818944,-1.067198,2.833101,-0.262671,1.241277,0.960279
2025-12-31T16:12:29.342148,3.833301,-1.349551,3.091526,-0.313984,1.396437,1.167974
2025-12-31T16:12:29.352148,3.938585,-1.847259,2.646461,-0.387288,1.532049,1.419650
2025-12-31T16:12:29.362148,3.933800,-2.411965,1.986042,-0.364075,1.622457,1.699426
2025-12-31T16:12:29.371148,3.881158,-2.804388,1.684547,-0.283441,1.584584,1.907120
2025-12-31T16:12:29.381148,3.952942,-3.369094,1.627119,-0.254119,1.429424,2.021963
2025-12-31T16:12:29.390148,4.522434,-4.015156,1.832902,-0.179594,1.216843,2.114815
2025-12-31T16:12:29.400148,5.235495,-4.134797,1.995614,-0.018325,1.021366,2.199114
2025-12-31T16:12:29.410148,6.537191,-4.053441,2.297109,0.147829,0.880867,2.228435
2025-12-31T16:12:29.419148,7.747959,-4.034298,2.416750,0.284663,0.855211,2.257757
2025-12-31T16:12:29.429148,8.738588,-3.747160,2.775674,0.488692,0.971275,2.289522
2025-12-31T16:12:29.438148,9.509077,-3.292523,2.967100,0.627969,1.205847,2.351830
2025-12-31T16:12:29.448148,9.729216,-3.311666,2.689532,0.635299,1.505171,2.452012
2025-12-31T16:12:29.458148,9.738787,-3.330809,2.426322,0.607199,1.804495,2.541198
2025-12-31T16:12:29.467148,9.772287,-3.842873,2.541177,0.458148,2.045176,2.654819
2025-12-31T16:12:29.477148,9.643075,-4.637290,2.498106,0.301767,2.222327,2.772105
2025-12-31T16:12:29.487148,9.169296,-4.560719,2.196611,0.399505,2.360382,2.796540
2025-12-31T16:12:29.496148,8.532805,-3.689732,2.273181,0.475253,2.422691,2.827083
2025-12-31T16:12:29.506148,8.355736,-3.311666,2.924029,0.273667,2.401921,2.875952
2025-12-31T16:12:29.515148,8.537591,-3.718446,3.402593,0.004886,2.395812,2.860070
2025-12-31T16:12:29.525148,8.724231,-4.206582,3.503092,-0.175929,2.436130,2.831970
2025-12-31T16:12:29.535148,8.638089,-4.594219,3.527020,-0.202807,2.505768,2.764775
2025-12-31T16:12:29.544148,8.499305,-4.517649,3.335594,-0.141720,2.568076,2.698802
2025-12-31T16:12:29.554148,8.360522,-4.354937,3.239881,-0.140498,2.585181,2.670702
2025-12-31T16:12:29.563148,8.652446,-4.541577,3.445664,-0.349414,2.499660,2.729345
2025-12-31T16:12:29.573148,9.327222,-5.245067,3.943371,-0.651182,2.370156,2.866179
2025-12-31T16:12:29.583148,10.222138,-6.230910,4.417150,-1.001818,2.276083,3.075094
2025-12-31T16:12:29.592148,11.016555,-7.508677,4.536791,-1.367116,2.269974,3.320662
2025-12-31T16:12:29.602148,11.088339,-8.523234,4.000799,-1.469741,2.453234,3.486818
2025-12-31T16:12:29.612148,10.169496,-8.997012,3.292523,-1.291368,2.753779,3.589443
2025-12-31T16:12:29.621148,9.198010,-9.906285,3.895515,-1.287703,2.917491,3.714059
2025-12-31T16:12:29.631148,9.083154,-11.911470,5.536991,-1.518610,2.850296,3.791028
2025-12-31T16:12:29.640148,9.269794,-13.950155,6.742974,-1.485623,2.695136,3.808133
2025-12-31T16:12:29.650148,9.260223,-14.519647,7.015755,-0.956614,2.558303,3.861889
2025-12-31T16:12:29.660148,8.657232,-12.997812,5.785845,-0.107512,2.530203,3.902206
2025-12-31T16:12:29.669148,7.322037,-9.939785,3.555734,0.687834,2.564411,3.897319
2025-12-31T16:12:29.679148,5.876772,-7.283751,1.995614,0.995710,2.574185,3.872884
2025-12-31T16:12:29.688148,4.354937,-6.125625,1.560120,0.851545,2.497216,3.842341
2025-12-31T16:12:29.698148,3.440878,-6.293123,2.809173,0.443488,2.321287,3.803246
2025-12-31T16:12:29.708148,2.880958,-6.967899,4.354937,0.062308,2.139249,3.692068
2025-12-31T16:12:29.717148,2.201396,-7.441678,4.699503,-0.151494,1.964542,3.584556
2025-12-31T16:12:29.727148,1.540977,-7.322037,4.622933,-0.265115,1.781282,3.518583
2025-12-31T16:12:29.737148,0.995414,-7.369893,4.512863,-0.537561,1.574810,3.464826
2025-12-31T16:12:29.746148,0.574277,-7.992027,4.756931,-0.869871,1.367116,3.356092
2025-12-31T16:12:29.756148,0.258424,-8.973084,5.206781,-1.072679,1.170417,3.214372
2025-12-31T16:12:29.765148,0.301495,-9.992427,5.723631,-1.078787,0.981049,3.025004
2025-12-31T16:12:29.775148,0.440279,-10.791629,6.379265,-0.758694,0.825889,2.814866
2025-12-31T16:12:29.785148,0.646062,-11.150553,7.255038,-0.318871,0.712268,2.660928
2025-12-31T16:12:29.794148,1.052841,-11.657831,8.484948,-0.150272,0.648738,2.548529
2025-12-31T16:12:29.804148,1.258624,-12.390035,9.231509,-0.145385,0.707381,2.432464
2025-12-31T16:12:29.813148,1.081555,-12.902099,9.595218,-0.291993,0.835663,2.329839
2025-12-31T16:12:29.823148,0.507278,-13.399806,9.322436,-0.646295,0.979827,2.216218
2025-12-31T16:12:29.833148,-0.373280,-14.222937,8.513662,-1.000597,1.126435,2.042732
2025-12-31T16:12:29.842148,-1.469193,-15.199209,7.556533,-1.330464,1.227838,1.827708
2025-12-31T16:12:29.852148,-2.813959,-16.491333,6.752545,-1.510058,1.243721,1.522275
2025-12-31T16:12:29.862148,-4.048655,-17.893526,6.393621,-1.470963,1.169195,1.073900
2025-12-31T16:12:29.871148,-4.972285,-19.539789,6.867400,-1.358564,1.055574,0.513126
2025-12-31T16:12:29.881148,-5.675775,-21.492332,7.259823,-1.163087,0.842993,-0.127059
2025-12-31T16:12:29.890148,-5.752345,-23.200808,7.121040,-0.576656,0.488692,-0.812450
2025-12-31T16:12:29.900148,-5.302494,-23.219950,7.063612,0.388510,0.041538,-1.468519
2025-12-31T16:12:29.910148,-4.043870,-21.267406,7.508677,1.268155,-0.414166,-2.046398
2025-12-31T16:12:29.919148,-2.210968,-18.798014,8.049455,1.638340,-0.875980,-2.453234
2025-12-31T16:12:29.929148,-0.081355,-17.084753,8.709874,1.516167,-1.269377,-2.662150
2025-12-31T16:12:29.938148,1.631905,-15.433705,8.676374,1.336572,-1.420872,-2.764775
2025-12-31T16:12:29.948148,2.311466,-13.275379,7.719245,1.262047,-1.364672,-2.756223
2025-12-31T16:12:29.958148,2.014756,-11.188838,6.680760,1.053131,-1.227838,-2.667037
2025-12-31T16:12:29.967148,1.244267,-10.001998,5.977270,0.761137,-1.119104,-2.648711
2025-12-31T16:12:29.977148,0.162711,-9.513862,5.757131,0.612086,-1.106887,-2.726901
2025-12-31T16:12:29.987148,-0.626919,-9.614361,5.685346,0.618195,-1.221730,-2.853961
2025-12-31T16:12:29.996148,-0.957129,-10.121639,5.804987,0.417831,-1.512502,-2.951700
2025-12-31T16:12:30.006148,-0.157926,-11.696116,5.953342,0.102625,-1.916894,-3.072651
2025-12-31T16:12:30.015148,1.220339,-11.734402,5.900700,0.345749,-2.223549,-3.281567
2025-12-31T16:12:30.025148,2.201396,-9.355936,5.393422,0.742811,-2.322509,-3.442835
2025-12-31T16:12:30.035148,2.478964,-6.675975,4.182653,0.886976,-2.307848,-3.561343
2025-12-31T16:12:30.044148,2.565105,-4.230510,3.321237,0.838106,-2.364047,-3.622430
2025-12-31T16:12:30.054148,2.756531,-2.335394,2.837887,0.574213,-2.503325,-3.670077
2025-12-31T16:12:30.063148,3.522234,-1.823330,2.502892,0.144164,-2.647489,-3.762929
2025-12-31T16:12:30.073148,4.785645,-2.416750,2.498106,-0.304210,-2.720793,-3.936414
2025-12-31T16:12:30.083148,6.058626,-3.818944,2.627319,-0.588873,-2.662150,-4.155104
2025-12-31T16:12:30.092148,7.154539,-5.364708,2.818745,-0.702494,-2.495994,-4.332255
2025-12-31T16:12:30.102148,8.106882,-7.092326,2.895315,-0.828333,-2.296852,-4.356689
2025-12-31T16:12:30.112148,9.145367,-9.025726,3.517449,-1.120326,-2.193005,-4.268725
2025-12-31T16:12:30.121148,9.829715,-9.552147,3.766302,-1.058018,-2.053728,-4.289494
2025-12-31T16:12:30.131148,9.245866,-7.111468,2.713460,-0.577878,-1.803273,-4.360355
2025-12-31T16:12:30.140148,7.791030,-3.493520,1.316052,-0.323758,-1.605353,-4.338364
2025-12-31T16:12:30.150148,6.302694,-0.574277,-0.818345,-0.558330,-1.682322,-4.222299
2025-12-31T16:12:30.160148,5.881557,0.244067,-0.602991,-1.265712,-2.020741,-4.090352
2025-12-31T16:12:30.169148,7.073183,-0.899701,0.808774,-2.017076,-2.472781,-4.241847
2025-12-31T16:12:30.179148,9.643075,-3.125026,1.837687,-2.480112,-2.795318,-4.472754
2025-12-31T16:12:30.188148,12.045468,-5.967699,1.962114,-2.594954,-2.895500,-4.582710
2025-12-31T16:12:30.198148,14.653645,-9.513862,2.100898,-2.696358,-3.004234,-4.542392
2025-12-31T16:12:30.208148,17.711672,-12.926027,3.172882,-2.408030,-2.985908,-4.643796
2025-12-31T16:12:30.217148,19.094725,-13.864014,1.861615,-1.141096,-2.648711,-4.963889
2025-12-31T16:12:30.227148,19.022940,-11.653046,-0.746560,0.542448,-2.021963,-5.057963
2025-12-31T16:12:30.237148,17.831314,-8.432306,-1.550549,1.826486,-1.176526,-4.818503
2025-12-31T16:12:30.246148,15.783057,-5.388636,-0.191425,2.371378,-0.289550,-4.393341
2025-12-31T16:12:30.256148,12.811172,-3.168097,0.564706,2.172236,0.175929,-3.924197
2025-12-31T16:12:30.265148,9.887142,-1.679761,-0.009571,1.711644,0.171042,-3.497813
2025-12-31T16:12:30.275148,7.575676,-0.325423,0.138783,1.181413,-0.189368,-3.121520
2025-12-31T16:12:30.285148,6.451049,0.354137,0.847059,0.405614,-0.718377,-2.830748
2025-12-31T16:12:30.294148,6.135197,0.215354,1.129412,-0.390953,-1.230282,-2.630385
2025-12-31T16:12:30.304148,6.570690,0.143569,1.091127,-0.989601,-1.589471,-2.465451
2025-12-31T16:12:30.313148,7.154539,0.043070,1.282552,-1.464854,-1.721417,-2.311513
2025-12-31T16:12:30.323148,7.585247,-0.406779,1.689332,-1.808160,-1.653000,-2.174679
2025-12-31T16:12:30.333148,7.460820,-0.957129,2.081755,-1.992641,-1.447750,-2.035402
2025-12-31T16:12:30.342148,7.097111,-1.598405,2.239681,-2.094045,-1.214399,-1.893681
2025-12-31T16:12:30.352148,6.613761,-2.502892,2.364108,-2.164905,-1.031140,-1.750739
2025-12-31T16:12:30.362148,6.202196,-3.340380,2.359323,-2.118480,-0.880867,-1.635896
2025-12-31T16:12:30.371148,5.704489,-3.862015,2.096112,-1.957211,-0.728151,-1.534493
2025-12-31T16:12:30.381148,5.168496,-3.905086,1.584048,-1.737300,-0.604756,-1.419650
2025-12-31T16:12:30.390148,4.704289,-3.378665,1.320838,-1.479515,-0.544891,-1.299920
2025-12-31T16:12:30.400148,4.335794,-2.258824,1.052841,-1.290147,-0.515570,-1.203404
2025-12-31T16:12:30.410148,3.924229,-1.292124,0.579063,-1.281595,-0.498465,-1.109331
2025-12-31T16:12:30.419148,3.646661,-0.741775,0.224925,-1.372003,-0.508239,-1.020144
2025-12-31T16:12:30.429148,3.388236,-0.488135,0.100498,-1.461189,-0.532674,-0.973718
2025-12-31T16:12:30.438148,3.369094,-0.760917,0.224925,-1.556484,-0.597426,-0.941954
2025-12-31T16:12:30.448148,3.507877,-1.311266,1.225125,-1.507615,-0.620638,-0.894306
2025-12-31T16:12:30.458148,3.713660,-0.966700,2.440679,-1.367116,-0.557108,-0.839328
2025-12-31T16:12:30.467148,4.096512,-0.832702,2.249253,-1.435533,-0.476474,-0.777020
2025-12-31T16:12:30.477148,4.546362,-1.024128,1.679761,-1.543045,-0.368962,-0.701273
2025-12-31T16:12:30.487148,4.498506,-0.976271,1.416550,-1.565036,-0.173485,-0.629191
2025-12-31T16:12:30.496148,4.134797,-1.052841,1.038485,-1.623679,0.023212,-0.537561
2025-12-31T16:12:30.506148,3.598805,-1.115055,0.646062,-1.622457,0.157603,-0.476474
2025-12-31T16:12:30.515148,3.206382,-1.287338,0.660419,-1.573588,0.190589,-0.461814
2025-12-31T16:12:30.525148,3.220739,-1.689332,0.789631,-1.535714,0.090408,-0.492357
2025-12-31T16:12:30.535148,4.130011,-2.067398,0.751346,-1.444085,-0.127059,-0.549778
2025-12-31T16:12:30.544148,5.527420,-2.407179,0.870987,-1.279151,-0.360410,-0.590095
2025-12-31T16:12:30.554148,7.231109,-2.876172,0.957129,-1.086118,-0.529009,-0.643851
2025-12-31T16:12:30.563148,8.906085,-3.196810,0.985842,-0.802676,-0.597426,-0.691499
2025-12-31T16:12:30.573148,10.399207,-3.153740,0.698704,-0.450818,-0.557108,-0.718377
2025-12-31T16:12:30.583148,11.475977,-2.632104,0.248853,-0.138055,-0.419053,-0.700051
2025-12-31T16:12:30.592148,12.045468,-1.976471,-0.095712,0.108733,-0.200363,-0.657290
2025-12-31T16:12:30.602148,12.150753,-1.311266,-0.205782,0.197920,0.004886,-0.570548
2025-12-31T16:12:30.612148,12.026326,-0.923629,-0.224925,0.150272,0.144164,-0.455705
2025-12-31T16:12:30.621148,11.830114,-0.832702,-0.105284,0.026878,0.227241,-0.338419
2025-12-31T16:12:30.631148,11.624332,-1.095912,-0.019142,-0.103847,0.270002,-0.223576
2025-12-31T16:12:30.640148,11.380264,-1.526620,-0.215354,-0.157603,0.287106,-0.109955
2025-12-31T16:12:30.650148,10.983055,-1.866401,-0.263210,-0.097738,0.276111,-0.003665
2025-12-31T16:12:30.660148,10.686345,-2.014756,-0.186640,0.064751,0.259006,0.101403
2025-12-31T16:12:30.669148,10.255637,-1.804188,-0.033499,0.289550,0.254119,0.186924
2025-12-31T16:12:30.679148,9.700502,-1.521835,0.287138,0.474031,0.228463,0.273667
2025-12-31T16:12:30.688148,9.375078,-1.440479,0.440279,0.582765,0.175929,0.355523
2025-12-31T16:12:30.698148,9.111868,-1.473978,0.512064,0.638964,0.134390,0.420275
2025-12-31T16:12:30.708148,8.958727,-1.584048,0.311066,0.674395,0.119729,0.469144
2025-12-31T16:12:30.717148,8.858229,-1.775474,0.186640,0.725707,0.112399,0.509461
2025-12-31T16:12:30.727148,8.867800,-2.009970,0.086141,0.807563,0.086742,0.546113
2025-12-31T16:12:30.737148,9.087940,-2.043470,-0.220139,0.901636,0.047647,0.594982
2025-12-31T16:12:30.746148,9.418149,-2.167897,-0.239282,0.976162,0.003665,0.669508
2025-12-31T16:12:30.756148,9.786644,-2.057827,-0.387637,1.060461,-0.004886,0.761137
2025-12-31T16:12:30.765148,9.796215,-1.612762,-0.535992,1.160643,0.065973,0.849102
2025-12-31T16:12:30.775148,9.456434,-1.272981,-0.468993,1.185078,0.172263,0.935845
2025-12-31T16:12:30.785148,8.843872,-1.191625,-0.397208,1.145982,0.251676,1.039692
2025-12-31T16:12:30.794148,8.154739,-1.162911,-0.306281,1.106887,0.290771,1.134987
2025-12-31T16:12:30.804148,7.513462,-1.349551,-0.186640,1.082452,0.288328,1.214399
2025-12-31T16:12:30.813148,6.886543,-1.497906,-0.153140,1.076344,0.250454,1.284038
2025-12-31T16:12:30.823148,6.623332,-1.722832,0.004785,1.102000,0.185702,1.332907
2025-12-31T16:12:30.833148,6.403193,-1.866401,0.473778,1.170417,0.152716,1.389107
2025-12-31T16:12:30.842148,6.202196,-1.785045,0.732203,1.266934,0.186924,1.458745
2025-12-31T16:12:30.852148,5.781059,-1.536192,0.803988,1.347568,0.289550,1.546710
2025-12-31T16:12:30.862148,5.178068,-1.249053,0.732203,1.361007,0.436157,1.670105
2025-12-31T16:12:30.871148,4.374079,-1.320838,0.440279,1.312138,0.596204,1.822821
2025-12-31T16:12:30.881148,3.311666,-1.397408,0.253639,1.321912,0.734259,1.986533
2025-12-31T16:12:30.890148,2.407179,-1.268195,-0.033499,1.351233,0.790459,2.144136
2025-12-31T16:12:30.900148,1.545763,-1.344766,-0.153140,1.350011,0.750142,2.284635
2025-12-31T16:12:30.910148,1.134197,-1.387837,-0.157926,1.374446,0.642630,2.406808
2025-12-31T16:12:30.919148,1.062413,-1.244267,0.287138,1.447750,0.481361,2.525316
2025-12-31T16:12:30.929148,1.574477,-1.086341,0.918843,1.486845,0.302989,2.610837
2025-12-31T16:12:30.938148,2.411965,-1.052841,0.885344,1.455080,0.184481,2.667037
2025-12-31T16:12:30.948148,3.455235,-1.182054,0.559920,1.397659,0.166155,2.718349
2025-12-31T16:12:30.958148,4.144368,-1.406979,0.344566,1.319468,0.240680,2.755001
2025-12-31T16:12:30.967148,4.570291,-1.646261,0.143569,1.243721,0.353080,2.763553
2025-12-31T16:12:30.977148,4.670789,-1.909472,-0.153140,1.240056,0.475253,2.730567
2025-12-31T16:12:30.987148,4.613361,-2.038684,-0.167497,1.328020,0.585208,2.663371
2025-12-31T16:12:30.996148,4.666004,-2.019542,0.066999,1.431867,0.626747,2.576629
2025-12-31T16:12:31.006148,4.948357,-2.120040,0.526420,1.490510,0.597426,2.502103
2025-12-31T16:12:31.015148,5.580062,-2.455035,1.004985,1.514945,0.554665,2.450790
2025-12-31T16:12:31.025148,6.489334,-2.847458,1.363908,1.529606,0.511904,2.415360
2025-12-31T16:12:31.035148,7.599604,-3.239881,1.780260,1.479515,0.463035,2.399478
2025-12-31T16:12:31.044148,8.915657,-3.795016,1.828116,1.380555,0.447153,2.392147
2025-12-31T16:12:31.054148,10.207781,-4.398007,1.804188,1.281595,0.498465,2.408030
2025-12-31T16:12:31.063148,11.499905,-4.795216,2.024327,1.193630,0.629191,2.465451
2025-12-31T16:12:31.073148,12.409178,-5.235495,2.153540,1.102000,0.864984,2.587624
2025-12-31T16:12:31.083148,12.801600,-5.498706,1.856830,1.073900,1.170417,2.736675
2025-12-31T16:12:31.092148,12.787243,-5.407779,2.143969,1.141096,1.462411,2.883283
2025-12-31T16:12:31.102148,12.571889,-5.158925,2.440679,1.189965,1.722639,3.023782
2025-12-31T16:12:31.112148,11.968898,-4.981856,2.478964,1.208291,1.935220,3.171611
2025-12-31T16:12:31.121148,11.274980,-5.139782,2.703889,1.147204,2.057393,3.336545
2025-12-31T16:12:31.131148,10.691131,-5.795416,3.335594,0.977384,2.065945,3.486818
2025-12-31T16:12:31.140148,10.480562,-6.369693,3.570091,0.849102,2.010967,3.591886
2025-12-31T16:12:31.150148,10.485348,-6.250052,3.771088,0.784350,1.931555,3.673742
2025-12-31T16:12:31.160148,10.571490,-6.058626,3.952942,0.656069,1.880242,3.754376
2025-12-31T16:12:31.169148,10.715059,-6.106483,4.287938,0.449596,1.912007,3.825237
2025-12-31T16:12:31.179148,10.700702,-6.838686,4.498506,0.166155,1.992641,3.911980
2025-12-31T16:12:31.188148,10.504491,-7.996813,4.331008,-0.061086,2.059837,4.002388
2025-12-31T16:12:31.198148,10.480562,-9.820143,4.383651,-0.173485,2.076941,4.090352
2025-12-31T16:12:31.208148,10.734202,-11.801401,5.211567,-0.201585,2.108706,4.146552
2025-12-31T16:12:31.217148,10.581061,-13.127024,5.201996,-0.014660,2.224770,4.129448
2025-12-31T16:12:31.227148,9.714859,-13.500305,4.622933,0.390953,2.444682,4.114787
2025-12-31T16:12:31.237148,8.279166,-12.825529,4.364508,0.899193,2.592511,4.080578
2025-12-31T16:12:31.246148,6.819544,-12.055040,4.776073,1.174082,2.621833,3.997501
2025-12-31T16:12:31.256148,5.800201,-11.303693,4.957928,1.331685,2.495994,3.881436
2025-12-31T16:12:31.265148,5.048855,-10.150353,4.771288,1.492954,2.255313,3.772702
2025-12-31T16:12:31.275148,4.622933,-8.571090,3.909872,1.657887,2.037846,3.652973
2025-12-31T16:12:31.285148,4.177868,-7.030112,3.369094,1.662774,1.910786,3.546682
2025-12-31T16:12:31.294148,3.608376,-6.111268,3.397808,1.525941,1.868025,3.442835
2025-12-31T16:12:31.304148,2.880958,-5.824130,4.077369,1.290147,1.849699,3.327993
2025-12-31T16:12:31.313148,2.368894,-6.254838,5.268995,0.918741,1.842369,3.196046
2025-12-31T16:12:31.323148,1.689332,-7.034898,6.360122,0.518013,1.838703,3.033556
2025-12-31T16:12:31.333148,0.722632,-7.609175,7.255038,0.271224,1.815491,2.812422
2025-12-31T16:12:31.342148,-0.564706,-7.403393,7.834101,0.160046,1.762956,2.579072
2025-12-31T16:12:31.352148,-1.703689,-6.800401,7.944171,0.002443,1.640783,2.365269
2025-12-31T16:12:31.362148,-2.617747,-6.695117,7.901100,-0.348193,1.423315,2.178344
2025-12-31T16:12:31.371148,-2.976671,-7.298108,8.379664,-0.890641,1.111774,1.997528
2025-12-31T16:12:31.381148,-2.732603,-9.408578,8.752945,-1.540601,0.752585,1.816712
2025-12-31T16:12:31.390148,-2.033899,-12.150753,8.968299,-2.024406,0.507018,1.640783
2025-12-31T16:12:31.400148,-1.756331,-15.093924,8.886943,-2.174679,0.414166,1.442863
2025-12-31T16:12:31.410148,-2.244467,-17.778671,8.915657,-2.162462,0.549778,1.193630
2025-12-31T16:12:31.419148,-3.507877,-20.224136,9.006584,-1.876577,0.847880,0.789237
2025-12-31T16:12:31.429148,-5.484349,-21.315264,9.370293,-1.249830,1.036027,0.239459
2025-12-31T16:12:31.438148,-7.408178,-20.851055,9.178867,-0.711046,0.910189,-0.318871
2025-12-31T16:12:31.448148,-8.035098,-20.358133,8.647660,-0.613308,0.305432,-0.866206
2025-12-31T16:12:31.458148,-6.546762,-20.559132,8.580661,-0.802676,-0.645073,-1.439198
2025-12-31T16:12:31.467148,-3.043670,-21.095123,8.542376,-0.899193,-1.450193,-1.910786
2025-12-31T16:12:31.477148,0.535992,-21.415762,8.571090,-0.784350,-1.813047,-2.111149
2025-12-31T16:12:31.487148,3.278166,-21.377478,8.499305,-0.497244,-1.758069,-2.113593
2025-12-31T16:12:31.496148,4.594219,-20.372492,8.547162,0.061086,-1.477071,-2.068389
2025-12-31T16:12:31.506148,4.661218,-18.400805,8.417949,0.707381,-1.205847,-2.001194
2025-12-31T16:12:31.515148,3.579662,-16.319050,8.456235,1.191186,-1.061683,-1.949881
2025-12-31T16:12:31.525148,2.201396,-14.275579,8.437092,1.511280,-1.050687,-1.965763
2025-12-31T16:12:31.535148,0.928415,-12.830314,8.269594,1.425759,-1.203404,-1.941329
2025-12-31T16:12:31.544148,0.569491,-12.093325,8.623732,0.891863,-1.572366,-1.938885
2025-12-31T16:12:31.554148,1.368694,-11.667402,8.542376,0.444709,-1.999972,-2.034180
2025-12-31T16:12:31.563148,2.651247,-10.715059,8.307880,0.101403,-2.307848,-2.087936
2025-12-31T16:12:31.573148,3.522234,-9.408578,7.762316,-0.250454,-2.371378,-2.106262
2025-12-31T16:12:31.583148,3.747160,-7.838886,6.518048,-0.570548,-2.262644,-2.084271
2025-12-31T16:12:31.592148,3.460021,-6.096911,4.910071,-0.841772,-2.094045,-2.058615
2025-12-31T16:12:31.602148,2.938386,-4.546362,3.215953,-1.127656,-1.960877,-2.102597
2025-12-31T16:12:31.612148,2.646461,-4.034298,1.909472,-1.407433,-1.920559,-2.252870
2025-12-31T16:12:31.621148,2.885744,-4.651647,1.502692,-1.618792,-1.943772,-2.474003
2025-12-31T16:12:31.631148,3.469592,-6.058626,1.751546,-1.632231,-1.968207,-2.761110
2025-12-31T16:12:31.640148,4.192225,-7.427321,2.019542,-1.346346,-1.897347,-3.077538
2025-12-31T16:12:31.650148,4.575076,-8.011170,2.182254,-0.838106,-1.737300,-3.351205
2025-12-31T16:12:31.660148,4.761716,-7.633104,2.187039,-0.274889,-1.576031,-3.568673
2025-12-31T16:12:31.669148,4.551148,-6.202196,2.053041,0.191811,-1.497841,-3.805689
2025-12-31T16:12:31.679148,4.220939,-4.153940,1.866401,0.511904,-1.534493,-4.041483
2025-12-31T16:12:31.688148,4.039084,-2.081755,1.612762,0.569326,-1.679879,-4.180760
2025-12-31T16:12:31.698148,4.264009,-0.129212,0.851844,0.329867,-1.877799,-4.211304
2025-12-31T16:12:31.708148,4.823930,0.717846,1.143769,-0.218689,-2.090380,-4.206417
2025-12-31T16:12:31.717148,6.101697,0.234496,1.646261,-0.853989,-2.315178,-4.312707
2025-12-31T16:12:31.727148,7.901100,-1.129412,2.019542,-1.424537,-2.463008,-4.444654
2025-12-31T16:12:31.737148,9.824929,-2.775674,1.636690,-1.726304,-2.453234,-4.616918
2025-12-31T16:12:31.746148,11.179267,-3.871586,1.004985,-1.671326,-2.260200,-4.828277
2025-12-31T16:12:31.756148,11.992826,-4.187439,0.607776,-1.389107,-1.965763,-5.028641
2025-12-31T16:12:31.765148,12.203395,-4.125226,0.220139,-1.064127,-1.659109,-5.207014
2025-12-31T16:12:31.775148,12.040683,-3.689732,-0.133998,-0.775798,-1.451415,-5.398825
2025-12-31T16:12:31.785148,11.748758,-2.727817,-0.540777,-0.518013,-1.368337,-5.575976
2025-12-31T16:12:31.794148,11.605189,-1.540977,-0.579063,-0.448374,-1.445306,-5.643171
2025-12-31T16:12:31.804148,11.772687,-0.674775,-0.803988,-0.651182,-1.717752,-5.594302
2025-12-31T16:12:31.813148,12.533604,0.033499,-0.808774,-1.023809,-2.081828,-5.502672
2025-12-31T16:12:31.823148,13.567304,0.368494,-1.258624,-1.499062,-2.355495,-5.397604
2025-12-31T16:12:31.833148,14.577075,0.301495,-1.727617,-1.960877,-2.434908,-5.305974
2025-12-31T16:12:31.842148,15.357135,-0.057427,-1.593619,-2.284635,-2.356717,-5.213122
2025-12-31T16:12:31.852148,15.960126,-0.784845,-1.339980,-2.477668,-2.252870,-5.101945
2025-12-31T16:12:31.862148,16.577475,-1.684547,-1.134197,-2.543642,-2.164905,-4.993211
2025-12-31T16:12:31.871148,17.194822,-2.411965,-1.148554,-2.386039,-2.025628,-4.902803
2025-12-31T16:12:31.881148,17.362320,-2.804388,-0.957129,-2.043954,-1.723861,-4.729317
2025-12-31T16:12:31.890148,16.974684,-2.976671,-0.665204,-1.709200,-1.308473,-4.423885
2025-12-31T16:12:31.900148,15.979269,-3.259024,-0.483350,-1.503949,-0.861319,-4.062252
2025-12-31T16:12:31.910148,14.395220,-3.728017,-0.459421,-1.393994,-0.420275,-3.670077
2025-12-31T16:12:31.919148,12.351750,-4.168296,-0.478564,-1.269377,-0.012217,-3.269350
2025-12-31T16:12:31.929148,10.006784,-4.350151,-0.535992,-1.106887,0.307876,-2.855183
2025-12-31T16:12:31.938148,7.489534,-3.656232,-0.186640,-0.862541,0.515570,-2.464229
2025-12-31T16:12:31.948148,5.316851,-2.627319,-0.043070,-0.768468,0.532674,-2.114815
2025-12-31T16:12:31.958148,3.857230,-1.947757,0.043070,-0.861319,0.322536,-1.788613
2025-12-31T16:12:31.967148,2.986242,-1.512263,0.267996,-0.971275,0.074525,-1.455080
2025-12-31T16:12:31.977148,2.478964,-1.272981,0.583848,-1.100778,-0.101403,-1.196073
2025-12-31T16:12:31.987148,2.431107,-1.603191,0.717846,-1.274264,-0.261450,-0.971275
2025-12-31T16:12:31.996148,2.842673,-2.330609,0.693918,-1.348790,-0.375071,-0.757472
2025-12-31T16:12:32.006148,3.316452,-2.876172,0.531206,-1.279151,-0.388510,-0.559552
2025-12-31T16:12:32.015148,3.493520,-2.871387,0.689132,-1.137430,-0.298102,-0.412944
2025-12-31T16:12:32.025148,3.321237,-2.498106,0.899701,-1.040914,-0.179594,-0.291993
2025-12-31T16:12:32.035148,2.914457,-2.024327,0.890130,-0.982271,-0.107512,-0.182037
2025-12-31T16:12:32.044148,2.617747,-1.373480,0.698704,-1.017701,-0.133168,-0.098960
2025-12-31T16:12:32.054148,2.727817,-1.124626,0.660419,-1.156978,-0.202807,-0.043982
2025-12-31T16:12:32.063148,2.991028,-1.296909,0.823130,-1.285260,-0.265115,-0.014660
2025-12-31T16:12:32.073148,3.297309,-1.770688,0.995414,-1.361007,-0.307876,-0.006108
2025-12-31T16:12:32.083148,3.732803,-2.550748,1.038485,-1.340238,-0.318871,-0.017104
2025-12-31T16:12:32.092148,4.393222,-2.938386,1.052841,-1.158200,-0.320093,-0.019547
2025-12-31T16:12:32.102148,5.063212,-2.656033,1.019342,-0.895528,-0.300545,-0.030543
2025-12-31T16:12:32.112148,5.608776,-2.292324,0.880558,-0.692721,-0.246789,-0.063529
2025-12-31T16:12:32.121148,6.034698,-1.923829,0.655633,-0.537561,-0.171042,-0.101403
2025-12-31T16:12:32.131148,6.307480,-1.660618,0.344566,-0.434935,-0.151494,-0.142942
2025-12-31T16:12:32.140148,6.929614,-1.622333,-0.062213,-0.353080,-0.207694,-0.213802
2025-12-31T16:12:32.150148,7.810172,-1.651047,-0.502492,-0.273667,-0.335975,-0.324980
2025-12-31T16:12:32.160148,8.997012,-1.842473,-0.918843,-0.160046,-0.522900,-0.469144
2025-12-31T16:12:32.169148,10.600204,-2.062613,-1.086341,-0.035430,-0.715933,-0.581543
2025-12-31T16:12:32.179148,12.337393,-2.378465,-1.153340,0.106290,-0.829554,-0.663399
2025-12-31T16:12:32.188148,13.931013,-2.373680,-1.162911,0.296880,-0.761137,-0.714712
2025-12-31T16:12:32.198148,14.816357,-2.191825,-1.205982,0.538783,-0.456927,-0.671951
2025-12-31T16:12:32.208148,14.361721,-1.636690,-0.990628,0.740368,0.036651,-0.526565
2025-12-31T16:12:32.217148,12.394821,-1.057627,-0.689132,0.845437,0.541226,-0.338419
2025-12-31T16:12:32.227148,9.781858,-0.636490,-0.296710,0.851545,0.845437,-0.134390
2025-12-31T16:12:32.237148,7.379464,-0.641276,0.177068,0.768468,0.904080,0.062308
2025-12-31T16:12:32.246148,5.575276,-0.923629,0.483350,0.698829,0.756251,0.232128
2025-12-31T16:12:32.256148,4.575076,-1.335195,0.564706,0.702494,0.481361,0.376292
2025-12-31T16:12:32.265148,4.311866,-1.521835,0.406779,0.800233,0.178372,0.493579
2025-12-31T16:12:32.275148,4.819144,-1.440479,0.272781,0.943175,-0.081855,0.598647
2025-12-31T16:12:32.285148,5.733202,-1.244267,0.224925,1.065348,-0.215024,0.701273
2025-12-31T16:12:32.294148,6.518048,-1.148554,0.244067,1.148426,-0.182037,0.803898
2025-12-31T16:12:32.304148,6.915257,-1.095912,0.138783,1.177747,-0.053756,0.915075
2025-12-31T16:12:32.313148,7.063612,-1.182054,-0.133998,1.149648,0.079412,1.028696
2025-12-31T16:12:32.323148,6.972685,-1.335195,-0.540777,1.105665,0.152716,1.117883
2025-12-31T16:12:32.333148,7.183253,-1.454836,-0.928415,1.077566,0.118507,1.191186
2025-12-31T16:12:32.342148,7.704888,-1.464407,-1.048056,1.059240,0.003665,1.238834
2025-12-31T16:12:32.352148,8.551947,-1.569691,-0.985842,1.044579,-0.089186,1.292590
2025-12-31T16:12:32.362148,9.284151,-1.574477,-0.823130,1.043357,-0.083077,1.374446
2025-12-31T16:12:32.371148,9.547362,-1.497906,-0.421136,1.056796,0.057421,1.489289
2025-12-31T16:12:32.381148,9.231509,-1.497906,0.009571,1.060461,0.283441,1.622457
2025-12-31T16:12:32.390148,8.336593,-1.502692,0.129212,1.053131,0.525343,1.759291
2025-12-31T16:12:32.400148,7.159325,-1.545763,0.033499,1.053131,0.692721,1.898568
2025-12-31T16:12:32.410148,6.197410,-1.560120,0.253639,1.059240,0.759916,2.031737
2025-12-31T16:12:32.419148,5.690132,-1.756331,0.765703,1.080009,0.781907,2.164905
2025-12-31T16:12:32.429148,5.527420,-1.890329,0.875773,1.105665,0.814894,2.329839
2025-12-31T16:12:32.438148,5.508277,-2.067398,0.832702,1.160643,0.871093,2.522872
2025-12-31T16:12:32.448148,5.613561,-2.100898,0.545563,1.230282,0.960279,2.729345
2025-12-31T16:12:32.458148,5.651846,-2.072184,0.143569,1.312138,1.065348,2.939482
2025-12-31T16:12:32.467148,5.589633,-2.005185,-0.224925,1.401324,1.128878,3.145955
2025-12-31T16:12:32.477148,5.637490,-1.895115,-0.435493,1.483180,1.125213,3.340210
2025-12-31T16:12:32.487148,5.919843,-1.823330,-0.425922,1.587027,1.086118,3.503922
2025-12-31T16:12:32.496148,6.364908,-1.598405,0.052642,1.707978,1.029918,3.635869
2025-12-31T16:12:32.506148,7.245466,-1.411765,0.540777,1.777617,1.003040,3.742159
2025-12-31T16:12:32.515148,8.188238,-1.205982,0.631705,1.782504,1.033583,3.824015
2025-12-31T16:12:32.525148,8.772087,-1.220339,0.631705,1.739743,1.116661,3.875328
2025-12-31T16:12:32.535148,9.375078,-1.220339,0.583848,1.671326,1.218065,3.897319
2025-12-31T16:12:32.544148,9.695717,-1.182054,0.512064,1.552819,1.329242,3.903428
2025-12-31T16:12:32.554148,9.815358,-1.507478,0.263210,1.400102,1.447750,3.913201
2025-12-31T16:12:32.563148,9.686145,-1.842473,-0.004785,1.253495,1.565036,3.918088
2025-12-31T16:12:32.573148,9.523433,-2.182254,-0.095712,1.177747,1.671326,3.881436
2025-12-31T16:12:32.583148,9.336793,-2.435893,0.196211,1.160643,1.737300,3.811798
2025-12-31T16:12:32.592148,9.327222,-2.598605,0.516849,1.178969,1.762956,3.759263
2025-12-31T16:12:32.602148,9.317651,-2.306680,0.684347,1.176526,1.784947,3.739716
2025-12-31T16:12:32.612148,9.245866,-2.172682,0.928415,1.108109,1.836260,3.721390
2025-12-31T16:12:32.621148,9.126225,-2.072184,1.201196,0.989601,1.909564,3.699399
2025-12-31T16:12:32.631148,8.949156,-2.416750,1.464407,0.823446,1.959655,3.701842
2025-12-31T16:12:32.640148,9.001798,-3.273381,1.655833,0.638964,1.909564,3.711616
2025-12-31T16:12:32.650148,9.528219,-4.168296,2.263610,0.442266,1.797165,3.734829
2025-12-31T16:12:32.660148,10.188638,-4.747360,2.608176,0.309097,1.714087,3.739716
2025-12-31T16:12:32.669148,10.772487,-5.134997,2.608176,0.216246,1.695761,3.749490
2025-12-31T16:12:32.679148,11.313265,-5.484349,2.914457,0.047647,1.707978,3.776368
2025-12-31T16:12:32.688148,11.600403,-6.106483,3.172882,-0.116064,1.750739,3.784920
2025-12-31T16:12:32.698148,11.633903,-6.766902,3.503092,-0.228463,1.819156,3.765372
2025-12-31T16:12:32.708148,11.629117,-7.657032,4.091726,-0.288328,1.903455,3.736051
2025-12-31T16:12:32.717148,11.624332,-8.930013,4.924428,-0.394618,1.963320,3.739716
2025-12-31T16:12:32.727148,12.098111,-11.241480,5.938985,-0.605978,1.937664,3.814241
2025-12-31T16:12:32.737148,12.801600,-13.648660,6.441478,-0.631634,1.898568,3.860667
2025-12-31T16:12:32.746148,13.002598,-14.888142,5.642275,-0.184481,2.009746,3.889989
2025-12-31T16:12:32.756148,11.992826,-14.122438,5.029713,0.643851,2.289522,3.962071
2025-12-31T16:12:32.765148,10.179067,-12.136396,4.584648,1.367116,2.591289,3.964514
2025-12-31T16:12:32.775148,8.212167,-10.561918,4.206582,1.788613,2.767218,3.976731
2025-12-31T16:12:32.785148,6.010770,-8.336593,3.574876,2.252870,2.884505,3.936414
2025-12-31T16:12:32.794148,3.881158,-5.967699,3.158525,2.538755,2.878396,3.857002
2025-12-31T16:12:32.804148,2.024327,-4.211367,3.393022,2.453234,2.742784,3.698177
2025-12-31T16:12:32.813148,0.823130,-3.522234,4.101297,2.138027,2.460564,3.434283
2025-12-31T16:12:32.823148,0.224925,-3.704089,4.943571,1.700648,2.070832,3.156950
2025-12-31T16:12:32.833148,0.239282,-4.096512,5.776273,1.299920,1.689652,2.912604
2025-12-31T16:12:32.842148,0.076570,-4.268795,6.197410,0.941954,1.429424,2.719571
2025-12-31T16:12:32.852148,-0.138783,-4.240081,6.015556,0.574213,1.330464,2.566855
2025-12-31T16:12:32.862148,-0.569491,-4.709074,5.742774,0.059864,1.317025,2.447125
2025-12-31T16:12:32.871148,-1.162911,-5.857629,5.273781,-0.466700,1.295034,2.326174
2025-12-31T16:12:32.881148,-1.732403,-7.269395,5.541777,-0.890641,1.211956,2.252870
2025-12-31T16:12:32.890148,-2.349751,-8.796015,6.230910,-1.180191,1.119104,2.212553
2025-12-31T16:12:32.900148,-2.943171,-10.528419,7.092326,-1.380555,1.053131,2.158797
2025-12-31T16:12:32.910148,-3.651447,-12.232109,8.001598,-1.413541,1.059240,2.010967
2025-12-31T16:12:32.919148,-4.527220,-13.926227,8.671589,-1.303586,1.115439,1.777617
2025-12-31T16:12:32.929148,-5.474778,-15.591632,8.757730,-1.091005,1.154535,1.503949
2025-12-31T16:12:32.938148,-6.474977,-16.821543,8.815158,-0.801455,1.080009,1.196073
2025-12-31T16:12:32.948148,-6.910471,-17.596817,8.796015,-0.447153,0.838106,0.835663
2025-12-31T16:12:32.958148,-6.896114,-17.453247,8.341379,-0.067195,0.488692,0.450818
2025-12-31T16:12:32.967148,-6.307480,-16.577475,7.805387,0.221133,0.196698,0.051312
2025-12-31T16:12:32.977148,-5.948556,-15.404991,7.623532,0.262671,0.008552,-0.318871
2025-12-31T16:12:32.987148,-6.092126,-14.624931,7.666603,0.056199,-0.094073,-0.711046
2025-12-31T16:12:32.996148,-6.350551,-14.294722,7.551748,-0.334754,-0.188146,-1.128878
2025-12-31T16:12:33.006148,-6.460621,-14.868999,7.412964,-0.919962,-0.400727,-1.572366
2025-12-31T16:12:33.015148,-5.637490,-16.630117,7.958527,-1.643227,-0.889419,-2.090380
2025-12-31T16:12:33.025148,-3.196810,-18.788443,8.384450,-2.177123,-1.549153,-2.571742
2025-12-31T16:12:33.035148,0.320638,-20.506489,8.604590,-2.217440,-2.051285,-2.894278
2025-12-31T16:12:33.044148,3.785445,-20.961124,8.628518,-1.707978,-2.145358,-3.009121
2025-12-31T16:12:33.054148,5.900700,-19.697716,7.671389,-0.698829,-1.770287,-2.984686
2025-12-31T16:12:33.063148,6.163911,-17.032110,6.518048,0.377514,-1.262047,-2.864957
2025-12-31T16:12:33.073148,5.087140,-14.495719,6.197410,0.981049,-0.954171,-2.719571
2025-12-31T16:12:33.083148,3.622733,-12.969098,6.565905,1.202182,-0.905302,-2.698802
2025-12-31T16:12:33.092148,2.574677,-12.040683,6.623332,1.236390,-1.077566,-2.785544
2025-12-31T16:12:33.102148,2.474178,-12.672388,7.077969,0.814894,-1.530827,-2.871066
2025-12-31T16:12:33.112148,4.144368,-14.854642,6.929614,0.375071,-2.070832,-3.025004
2025-12-31T16:12:33.121148,6.350551,-15.247065,6.963113,0.421496,-2.381152,-3.186272
2025-12-31T16:12:33.131148,7.604390,-13.395020,6.652046,0.770911,-2.321287,-3.226589
2025-12-31T16:12:33.140148,7.226324,-9.848857,5.934200,1.064127,-2.042732,-3.159394
2025-12-31T16:12:33.150148,5.967699,-6.058626,5.201996,1.003040,-1.824043,-3.021338
2025-12-31T16:12:33.160148,4.661218,-2.919243,4.685146,0.558330,-1.787391,-2.902831
2025-12-31T16:12:33.169148,3.598805,-0.693918,3.455235,-0.120951,-1.879021,-2.875952
2025-12-31T16:12:33.179148,3.431307,0.224925,2.828316,-0.985936,-2.013411,-2.911383
2025-12-31T16:12:33.188148,3.943371,-0.468993,2.627319,-1.838703,-2.125810,-3.137403
2025-12-31T16:12:33.198148,4.991427,-2.354537,2.009970,-2.428799,-2.158797,-3.451387
2025-12-31T16:12:33.208148,6.144768,-4.905286,1.234696,-2.630385,-2.091602,-3.721390
2025-12-31T16:12:33.217148,7.298108,-7.264609,0.818345,-2.542420,-1.999972,-3.980397
2025-12-31T16:12:33.227148,8.398807,-9.044869,1.220339,-2.257757,-1.797165,-4.163656
2025-12-31T16:12:33.237148,8.882157,-9.427721,1.311266,-1.544267,-1.535714,-4.378681
2025-12-31T16:12:33.246148,8.365307,-8.001598,0.583848,-0.682947,-1.341459,-4.571714
2025-12-31T16:12:33.256148,7.441678,-5.704489,-0.071784,0.040317,-1.317025,-4.698774
2025-12-31T16:12:33.265148,6.776473,-3.115455,-0.157926,0.456927,-1.446528,-4.762304
2025-12-31T16:12:33.275148,6.575476,-1.167697,0.607776,0.476474,-1.712865,-4.884477
2025-12-31T16:12:33.285148,7.250252,-0.267996,0.794417,0.168598,-2.124588,-5.062850
2025-12-31T16:12:33.294148,8.896514,-0.583848,0.373280,-0.312762,-2.609615,-5.224118
2025-12-31T16:12:33.304148,11.346764,-1.914258,0.311066,-0.696386,-3.053103,-5.429369
2025-12-31T16:12:33.313148,14.222937,-3.110669,0.732203,-0.817337,-3.365866,-5.654167
2025-12-31T16:12:33.323148,16.816757,-3.091526,0.311066,-0.663399,-3.404962,-5.825209
2025-12-31T16:12:33.333148,18.123238,-1.938186,-1.105484,-0.393397,-3.133738,-5.909509
2025-12-31T16:12:33.342148,18.553946,-0.574277,-1.473978,-0.278554,-2.752558,-5.831318
2025-12-31T16:12:33.352148,18.319448,0.397208,-1.210768,-0.500909,-2.478890,-5.588194
2025-12-31T16:12:33.362148,17.845671,0.866201,-1.464407,-0.946840,-2.349387,-5.389051
2025-12-31T16:12:33.371148,17.218752,0.909272,-2.143969,-1.436754,-2.343278,-5.254662
2025-12-31T16:12:33.381148,16.850256,0.468993,-2.297109,-1.898568,-2.448347,-5.066514
2025-12-31T16:12:33.390148,16.950754,-0.334995,-1.914258,-2.293187,-2.627941,-4.875924
2025-12-31T16:12:33.400148,17.386250,-1.062413,-1.651047,-2.506990,-2.665815,-4.741535
2025-12-31T16:12:33.410148,17.726028,-1.349551,-1.335195,-2.533868,-2.505768,-4.575379
2025-12-31T16:12:33.419148,17.687744,-1.938186,-0.827916,-2.542420,-2.257757,-4.298046
2025-12-31T16:12:33.429148,17.367105,-3.182454,-0.143569,-2.519207,-1.915672,-3.955962
2025-12-31T16:12:33.438148,16.433905,-4.541577,0.334995,-2.316400,-1.415985,-3.602882
2025-12-31T16:12:33.448148,14.653645,-5.335994,0.842273,-1.879021,-0.773355,-3.258354
2025-12-31T16:12:33.458148,12.055040,-5.848058,0.990628,-1.376889,-0.114842,-2.888170
2025-12-31T16:12:33.467148,9.064012,-5.948556,0.904486,-0.788015,0.393397,-2.499660
2025-12-31T16:12:33.477148,6.087340,-5.139782,0.507278,-0.188146,0.675616,-2.144136
2025-12-31T16:12:33.487148,3.536591,-4.469792,0.445065,0.182037,0.723264,-1.804495
2025-12-31T16:12:33.496148,1.607976,-3.938585,0.344566,0.428827,0.568104,-1.533271
2025-12-31T16:12:33.506148,0.301495,-3.330809,0.210568,0.632856,0.268780,-1.308473
2025-12-31T16:12:33.515148,-0.153140,-2.617747,0.564706,0.753807,-0.117286,-1.132543
2025-12-31T16:12:33.525148,0.038285,-1.938186,0.894915,0.745255,-0.516791,-0.993266
2025-12-31T16:12:33.535148,0.952343,-1.411765,1.110269,0.638964,-0.827111,-0.858876
2025-12-31T16:12:33.544148,1.899901,-1.167697,1.406979,0.503352,-0.940732,-0.709825
2025-12-31T16:12:33.554148,2.589034,-0.952343,1.804188,0.365297,-0.874758,-0.535117
2025-12-31T16:12:33.563148,2.636890,-0.674775,1.990828,0.184481,-0.711046,-0.372627
2025-12-31T16:12:33.573148,2.383251,-0.583848,2.072184,-0.039095,-0.542448,-0.256563
2025-12-31T16:12:33.583148,1.899901,-0.650847,2.096112,-0.273667,-0.439822,-0.178372
2025-12-31T16:12:33.592148,1.718046,-0.928415,1.976471,-0.486248,-0.422718,-0.139277
2025-12-31T16:12:33.602148,1.761117,-1.459621,1.694118,-0.632856,-0.441044,-0.147829
2025-12-31T16:12:33.612148,2.009970,-1.727617,1.588834,-0.623082,-0.452040,-0.208915
2025-12-31T16:12:33.621148,2.411965,-1.406979,1.674975,-0.515570,-0.475253,-0.290771
2025-12-31T16:12:33.631148,3.110669,-0.885344,1.689332,-0.443488,-0.546113,-0.399505
2025-12-31T16:12:33.640148,4.201796,-0.689132,1.679761,-0.445931,-0.624304,-0.520457
2025-12-31T16:12:33.650148,5.536991,-0.665204,1.272981,-0.450818,-0.643851,-0.635299
2025-12-31T16:12:33.660148,6.632904,-0.325423,0.722632,-0.442266,-0.574213,-0.700051
2025-12-31T16:12:33.669148,7.393821,-0.023928,0.421136,-0.520457,-0.453261,-0.720820
2025-12-31T16:12:33.679148,7.939385,0.057427,0.114855,-0.695164,-0.338419,-0.717155
2025-12-31T16:12:33.688148,8.322237,-0.105284,-0.133998,-0.913854,-0.267558,-0.695164
2025-12-31T16:12:33.698148,8.810372,-0.622133,-0.253639,-1.117883,-0.249232,-0.658512
2025-12-31T16:12:33.708148,9.370293,-1.335195,-0.378065,-1.258382,-0.276111,-0.613308
2025-12-31T16:12:33.717148,10.064211,-2.191825,-0.334995,-1.252273,-0.324980,-0.554665
2025-12-31T16:12:33.727148,10.887342,-2.947957,-0.138783,-1.082452,-0.354301,-0.474031
2025-12-31T16:12:33.737148,11.552547,-3.393022,0.181854,-0.790459,-0.328645,-0.387288
2025-12-31T16:12:33.746148,11.992826,-3.393022,0.181854,-0.388510,-0.217467,-0.299323
2025-12-31T16:12:33.756148,12.007183,-2.904886,0.200997,0.064751,-0.013439,-0.185702
2025-12-31T16:12:33.765148,11.452048,-2.062613,0.397208,0.464257,0.227241,-0.047647
2025-12-31T16:12:33.775148,10.212566,-1.383051,0.550349,0.714712,0.444709,0.131946
2025-12-31T16:12:33.785148,8.719445,-1.110269,0.559920,0.833220,0.577878,0.309097
2025-12-31T16:12:33.794148,7.245466,-1.105484,0.311066,0.897971,0.603534,0.439822
2025-12-31T16:12:33.804148,6.096911,-1.119840,0.421136,0.955393,0.524122,0.522900
2025-12-31T16:12:33.813148,5.498706,-1.153340,0.593420,1.027475,0.382401,0.565661
2025-12-31T16:12:33.823148,5.474778,-1.048056,0.736989,1.098335,0.243124,0.572991
2025-12-31T16:12:33.833148,5.771488,-0.823130,0.679561,1.131322,0.185702,0.577878
2025-12-31T16:12:33.842148,5.924628,-0.559920,0.459421,1.137430,0.227241,0.591317
2025-12-31T16:12:33.852148,5.795416,-0.363709,0.354137,1.098335,0.320093,0.614530
2025-12-31T16:12:33.862148,5.508277,-0.315852,0.306281,1.012814,0.404392,0.646295
2025-12-31T16:12:33.871148,5.096712,-0.296710,0.267996,0.906523,0.472809,0.698829
2025-12-31T16:12:33.881148,4.632504,-0.373280,0.287138,0.792902,0.529009,0.772133
2025-12-31T16:12:33.890148,4.268795,-0.564706,0.473778,0.676838,0.569326,0.886976
2025-12-31T16:12:33.900148,3.929014,-0.727418,0.784845,0.570548,0.614530,1.038470
2025-12-31T16:12:33.910148,3.598805,-0.899701,0.875773,0.464257,0.680503,1.230282
2025-12-31T16:12:33.919148,3.067598,-0.928415,0.904486,0.387288,0.774576,1.458745
2025-12-31T16:12:33.929148,2.636890,-0.746560,1.004985,0.322536,0.867428,1.682322
2025-12-31T16:12:33.938148,2.196611,-0.655633,0.937986,0.201585,0.902858,1.891238
2025-12-31T16:12:33.948148,1.852044,-0.693918,0.617348,0.068416,0.884532,2.087936
2025-12-31T16:12:33.958148,1.799402,-0.870987,0.473778,-0.021991,0.828333,2.254092
2025-12-31T16:12:33.967148,1.942971,-1.028913,0.679561,-0.063529,0.750142,2.370156
2025-12-31T16:12:33.977148,2.450250,-1.162911,0.631705,-0.087964,0.693942,2.464229
2025-12-31T16:12:33.987148,3.010170,-1.177268,0.401994,-0.056199,0.700051,2.553416
2025-12-31T16:12:33.996148,3.187239,-1.014556,0.177068,-0.019547,0.769690,2.618167
2025-12-31T16:12:34.006148,3.488735,-0.995414,0.229710,0.009773,0.828333,2.668258
2025-12-31T16:12:34.015148,3.785445,-1.320838,0.196211,0.052534,0.873537,2.701245
2025-12-31T16:12:34.025148,4.264009,-1.703689,-0.047856,0.161268,0.886976,2.734232
2025-12-31T16:12:34.035148,4.905286,-1.689332,-0.464207,0.265115,0.894306,2.742784
2025-12-31T16:12:34.044148,5.599204,-2.005185,-1.038485,0.351858,0.855211,2.773327
2025-12-31T16:12:34.054148,6.623332,-2.297109,-1.134197,0.486248,0.763581,2.802649
2025-12-31T16:12:34.063148,7.824529,-2.560320,-0.947557,0.619417,0.685390,2.836857
2025-12-31T16:12:34.073148,8.930013,-2.828316,-1.081555,0.755029,0.652403,2.902831
2025-12-31T16:12:34.083148,10.126425,-3.110669,-0.933200,0.883310,0.635299,3.010343
2025-12-31T16:12:34.092148,11.475977,-3.637090,-0.626919,0.951727,0.612086,3.150842
2025-12-31T16:12:34.102148,12.806386,-4.254438,-0.722632,1.025031,0.612086,3.295006
2025-12-31T16:12:34.112148,14.299507,-4.689932,-0.813559,1.155756,0.658512,3.446500
2025-12-31T16:12:34.121148,15.873985,-4.718646,-0.598205,1.324355,0.775798,3.599217
2025-12-31T16:12:34.131148,16.993826,-4.407579,-0.483350,1.462411,0.976162,3.753155
2025-12-31T16:12:34.140148,17.525032,-3.651447,-0.492921,1.496619,1.257160,3.930306
2025-12-31T16:12:34.150148,17.381462,-2.962314,-0.023928,1.445306,1.578475,4.106235
2025-12-31T16:12:34.160148,16.386049,-2.076970,0.483350,1.290147,1.869247,4.244290
2025-12-31T16:12:34.169148,15.175280,-1.957328,0.406779,1.027475,2.029293,4.283386
2025-12-31T16:12:34.179148,13.806586,-2.450250,0.622133,0.810007,2.140471,4.267503
2025-12-31T16:12:34.188148,12.672388,-3.259024,0.713061,0.709825,2.189340,4.241847
2025-12-31T16:12:34.198148,11.834900,-3.579662,0.445065,0.748920,2.108706,4.161213
2025-12-31T16:12:34.208148,11.624332,-3.809373,0.229710,0.763581,1.927890,4.069583
2025-12-31T16:12:34.217148,11.801401,-4.197010,0.224925,0.718377,1.754404,4.003609
2025-12-31T16:12:34.227148,11.873185,-4.421936,0.263210,0.665842,1.661553,3.940079
2025-12-31T16:12:34.237148,11.590832,-4.733003,0.641276,0.554665,1.629788,3.898541
2025-12-31T16:12:34.246148,11.117053,-5.168496,1.129412,0.392175,1.593136,3.857002
2025-12-31T16:12:34.256148,10.619346,-5.752345,1.612762,0.227241,1.525941,3.765372
2025-12-31T16:12:34.265148,10.207781,-6.422335,2.124826,0.105068,1.446528,3.619986
2025-12-31T16:12:34.275148,10.073783,-7.676174,2.593819,-0.021991,1.356120,3.486818
2025-12-31T16:12:34.285148,10.011569,-9.121439,2.900100,-0.124616,1.241277,3.367088
2025-12-31T16:12:34.294148,10.097711,-10.561918,2.694318,-0.064751,1.132543,3.275458
2025-12-31T16:12:34.304148,10.064211,-11.169695,2.474178,0.185702,1.106887,3.191159
2025-12-31T16:12:34.313148,9.623932,-10.868200,2.230110,0.516791,1.187521,3.115412
2025-12-31T16:12:34.323148,8.896514,-10.250852,2.306680,0.719599,1.242499,3.039664
2025-12-31T16:12:34.333148,8.216952,-10.322636,3.034099,0.748920,1.193630,2.974913
2025-12-31T16:12:34.342148,8.044669,-10.992627,4.474578,0.667064,1.032362,2.885726
2025-12-31T16:12:34.352148,8.504091,-11.753544,5.446064,0.575434,0.833220,2.787988
2025-12-31T16:12:34.362148,9.059226,-11.810972,5.154139,0.543669,0.733038,2.713462
2025-12-31T16:12:34.371148,9.102297,-11.246266,4.723431,0.487470,0.785572,2.632828
2025-12-31T16:12:34.381148,8.580661,-11.030912,4.876572,0.315206,0.910189,2.486221
2025-12-31T16:12:34.390148,7.637889,-11.370692,4.613361,0.139277,1.040914,2.272418
2025-12-31T16:12:34.400148,6.695117,-12.270394,4.642075,-0.050090,1.065348,2.083050
2025-12-31T16:12:34.410148,6.197410,-13.552947,5.134997,-0.223576,0.932180,1.837482
2025-12-31T16:12:34.419148,6.417550,-15.471990,5.824130,-0.420275,0.671951,1.547932
2025-12-31T16:12:34.429148,7.235895,-17.903097,7.393821,-0.569326,0.452040,1.232725
2025-12-31T16:12:34.438148,8.087740,-19.630716,8.494520,-0.449596,0.328645,0.873537
2025-12-31T16:12:34.448148,8.398807,-20.405991,8.164310,-0.219911,0.305432,0.570548
2025-12-31T16:12:34.458148,8.049455,-20.650059,6.886543,-0.084299,0.252898,0.310319
2025-12-31T16:12:34.467148,7.700103,-20.477776,6.240481,-0.142942,0.051312,-0.030543
2025-12-31T16:12:34.477148,8.025527,-20.348562,6.159125,-0.304210,-0.248011,-0.461814
2025-12-31T16:12:34.487148,8.987441,-20.530416,6.293123,-0.541226,-0.563217,-0.808785
2025-12-31T16:12:34.496148,10.375278,-20.970697,6.250052,-0.808785,-0.831998,-1.018923
2025-12-31T16:12:34.506148,11.691331,-21.186050,6.015556,-0.959058,-0.992044,-1.160643
2025-12-31T16:12:34.515148,12.528819,-20.664415,5.733202,-0.764803,-0.937067,-1.274264
2025-12-31T16:12:34.525148,12.346964,-19.056438,5.867201,-0.360410,-0.745255,-1.354898
2025-12-31T16:12:34.535148,11.160124,-17.194822,5.905486,-0.031764,-0.583987,-1.447750
2025-12-31T16:12:34.544148,9.509077,-15.701701,5.460421,0.216246,-0.547335,-1.555262
2025-12-31T16:12:34.554148,7.934599,-14.299507,5.216353,0.460592,-0.634077,-1.681100
2025-12-31T16:12:34.563148,6.594619,-12.447463,4.771288,0.667064,-0.839328,-1.846034
2025-12-31T16:12:34.573148,5.982056,-10.255637,3.957728,0.759916,-1.156978,-2.023185
2025-12-31T16:12:34.583148,5.910271,-8.623732,3.718446,0.586430,-1.566258,-2.149023
2025-12-31T16:12:34.592148,6.407978,-7.259823,3.249453,0.233350,-1.935220,-2.258979
2025-12-31T16:12:34.602148,6.786044,-5.967699,2.799602,-0.205250,-2.168571,-2.309070
2025-12-31T16:12:34.612148,7.274180,-4.910071,2.861815,-0.735481,-2.291965,-2.354274
2025-12-31T16:12:34.621148,7.891528,-4.666004,3.364308,-1.262047,-2.329839,-2.453234
2025-12-31T16:12:34.631148,8.571090,-4.685146,3.555734,-1.639561,-2.199114,-2.597398
2025-12-31T16:12:34.640148,8.724231,-4.881358,2.880958,-1.806938,-1.903455,-2.753779
2025-12-31T16:12:34.650148,8.260023,-5.091926,1.885544,-1.789834,-1.580918,-2.904052
2025-12-31T16:12:34.660148,7.489534,-5.359922,1.081555,-1.602910,-1.348790,-3.105638
2025-12-31T16:12:34.669148,6.805187,-6.058626,0.483350,-1.341459,-1.240056,-3.298671
2025-12-31T16:12:34.679148,6.460621,-6.747759,0.086141,-1.044579,-1.259603,-3.455053
2025-12-31T16:12:34.688148,6.412764,-7.135396,-0.291924,-0.714712,-1.351233,-3.595552
2025-12-31T16:12:34.698148,6.833901,-7.494320,-0.473778,-0.454483,-1.491732,-3.696955
2025-12-31T16:12:34.708148,7.518248,-7.551748,-0.392422,-0.150272,-1.646892,-3.870441
2025-12-31T16:12:34.717148,8.403592,-6.671189,0.287138,0.295658,-1.733635,-4.063474
2025-12-31T16:12:34.727148,8.944370,-5.096712,0.545563,0.702494,-1.710422,-4.161213
2025-12-31T16:12:34.737148,8.968299,-3.330809,0.162711,0.945619,-1.590692,-4.183204
2025-12-31T16:12:34.746148,8.604590,-1.684547,-0.167497,0.935845,-1.461189,-4.188091
2025-12-31T16:12:34.756148,8.236095,-0.665204,-0.244067,0.632856,-1.402546,-4.168543
2025-12-31T16:12:34.765148,7.977670,-0.330209,-0.392422,0.122173,-1.468519,-4.156326
2025-12-31T16:12:34.775148,8.039883,-0.660419,-0.842273,-0.395840,-1.644448,-4.190534
2025-12-31T16:12:34.785148,8.585447,-1.445264,-0.971485,-0.866206,-1.853364,-4.228408
2025-12-31T16:12:34.794148,9.609575,-2.167897,-0.894915,-1.251051,-2.083050,-4.277277
2025-12-31T16:12:34.804148,10.796415,-2.163111,-1.143769,-1.473406,-2.235766,-4.357911
2025-12-31T16:12:34.813148,11.767901,-1.694118,-1.191625,-1.569923,-2.269974,-4.414111
2025-12-31T16:12:34.823148,12.638888,-1.186840,-0.679561,-1.638340,-2.218662,-4.404337
2025-12-31T16:12:34.833148,13.217952,-1.071984,-0.354137,-1.759291,-2.102597,-4.327368
2025-12-31T16:12:34.842148,13.572089,-1.373480,-0.483350,-1.888794,-1.937664,-4.224743
2025-12-31T16:12:34.852148,13.658231,-2.053041,-0.698704,-1.954768,-1.756848,-4.111122
2025-12-31T16:12:34.862148,13.524233,-2.579462,-0.784845,-1.931555,-1.578475,-4.010940
2025-12-31T16:12:34.871148,13.241880,-3.029313,-1.019342,-1.825264,-1.369559,-3.919310
2025-12-31T16:12:34.881148,12.634103,-3.110669,-1.124626,-1.667661,-1.120326,-3.792250
2025-12-31T16:12:34.890148,11.724830,-3.134597,-1.119840,-1.488067,-0.849102,-3.633425
2025-12-31T16:12:34.900148,10.590632,-2.995813,-1.086341,-1.314581,-0.588873,-3.451387
2025-12-31T16:12:34.910148,9.408578,-2.746960,-1.153340,-1.174082,-0.370184,-3.254689
2025-12-31T16:12:34.919148,8.054240,-2.517249,-1.138983,-1.032362,-0.208915,-3.046995
2025-12-31T16:12:34.929148,6.766902,-2.249253,-0.966700,-0.910189,-0.100181,-2.822196
2025-12-31T16:12:34.938148,5.551348,-1.804188,-0.866201,-0.825889,-0.029321,-2.594954
2025-12-31T16:12:34.948148,4.374079,-1.234696,-0.555134,-0.829554,-0.015882,-2.349387
2025-12-31T16:12:34.958148,3.416950,-0.842273,-0.229710,-0.941954,-0.067195,-2.108706
2025-12-31T16:12:34.967148,2.761317,-0.866201,0.076570,-1.134987,-0.174707,-1.894903
2025-12-31T16:12:34.977148,2.522035,-1.081555,0.196211,-1.329242,-0.322536,-1.705535
2025-12-31T16:12:34.987148,2.478964,-1.373480,0.545563,-1.419650,-0.461814,-1.547932
2025-12-31T16:12:34.996148,2.837887,-1.564905,0.928415,-1.435533,-0.542448,-1.414763
2025-12-31T16:12:35.006148,3.192025,-1.536192,0.981057,-1.403768,-0.529009,-1.291368
2025-12-31T16:12:35.015148,3.359522,-1.234696,1.024128,-1.329242,-0.408057,-1.147204
2025-12-31T16:12:35.025148,3.139383,-0.885344,0.985842,-1.347568,-0.241902,-1.040914
2025-12-31T16:12:35.035148,2.742174,-1.014556,0.722632,-1.414763,-0.108733,-0.977384
2025-12-31T16:12:35.044148,2.344966,-1.363908,0.593420,-1.441641,-0.079412,-0.929736
2025-12-31T16:12:35.054148,2.230110,-1.703689,0.550349,-1.417207,-0.149051,-0.912632
2025-12-31T16:12:35.063148,2.550748,-1.928615,0.631705,-1.320690,-0.246789,-0.916297
2025-12-31T16:12:35.073148,3.115455,-1.852044,0.799202,-1.182634,-0.317649,-0.918741
2025-12-31T16:12:35.083148,3.804587,-1.689332,0.775274,-1.036027,-0.340862,-0.908967
2025-12-31T16:12:35.092148,4.455435,-1.502692,0.784845,-0.878424,-0.316428,-0.884532
2025-12-31T16:12:35.102148,4.948357,-1.368694,0.622133,-0.729372,-0.245567,-0.840550
2025-12-31T16:12:35.112148,5.158925,-1.215553,0.449850,-0.608421,-0.156381,-0.778242
2025-12-31T16:12:35.121148,5.240281,-1.325623,0.263210,-0.515570,-0.084299,-0.712268
2025-12-31T16:12:35.131148,5.364708,-1.450050,0.095712,-0.408057,-0.081855,-0.654847
2025-12-31T16:12:35.140148,5.785845,-1.598405,0.129212,-0.278554,-0.169820,-0.603534
2025-12-31T16:12:35.150148,6.704688,-1.765903,0.162711,-0.134390,-0.334754,-0.568104
2025-12-31T16:12:35.160148,7.896314,-1.703689,-0.057427,0.040317,-0.504574,-0.532674
2025-12-31T16:12:35.169148,9.298508,-1.622333,-0.483350,0.238237,-0.609643,-0.481361
2025-12-31T16:12:35.179148,10.614561,-1.296909,-0.703489,0.448374,-0.614530,-0.404392
2025-12-31T16:12:35.188148,11.624332,-0.650847,-1.182054,0.653625,-0.500909,-0.304210
2025-12-31T16:12:35.198148,12.169895,-0.028713,-1.316052,0.785572,-0.288328,-0.166155
2025-12-31T16:12:35.208148,11.935399,0.411565,-1.177268,0.814894,-0.029321,0.001221
2025-12-31T16:12:35.217148,11.231909,0.559920,-0.784845,0.788015,0.215024,0.169820
2025-12-31T16:12:35.227148,9.982855,0.464207,-0.172283,0.748920,0.403170,0.338419
2025-12-31T16:12:35.237148,8.547162,0.220139,0.138783,0.714712,0.527787,0.507018
2025-12-31T16:12:35.246148,7.149753,-0.019142,0.177068,0.707381,0.575434,0.648738
2025-12-31T16:12:35.256148,6.053841,-0.411565,0.239282,0.708603,0.583987,0.772133
2025-12-31T16:12:35.265148,5.168496,-0.803988,0.086141,0.778242,0.588873,0.864984
2025-12-31T16:12:35.275148,4.393222,-0.693918,-0.043070,0.919962,0.594982,0.932180
2025-12-31T16:12:35.285148,3.589233,-0.157926,-0.105284,1.097113,0.612086,0.950506
2025-12-31T16:12:35.294148,2.775674,0.296710,-0.081355,1.175304,0.614530,0.950506
2025-12-31T16:12:35.304148,2.096112,0.440279,-0.114855,1.141096,0.559552,0.937067
2025-12-31T16:12:35.313148,1.837687,0.267996,-0.095712,1.064127,0.444709,0.901636
2025-12-31T16:12:35.323148,1.875972,-0.062213,-0.057427,0.995710,0.309097,0.846659
2025-12-31T16:12:35.333148,2.230110,-0.382851,0.095712,0.979827,0.206472,0.797789
2025-12-31T16:12:35.342148,2.967100,-0.535992,0.459421,1.007927,0.156381,0.775798
2025-12-31T16:12:35.352148,3.747160,-0.655633,0.368494,1.040914,0.179594,0.801455
2025-12-31T16:12:35.362148,4.469792,-0.736989,0.191425,1.072679,0.277332,0.879645
2025-12-31T16:12:35.371148,4.962714,-0.808774,-0.215354,1.100778,0.416610,1.027475
2025-12-31T16:12:35.381148,5.082355,-0.842273,-0.775274,1.120326,0.579100,1.231504
2025-12-31T16:12:35.390148,4.809573,-0.937986,-1.004985,1.155756,0.713490,1.473406
2025-12-31T16:12:35.400148,4.474578,-1.076770,-1.004985,1.207069,0.810007,1.745852
2025-12-31T16:12:35.410148,4.134797,-0.880558,-0.847059,1.236390,0.842993,2.014633
2025-12-31T16:12:35.419148,4.010370,-0.579063,-0.622133,1.196073,0.795346,2.265087
2025-12-31T16:12:35.429148,4.431507,-0.449850,-0.559920,1.105665,0.675616,2.504546
2025-12-31T16:12:35.438148,5.479563,-0.507278,-0.325423,1.029918,0.524122,2.734232
2025-12-31T16:12:35.448148,6.757331,-0.579063,-0.023928,0.978605,0.431270,2.934595
2025-12-31T16:12:35.458148,8.212167,-0.727418,0.449850,0.957836,0.455705,3.101973
2025-12-31T16:12:35.467148,9.571290,-0.966700,0.411565,0.935845,0.627969,3.269350
2025-12-31T16:12:35.477148,10.289137,-1.091127,-0.066999,0.934623,0.900415,3.425731
2025-12-31T16:12:35.487148,10.447063,-1.148554,-0.315852,0.977384,1.216843,3.549126
2025-12-31T16:12:35.496148,10.102497,-1.105484,-0.196211,1.012814,1.488067,3.612656
2025-12-31T16:12:35.506148,9.466006,-1.292124,-0.373280,1.021366,1.649335,3.632203
2025-12-31T16:12:35.515148,9.016155,-1.339980,-0.445065,1.066570,1.699426,3.621208
2025-12-31T16:12:35.525148,8.595018,-1.196411,-0.512064,1.106887,1.698205,3.577226
2025-12-31T16:12:35.535148,8.484948,-1.062413,-0.569491,1.114217,1.640783,3.510030
2025-12-31T16:12:35.544148,8.709874,-0.914058,-0.325423,1.075122,1.499062,3.414735
2025-12-31T16:12:35.554148,9.379864,-0.837487,-0.473778,0.971275,1.359785,3.323106
2025-12-31T16:12:35.563148,10.030712,-0.780060,-0.339780,0.845437,1.315803,3.255911
2025-12-31T16:12:35.573148,10.399207,-0.914058,0.215354,0.719599,1.408654,3.176498
2025-12-31T16:12:35.583148,10.298708,-1.000199,0.488135,0.653625,1.583362,3.164281
2025-12-31T16:12:35.592148,9.810572,-1.115055,0.698704,0.531452,1.710422,3.230254
2025-12-31T16:12:35.602148,9.427721,-1.813759,0.875773,0.282219,1.678657,3.280345
2025-12-31T16:12:35.612148,9.681360,-2.833101,0.942772,0.040317,1.508836,3.259576
2025-12-31T16:12:35.621148,10.336993,-3.838087,0.646062,-0.107512,1.295034,3.226589
2025-12-31T16:12:35.631148,11.155338,-4.929214,0.311066,-0.107512,1.138652,3.193602
2025-12-31T16:12:35.640148,11.992826,-5.532205,0.579063,0.021991,1.070235,3.164281
2025-12-31T16:12:35.650148,12.820743,-5.953342,0.961914,0.125838,1.071457,3.158172
2025-12-31T16:12:35.660148,13.232308,-6.455835,0.894915,0.166155,1.126435,3.160616
2025-12-31T16:12:35.669148,13.328021,-6.862615,0.803988,0.218689,1.226617,3.160616
2025-12-31T16:12:35.679148,12.993026,-7.073183,1.115055,0.219911,1.301142,3.163059
2025-12-31T16:12:35.688148,12.571889,-7.355536,1.564905,0.167377,1.310916,3.117855
2025-12-31T16:12:35.698148,12.126824,-7.561319,2.005185,0.120951,1.246164,3.042108
2025-12-31T16:12:35.708148,12.078968,-7.834101,2.866601,0.073303,1.143539,2.974913
2025-12-31T16:12:35.717148,12.179467,-8.202595,3.359522,0.026878,1.097113,2.918713
2025-12-31T16:12:35.727148,12.227323,-8.484948,3.182454,0.068416,1.144761,2.879618
2025-12-31T16:12:35.737148,11.935399,-8.666803,2.976671,0.146607,1.247386,2.868622
2025-12-31T16:12:35.746148,11.236694,-8.786444,2.708675,0.224798,1.363450,2.858848
2025-12-31T16:12:35.756148,10.284351,-8.953942,2.196611,0.326201,1.470963,2.838079
2025-12-31T16:12:35.765148,9.107082,-8.992227,2.029113,0.433714,1.513723,2.785544
2025-12-31T16:12:35.775148,8.063812,-9.322436,2.124826,0.476474,1.426980,2.676810
2025-12-31T16:12:35.785148,7.781459,-9.848857,2.550748,0.461814,1.171639,2.493551
2025-12-31T16:12:35.794148,8.183453,-10.045069,3.043670,0.481361,0.811228,2.280970
2025-12-31T16:12:35.804148,9.537790,-10.341779,3.522234,0.381179,0.476474,2.052506
2025-12-31T16:12:35.813148,10.863414,-11.466405,3.790230,0.317649,0.376292,1.758069
2025-12-31T16:12:35.823148,11.542976,-12.117253,4.718646,0.463035,0.503352,1.510058
2025-12-31T16:12:35.833148,11.700902,-12.528819,5.340780,0.538783,0.635299,1.291368
2025-12-31T16:12:35.842148,11.638689,-12.954741,5.331208,0.469144,0.663399,1.025031
2025-12-31T16:12:35.852148,11.935399,-14.108082,5.335994,0.278554,0.514348,0.730594
2025-12-31T16:12:35.862148,13.217952,-16.007982,5.881557,-0.045204,0.147829,0.386066
2025-12-31T16:12:35.871148,15.266208,-17.946169,5.814558,-0.288328,-0.278554,0.009773
2025-12-31T16:12:35.881148,17.663816,-19.415361,4.996213,-0.461814,-0.684168,-0.357966
2025-12-31T16:12:35.890148,19.999210,-20.530416,4.024727,-0.488692,-1.006705,-0.790459
2025-12-31T16:12:35.900148,21.946968,-20.496918,3.000599,-0.283441,-1.211956,-1.165530
2025-12-31T16:12:35.910148,23.425734,-19.300507,2.483749,-0.040317,-1.262047,-1.359785
2025-12-31T16:12:35.919148,24.205793,-17.635101,2.775674,0.021991,-1.139874,-1.417207
2025-12-31T16:12:35.929148,23.569302,-15.850056,2.962314,-0.032986,-0.812450,-1.402546
2025-12-31T16:12:35.938148,21.410976,-13.887942,3.440878,-0.127059,-0.378736,-1.296255
2025-12-31T16:12:35.948148,18.252451,-12.299108,4.005585,-0.307876,-0.053756,-1.175304
2025-12-31T16:12:35.958148,15.175280,-11.126625,4.555934,-0.571769,-0.031764,-1.130100
2025-12-31T16:12:35.967148,12.748958,-10.537990,4.747360,-0.829554,-0.273667,-1.192408
2025-12-31T16:12:35.977148,11.260623,-9.777073,4.546362,-0.869871,-0.520457,-1.348790
2025-12-31T16:12:35.987148,10.389635,-9.255437,3.866801,-0.839328,-0.723264,-1.530827
2025-12-31T16:12:35.996148,10.145567,-8.499305,2.962314,-0.643851,-0.880867,-1.770287
2025-12-31T16:12:36.006148,9.987641,-7.082754,2.167897,-0.387288,-0.970053,-2.035402
2025-12-31T16:12:36.015148,9.676574,-5.852844,1.512263,-0.221133,-0.994488,-2.302961
2025-12-31T16:12:36.025148,9.116654,-4.890929,0.770488,-0.109955,-0.998153,-2.484999
2025-12-31T16:12:36.035148,8.437092,-3.909872,0.363709,-0.023212,-0.998153,-2.659706
2025-12-31T16:12:36.044148,7.747959,-2.933600,0.047856,-0.074525,-1.105665,-2.850296
2025-12-31T16:12:36.054148,7.518248,-2.392822,-0.301495,-0.335975,-1.334129,-3.020117
2025-12-31T16:12:36.063148,7.901100,-3.029313,-0.200997,-0.757472,-1.638340,-3.148398
2025-12-31T16:12:36.073148,9.092725,-4.139583,-0.272781,-1.110552,-1.938885,-3.287676
2025-12-31T16:12:36.083148,10.547562,-4.948357,-0.708275,-1.202182,-2.097710,-3.436727
2025-12-31T16:12:36.092148,11.676974,-5.211567,-0.756131,-1.102000,-2.080606,-3.567452
2025-12-31T16:12:36.102148,12.308679,-5.053641,-0.708275,-0.921184,-1.923003,-3.660303
2025-12-31T16:12:36.112148,12.112468,-4.508077,-0.923629,-0.704938,-1.707978,-3.732385
2025-12-31T16:12:36.121148,11.547761,-3.775874,-1.038485,-0.540004,-1.547932,-3.805689
2025-12-31T16:12:36.131148,10.882557,-3.335594,-1.119840,-0.458148,-1.492954,-3.891210
2025-12-31T16:12:36.140148,10.394421,-3.148954,-1.119840,-0.425162,-1.554040,-3.976731
2025-12-31T16:12:36.150148,10.485348,-2.952743,-1.177268,-0.434935,-1.737300,-4.081800
2025-12-31T16:12:36.160148,11.112268,-2.842673,-1.579262,-0.497244,-2.018298,-4.219856
2025-12-31T16:12:36.169148,12.299108,-2.723032,-1.727617,-0.530230,-2.283413,-4.346916
2025-12-31T16:12:36.179148,13.615160,-2.239681,-2.029113,-0.544891,-2.437351,-4.450763
2025-12-31T16:12:36.188148,14.806786,-1.603191,-2.388036,-0.590095,-2.477668,-4.502075
2025-12-31T16:12:36.198148,15.821343,-1.373480,-2.469392,-0.687834,-2.425134,-4.509406
2025-12-31T16:12:36.208148,16.563118,-1.488335,-2.455035,-0.783129,-2.274861,-4.467867
2025-12-31T16:12:36.217148,16.874184,-1.794616,-2.277967,-0.788015,-2.026850,-4.387233
2025-12-31T16:12:36.227148,16.716257,-2.517249,-2.096112,-0.726929,-1.707978,-4.273612
2025-12-31T16:12:36.237148,15.993626,-3.316452,-1.804188,-0.515570,-1.380555,-4.119674
2025-12-31T16:12:36.246148,14.998212,-3.412165,-1.253839,-0.204028,-1.114217,-3.896097
2025-12-31T16:12:36.256148,13.926227,-3.426521,-1.100698,0.036651,-0.889419,-3.630982
2025-12-31T16:12:36.265148,12.782458,-3.077169,-1.004985,0.249232,-0.678060,-3.334101
2025-12-31T16:12:36.275148,11.475977,-2.612962,-0.483350,0.406836,-0.447153,-2.985908
2025-12-31T16:12:36.285148,9.887142,-2.282752,-0.081355,0.445931,-0.191811,-2.593733
2025-12-31T16:12:36.294148,8.231309,-2.062613,0.019142,0.405614,0.040317,-2.227214
2025-12-31T16:12:36.304148,6.398407,-1.765903,0.287138,0.377514,0.227241,-1.935220
2025-12-31T16:12:36.313148,4.608576,-1.153340,0.521635,0.334754,0.344527,-1.687209
2025-12-31T16:12:36.323148,3.110669,-0.890130,0.133998,0.237015,0.227241,-1.395215
2025-12-31T16:12:36.333148,2.368894,-1.038485,0.234496,0.048869,-0.054977,-1.126435
2025-12-31T16:12:36.342148,1.976471,-0.957129,0.765703,-0.105068,-0.273667,-0.950506
2025-12-31T16:12:36.352148,1.938186,-0.679561,1.134197,-0.252898,-0.448374,-0.781907
2025-12-31T16:12:36.362148,2.306680,-0.497707,1.143769,-0.414166,-0.575434,-0.603534
2025-12-31T16:12:36.371148,2.780459,-0.339780,1.349551,-0.604756,-0.599869,-0.481361
2025-12-31T16:12:36.381148,3.120240,-0.277567,1.622333,-0.800233,-0.509461,-0.372627
2025-12-31T16:12:36.390148,3.120240,-0.191425,1.775474,-1.003040,-0.334754,-0.265115
2025-12-31T16:12:36.400148,2.842673,-0.244067,1.727617,-1.215621,-0.144164,-0.164933
2025-12-31T16:12:36.410148,2.416750,-0.267996,1.804188,-1.413541,0.021991,-0.087964
2025-12-31T16:12:36.419148,1.933400,-0.344566,1.636690,-1.617570,0.144164,-0.036651
2025-12-31T16:12:36.429148,1.593619,-0.512064,1.253839,-1.815491,0.216246,0.010995
2025-12-31T16:12:36.438148,1.292124,-0.732203,0.971485,-1.976759,0.238237,0.064751
2025-12-31T16:12:36.448148,1.110269,-0.808774,0.909272,-2.078163,0.246789,0.092851
2025-12-31T16:12:36.458148,0.985842,-0.775274,0.794417,-2.139249,0.251676,0.116064
2025-12-31T16:12:36.467148,0.918843,-0.947557,0.794417,-2.186897,0.230907,0.147829
2025-12-31T16:12:36.477148,1.043270,-1.239482,0.770488,-2.223549,0.155159,0.188146
2025-12-31T16:12:36.487148,1.387837,-1.507478,0.741775,-2.211331,0.075747,0.223576
2025-12-31T16:12:36.496148,1.866401,-1.603191,0.904486,-2.141693,0.024434,0.246789
2025-12-31T16:12:36.506148,2.483749,-1.923829,0.890130,-2.036624,-0.004886,0.276111
2025-12-31T16:12:36.515148,3.062812,-2.143969,0.851844,-1.892460,-0.019547,0.309097
2025-12-31T16:12:36.525148,3.665804,-2.445464,0.847059,-1.695761,-0.017104,0.331088
2025-12-31T16:12:36.535148,4.244867,-2.684746,0.832702,-1.414763,-0.019547,0.332310
2025-12-31T16:12:36.544148,4.929214,-2.651247,0.808774,-1.073900,-0.041538,0.310319
2025-12-31T16:12:36.554148,5.704489,-2.560320,0.732203,-0.712268,-0.058643,0.278554
2025-12-31T16:12:36.563148,6.384050,-2.292324,0.593420,-0.349414,-0.059864,0.259006
2025-12-31T16:12:36.573148,7.025327,-1.880758,0.382851,-0.032986,-0.070860,0.241902
2025-12-31T16:12:36.583148,7.752745,-1.488335,0.148355,0.210137,-0.109955,0.215024
2025-12-31T16:12:36.592148,8.676374,-1.244267,-0.009571,0.382401,-0.184481,0.193033
2025-12-31T16:12:36.602148,9.786644,-0.928415,-0.239282,0.504574,-0.273667,0.184481
2025-12-31T16:12:36.612148,11.059626,-0.646062,-0.622133,0.564439,-0.351858,0.200363
2025-12-31T16:12:36.621148,12.241680,-0.315852,-1.292124,0.576656,-0.378736,0.254119
2025-12-31T16:12:36.631148,13.217952,-0.090927,-1.732403,0.551000,-0.315206,0.339641
2025-12-31T16:12:36.640148,13.619946,0.000000,-1.923829,0.530230,-0.133168,0.441044
2025-12-31T16:12:36.650148,13.366307,-0.047856,-1.617548,0.467922,0.155159,0.559552
2025-12-31T16:12:36.660148,12.112468,-0.435493,-1.086341,0.426383,0.481361,0.664621
2025-12-31T16:12:36.669148,10.164710,-0.516849,-0.468993,0.474031,0.747698,0.758694
2025-12-31T16:12:36.679148,8.346165,-0.483350,0.636490,0.555887,0.852767,0.819780
2025-12-31T16:12:36.688148,7.001398,-0.545563,1.655833,0.601091,0.863763,0.858876
2025-12-31T16:12:36.698148,6.092126,-0.569491,1.722832,0.648738,0.864984,0.911410
2025-12-31T16:12:36.708148,5.522634,-0.425922,1.024128,0.642630,0.885754,0.983492
2025-12-31T16:12:36.717148,5.015356,-0.272781,0.301495,0.536339,0.915075,1.089783
2025-12-31T16:12:36.727148,4.426721,-0.177068,-0.229710,0.378736,0.935845,1.216843
2025-12-31T16:12:36.737148,3.713660,-0.191425,-0.416351,0.201585,0.961501,1.342681
2025-12-31T16:12:36.746148,2.895315,-0.057427,-0.239282,0.004886,0.985936,1.490510
2025-12-31T16:12:36.756148,2.043470,-0.177068,0.191425,-0.213802,0.994488,1.651779
2025-12-31T16:12:36.765148,1.277767,-0.430708,0.478564,-0.404392,0.976162,1.828930
2025-12-31T16:12:36.775148,0.483350,-0.646062,0.564706,-0.518013,0.932180,2.003637
2025-12-31T16:12:36.785148,0.028713,-1.009771,0.602991,-0.551000,0.846659,2.145358
2025-12-31T16:12:36.794148,-0.124426,-1.435693,0.698704,-0.491135,0.702494,2.239431
2025-12-31T16:12:36.804148,0.157926,-1.957328,0.468993,-0.338419,0.499687,2.305404
2025-12-31T16:12:36.813148,1.004985,-2.373680,0.119641,-0.122173,0.306654,2.338391
2025-12-31T16:12:36.823148,2.091326,-2.555534,-0.119641,0.135612,0.182037,2.357939
2025-12-31T16:12:36.833148,3.019742,-2.603390,-0.229710,0.419053,0.169820,2.381152
2025-12-31T16:12:36.842148,3.723231,-2.244467,-0.468993,0.686612,0.251676,2.397034
2025-12-31T16:12:36.852148,3.862015,-2.005185,-0.555134,0.912632,0.378736,2.411695
2025-12-31T16:12:36.862148,3.694518,-1.775474,-0.622133,1.083674,0.487470,2.423912
2025-12-31T16:12:36.871148,3.354737,-1.689332,-0.717846,1.214399,0.507018,2.416582
2025-12-31T16:12:36.881148,3.335594,-1.684547,-0.665204,1.329242,0.427605,2.386039
2025-12-31T16:12:36.890148,3.689732,-1.708475,-0.531206,1.431867,0.285884,2.344500
2025-12-31T16:12:36.900148,4.460221,-1.799402,-0.483350,1.510058,0.147829,2.309070
2025-12-31T16:12:36.910148,5.398207,-1.694118,-0.392422,1.560149,0.047647,2.293187
2025-12-31T16:12:36.919148,6.403193,-1.636690,-0.153140,1.579697,0.006108,2.287078
2025-12-31T16:12:36.929148,7.317251,-1.617548,-0.148355,1.572366,0.068416,2.300518
2025-12-31T16:12:36.938148,7.972884,-1.789831,-0.468993,1.561371,0.222354,2.327396
2025-12-31T16:12:36.948148,8.288737,-2.201396,-0.574277,1.552819,0.362853,2.373821
2025-12-31T16:12:36.958148,8.537591,-2.857030,-0.205782,1.562592,0.397062,2.458121
2025-12-31T16:12:36.967148,9.140582,-3.402593,0.000000,1.569923,0.376292,2.547307
2025-12-31T16:12:36.977148,9.982855,-3.957728,-0.090927,1.555262,0.345749,2.624276
2025-12-31T16:12:36.987148,11.112268,-4.508077,0.306281,1.516167,0.301767,2.733010
2025-12-31T16:12:36.996148,12.461820,-4.895715,1.292124,1.433089,0.244346,2.857626
2025-12-31T16:12:37.006148,13.911870,-5.010570,1.895115,1.301142,0.274889,2.963917
2025-12-31T16:12:37.015148,15.103496,-5.015356,2.249253,1.196073,0.469144,3.060434
2025-12-31T16:12:37.025148,15.759129,-4.910071,3.034099,1.106887,0.797789,3.134959
2025-12-31T16:12:37.035148,15.917055,-4.948357,3.062812,0.972497,1.172861,3.221702
2025-12-31T16:12:37.044148,15.610774,-5.283352,2.569891,0.801455,1.495397,3.385414
2025-12-31T16:12:37.054148,15.160923,-6.135197,2.263610,0.566882,1.674992,3.567452
2025-12-31T16:12:37.063148,14.811571,-7.144968,1.942971,0.331088,1.753182,3.677407
2025-12-31T16:12:37.073148,14.505290,-8.145168,1.828116,0.183259,1.778839,3.711616
2025-12-31T16:12:37.083148,14.122438,-9.040083,2.239681,0.096516,1.756848,3.705507
2025-12-31T16:12:37.092148,13.945370,-9.671788,2.852244,0.108733,1.729969,3.648086
2025-12-31T16:12:37.102148,13.605589,-9.748359,2.876172,0.259006,1.714087,3.593108
2025-12-31T16:12:37.112148,13.198809,-9.446863,3.125026,0.448374,1.715309,3.579669
2025-12-31T16:12:37.121148,12.720244,-9.188438,3.512663,0.552222,1.731191,3.562565
2025-12-31T16:12:37.131148,12.107682,-9.394221,3.684946,0.572991,1.765400,3.543017
2025-12-31T16:12:37.140148,11.279765,-9.528219,3.416950,0.598647,1.803273,3.541795
2025-12-31T16:12:37.150148,10.413563,-9.528219,3.129811,0.620638,1.761734,3.519804
2025-12-31T16:12:37.160148,9.853643,-9.389435,3.235096,0.603534,1.595579,3.502700
2025-12-31T16:12:37.169148,9.652646,-8.480163,3.550948,0.532674,1.364672,3.478265
2025-12-31T16:12:37.179148,9.236295,-7.671389,3.359522,0.337197,1.298699,3.376862
2025-12-31T16:12:37.188148,8.413164,-8.078169,2.928814,0.024434,1.282816,3.227811
2025-12-31T16:12:37.198148,7.240681,-8.896514,2.823530,-0.157603,1.189965,3.119077
2025-12-31T16:12:37.208148,7.168896,-11.059626,2.991028,-0.422718,0.866206,2.917491
2025-12-31T16:12:37.217148,7.671389,-14.132010,4.244867,-0.554665,0.546113,2.621833
2025-12-31T16:12:37.227148,9.413364,-17.663816,5.077569,-0.452040,0.161268,2.447125
2025-12-31T16:12:37.237148,11.901899,-20.367704,6.369693,-0.160046,-0.105068,2.357939
2025-12-31T16:12:37.246148,14.294722,-22.186251,6.168696,0.199142,-0.156381,2.212553
2025-12-31T16:12:37.256148,15.797414,-22.985453,5.168496,0.568104,0.091629,2.041511
2025-12-31T16:12:37.265148,15.653845,-23.392233,5.426921,0.950506,0.554665,1.914451
2025-12-31T16:12:37.275148,13.988440,-22.401606,6.551548,1.160643,0.954171,1.743409
2025-12-31T16:12:37.285148,11.638689,-20.673986,6.848258,0.957836,1.050687,1.467297
2025-12-31T16:12:37.294148,9.667003,-19.314863,7.379464,0.373849,0.784350,1.142317
2025-12-31T16:12:37.304148,8.772087,-18.563517,7.475177,-0.274889,0.361632,0.726929
2025-12-31T16:12:37.313148,8.910871,-18.080168,6.819544,-0.768468,0.020769,0.326201
2025-12-31T16:12:37.323148,8.882157,-17.802601,6.044269,-1.084896,-0.048869,0.012217
2025-12-31T16:12:37.333148,7.714460,-17.443676,5.474778,-1.070235,0.067195,-0.227241
2025-12-31T16:12:37.342148,6.025127,-16.486547,5.326423,-0.863763,0.097738,-0.423940
2025-12-31T16:12:37.352148,4.522434,-15.304493,5.101497,-0.632856,-0.037873,-0.618195
2025-12-31T16:12:37.362148,3.321237,-14.175081,5.024927,-0.410501,-0.321315,-0.806341
2025-12-31T16:12:37.371148,2.617747,-12.969098,4.847858,-0.211359,-0.691499,-1.006705
2025-12-31T16:12:37.381148,2.589034,-11.801401,4.493720,-0.042760,-1.103222,-1.215621
2025-12-31T16:12:37.390148,3.220739,-10.542776,4.321437,0.083077,-1.508836,-1.437976
2025-12-31T16:12:37.400148,4.661218,-9.671788,4.201796,0.056199,-1.868025,-1.643227
2025-12-31T16:12:37.410148,6.403193,-9.212367,4.058227,-0.009773,-2.091602,-1.859473
2025-12-31T16:12:37.419148,7.896314,-8.628518,3.684946,-0.019547,-2.120923,-2.070832
2025-12-31T16:12:37.429148,8.762516,-8.020741,3.019742,-0.013439,-1.977981,-2.243096
2025-12-31T16:12:37.438148,8.973084,-7.838886,2.373680,-0.034208,-1.744630,-2.388482
2025-12-31T16:12:37.448148,8.681160,-7.905885,1.966900,-0.042760,-1.475850,-2.533868
2025-12-31T16:12:37.458148,7.896314,-7.853243,1.617548,0.039095,-1.229060,-2.684141
2025-12-31T16:12:37.467148,6.699903,-7.465606,1.220339,0.193033,-1.071457,-2.818531
2025-12-31T16:12:37.477148,5.522634,-6.728617,0.875773,0.388510,-1.047022,-2.960252
2025-12-31T16:12:37.487148,4.498506,-5.627918,0.914058,0.588873,-1.159421,-3.122742
2025-12-31T16:12:37.496148,4.197010,-4.622933,1.091127,0.646295,-1.413541,-3.254689
2025-12-31T16:12:37.506148,4.651647,-4.115654,1.574477,0.521678,-1.738522,-3.386636
2025-12-31T16:12:37.515148,5.690132,-3.761517,1.607976,0.348193,-2.015854,-3.546682
2025-12-31T16:12:37.525148,7.393821,-4.632504,1.775474,0.061086,-2.241874,-3.606547
2025-12-31T16:12:37.535148,9.413364,-6.470192,2.344966,-0.228463,-2.378708,-3.632203
2025-12-31T16:12:37.544148,11.351550,-7.762316,2.459821,-0.283441,-2.299296,-3.681073
2025-12-31T16:12:37.554148,12.093325,-7.666603,1.584048,-0.054977,-1.946216,-3.711616
2025-12-31T16:12:37.563148,11.399406,-6.565905,0.641276,0.285884,-1.481958,-3.693290
2025-12-31T16:12:37.573148,9.882357,-5.154139,0.334995,0.559552,-1.128878,-3.657860
2025-12-31T16:12:37.583148,8.207381,-3.909872,0.315852,0.685390,-0.998153,-3.638312
2025-12-31T16:12:37.592148,7.030112,-3.125026,0.689132,0.697607,-1.141096,-3.671299
2025-12-31T16:12:37.602148,6.680760,-2.450250,0.818345,0.579100,-1.478293,-3.753155
2025-12-31T16:12:37.612148,7.360322,-2.081755,0.607776,0.382401,-1.882686,-3.861889
2025-12-31T16:12:37.621148,8.604590,-1.426122,0.473778,0.195476,-2.191784,-3.969401
2025-12-31T16:12:37.631148,9.963713,-0.392422,0.421136,-0.068416,-2.339613,-4.042705
2025-12-31T16:12:37.640148,10.939984,0.464207,0.177068,-0.459370,-2.339613,-4.037818
2025-12-31T16:12:37.650148,11.447263,1.033699,-0.090927,-0.954171,-2.250427,-3.954740
2025-12-31T16:12:37.660148,11.662617,1.445264,-0.330209,-1.485623,-2.128254,-3.855780
2025-12-31T16:12:37.669148,11.734402,1.138983,-0.736989,-2.075719,-2.045176,-3.760485
2025-12-31T16:12:37.679148,11.815757,0.334995,-0.732203,-2.535090,-1.964542,-3.672521
2025-12-31T16:12:37.688148,11.691331,-0.291924,-0.842273,-2.840522,-1.843590,-3.544239
2025-12-31T16:12:37.698148,11.490334,-0.856630,-0.942772,-3.075094,-1.745852,-3.403740
2025-12-31T16:12:37.708148,11.150553,-1.359123,-0.334995,-3.207041,-1.650557,-3.255911
2025-12-31T16:12:37.717148,10.968698,-1.617548,0.148355,-3.304780,-1.492954,-3.136181
2025-12-31T16:12:37.727148,11.361121,-2.522035,0.287138,-3.320662,-1.424537,-2.988352
2025-12-31T16:12:37.737148,11.566904,-3.340380,1.052841,-3.205820,-1.155756,-2.811201
2025-12-31T16:12:37.746148,11.126625,-3.905086,0.957129,-2.961474,-0.676838,-2.613280
2025-12-31T16:12:37.756148,9.839286,-3.876372,0.583848,-2.615724,-0.166155,-2.387260
2025-12-31T16:12:37.765148,8.116454,-3.589233,0.320638,-2.315178,0.208915,-2.164905
2025-12-31T16:12:37.775148,6.451049,-3.345165,-0.023928,-2.102597,0.425162,-1.952324
2025-12-31T16:12:37.785148,4.819144,-2.957528,-0.320638,-1.929112,0.540004,-1.734856
2025-12-31T16:12:37.794148,3.493520,-2.502892,-0.430708,-1.844812,0.547335,-1.495397
2025-12-31T16:12:37.804148,2.469392,-2.378465,-0.488135,-1.850921,0.452040,-1.271821
2025-12-31T16:12:37.813148,1.923829,-2.435893,-0.349352,-1.871690,0.278554,-1.097113
2025-12-31T16:12:37.823148,1.761117,-2.488535,-0.086141,-1.887573,0.078190,-0.943175
2025-12-31T16:12:37.833148,1.914258,-2.699103,0.157926,-1.898568,-0.111177,-0.769690
2025-12-31T16:12:37.842148,2.210968,-2.871387,0.401994,-1.868025,-0.254119,-0.607199
2025-12-31T16:12:37.852148,2.732603,-2.866601,0.693918,-1.802052,-0.318871,-0.459370
2025-12-31T16:12:37.862148,2.995813,-2.770888,1.028913,-1.736078,-0.291993,-0.315206
2025-12-31T16:12:37.871148,3.144168,-2.794816,1.201196,-1.707978,-0.185702,-0.180816
2025-12-31T16:12:37.881148,3.010170,-3.058027,1.134197,-1.667661,-0.050090,-0.068416
2025-12-31T16:12:37.890148,2.718246,-3.278166,0.990628,-1.584584,0.064751,0.020769
2025-12-31T16:12:37.900148,2.445464,-3.460021,0.784845,-1.459967,0.123394,0.086742
2025-12-31T16:12:37.910148,2.230110,-3.622733,0.617348,-1.262047,0.130725,0.120951
2025-12-31T16:12:37.919148,2.201396,-3.560520,0.459421,-1.011592,0.080634,0.136833
2025-12-31T16:12:37.929148,2.426322,-3.436093,0.215354,-0.755029,-0.001221,0.153938
2025-12-31T16:12:37.938148,2.962314,-3.019742,-0.066999,-0.499687,-0.085521,0.147829
2025-12-31T16:12:37.948148,3.421736,-2.483749,-0.047856,-0.255341,-0.140498,0.103847
2025-12-31T16:12:37.958148,3.972085,-2.124826,-0.023928,-0.073303,-0.195476,0.026878
2025-12-31T16:12:37.967148,4.670789,-2.110469,-0.019142,0.052534,-0.282219,-0.083077
2025-12-31T16:12:37.977148,5.781059,-2.297109,-0.129212,0.141720,-0.423940,-0.228463
2025-12-31T16:12:37.987148,7.240681,-2.684746,-0.224925,0.243124,-0.609643,-0.405614
2025-12-31T16:12:37.996148,9.207581,-2.943171,-0.267996,0.381179,-0.799011,-0.602312
2025-12-31T16:12:38.006148,11.452048,-2.991028,-0.449850,0.543669,-0.911410,-0.775798
2025-12-31T16:12:38.015148,13.481162,-2.565105,-1.091127,0.697607,-0.858876,-0.871093
2025-12-31T16:12:38.025148,14.983855,-2.096112,-1.737189,0.817337,-0.618195,-0.895528
2025-12-31T16:12:38.035148,15.548561,-1.430907,-1.947757,0.862541,-0.233350,-0.845437
2025-12-31T16:12:38.044148,14.739787,-0.832702,-1.775474,0.797789,0.256563,-0.720820
2025-12-31T16:12:38.054148,12.528819,-0.794417,-1.249053,0.636521,0.725707,-0.522900
2025-12-31T16:12:38.063148,9.667003,-0.985842,-0.564706,0.481361,1.038470,-0.300545
2025-12-31T16:12:38.073148,6.896114,-1.368694,0.200997,0.362853,1.158200,-0.072082
2025-12-31T16:12:38.083148,4.527220,-1.770688,0.937986,0.289550,1.138652,0.136833
2025-12-31T16:12:38.092148,2.684746,-2.230110,1.473978,0.302989,1.036027,0.340862
2025-12-31T16:12:38.102148,1.392622,-2.402393,1.689332,0.384845,0.877202,0.543669
2025-12-31T16:12:38.112148,0.464207,-2.244467,1.416550,0.461814,0.678060,0.746477
2025-12-31T16:12:38.121148,0.081355,-1.990828,1.124626,0.494800,0.488692,0.941954
2025-12-31T16:12:38.131148,-0.033499,-1.852044,0.990628,0.482583,0.364075,1.134987
2025-12-31T16:12:38.140148,0.023928,-1.832902,0.914058,0.449596,0.323758,1.306029
2025-12-31T16:12:38.150148,0.148355,-2.057827,0.717846,0.410501,0.345749,1.445306
2025-12-31T16:12:38.160148,0.488135,-2.545963,0.301495,0.414166,0.365297,1.539380
2025-12-31T16:12:38.169148,0.923629,-2.952743,0.014356,0.541226,0.317649,1.595579
2025-12-31T16:12:38.179148,1.756331,-2.924029,0.004785,0.734259,0.205250,1.638340
2025-12-31T16:12:38.188148,2.866601,-2.459821,-0.033499,0.926071,0.145385,1.667661
2025-12-31T16:12:38.198148,3.766302,-1.923829,-0.110069,1.083674,0.179594,1.673770
2025-12-31T16:12:38.208148,4.302295,-1.301695,-0.014356,1.159421,0.246789,1.682322
2025-12-31T16:12:38.217148,4.637290,-0.847059,0.033499,1.128878,0.317649,1.703091
2025-12-31T16:12:38.227148,4.852644,-0.607776,-0.019142,0.996931,0.381179,1.732413
2025-12-31T16:12:38.237148,4.838287,-0.641276,0.129212,0.819780,0.399505,1.769065
2025-12-31T16:12:38.246148,5.015356,-0.818345,0.459421,0.630412,0.360410,1.813047
2025-12-31T16:12:38.256148,5.364708,-1.220339,0.760917,0.470366,0.305432,1.863138
2025-12-31T16:12:38.265148,5.967699,-1.842473,1.014556,0.372627,0.299323,1.931555
2025-12-31T16:12:38.275148,6.489334,-2.397608,1.177268,0.381179,0.367740,2.018298
2025-12-31T16:12:38.285148,6.781259,-2.732603,1.215553,0.507018,0.480139,2.095267
2025-12-31T16:12:38.294148,6.896114,-2.986242,1.722832,0.719599,0.570548,2.174679
2025-12-31T16:12:38.304148,7.259823,-3.273381,2.057827,0.941954,0.602312,2.279748
2025-12-31T16:12:38.313148,7.834101,-3.627519,2.282752,1.189965,0.612086,2.384817
2025-12-31T16:12:38.323148,8.666803,-3.905086,2.258824,1.403768,0.630412,2.498438
2025-12-31T16:12:38.333148,9.547362,-3.962514,1.866401,1.560149,0.692721,2.621833
2025-12-31T16:12:38.342148,10.150353,-3.680161,1.153340,1.613905,0.805120,2.758666
2025-12-31T16:12:38.352148,10.528419,-3.340380,0.272781,1.549153,0.901636,2.902831
2025-12-31T16:12:38.362148,10.782058,-3.326023,-0.526420,1.433089,0.904080,3.061655
2025-12-31T16:12:38.371148,11.413763,-3.622733,-0.650847,1.312138,0.807563,3.165503
2025-12-31T16:12:38.381148,12.519247,-4.345365,0.033499,1.293812,0.731816,3.174055
2025-12-31T16:12:38.390148,13.820943,-4.957928,1.172483,1.285260,0.766024,3.277902
2025-12-31T16:12:38.400148,14.849857,-5.742774,2.172682,1.214399,0.928514,3.501478
2025-12-31T16:12:38.410148,15.333207,-6.575476,2.732603,1.112996,1.205847,3.695733
2025-12-31T16:12:38.419148,15.117853,-6.977470,2.818745,1.054353,1.508836,3.820350
2025-12-31T16:12:38.429148,14.581860,-7.054041,3.120240,0.990823,1.712865,3.915645
2025-12-31T16:12:38.438148,13.883156,-7.101897,2.751745,0.894306,1.793499,3.985283
2025-12-31T16:12:38.448148,13.351950,-7.345965,1.899901,0.834441,1.814269,4.019492
2025-12-31T16:12:38.458148,13.002598,-7.977670,1.502692,0.806341,1.780060,4.046370
2025-12-31T16:12:38.467148,13.026526,-8.815158,1.550549,0.756251,1.660331,4.073248
2025-12-31T16:12:38.477148,13.232308,-9.738787,1.426122,0.758694,1.550375,4.078135
2025-12-31T16:12:38.487148,13.385449,-10.202995,1.560120,0.927293,1.536936,4.029266
2025-12-31T16:12:38.496148,13.227523,-9.920642,2.210968,1.208291,1.604131,3.937636
2025-12-31T16:12:38.506148,12.906885,-9.279366,2.622533,1.473406,1.694539,3.811798
2025-12-31T16:12:38.515148,12.423534,-8.628518,3.067598,1.629788,1.766621,3.685960
2025-12-31T16:12:38.525148,11.944970,-8.054240,3.651447,1.646892,1.773952,3.560121
2025-12-31T16:12:38.535148,11.337193,-7.068397,4.364508,1.616349,1.745852,3.426953
2025-12-31T16:12:38.544148,10.973484,-6.010770,4.354937,1.352455,1.672548,3.331658
2025-12-31T16:12:38.554148,10.925627,-6.417550,4.058227,0.853989,1.674992,3.247358
2025-12-31T16:12:38.563148,10.384850,-7.590033,3.842873,0.480139,1.738522,3.155729
2025-12-31T16:12:38.573148,9.643075,-8.925228,3.617947,0.254119,1.770287,3.094642
2025-12-31T16:12:38.583148,8.843872,-10.246066,3.531806,0.118507,1.710422,2.944369
2025-12-31T16:12:38.592148,7.872386,-11.385049,4.642075,0.107512,1.621236,2.746449
2025-12-31T16:12:38.602148,7.278966,-12.792029,6.015556,0.087964,1.469741,2.665815
2025-12-31T16:12:38.612148,6.340979,-14.208580,6.714260,0.268780,1.282816,2.552194
2025-12-31T16:12:38.621148,5.871986,-14.864213,7.561319,0.524122,0.894306,2.216218
2025-12-31T16:12:38.631148,6.647261,-13.356735,7.934599,0.983492,0.367740,2.052506
2025-12-31T16:12:38.640148,7.968099,-10.734202,8.130811,0.857654,-0.047647,2.084271
2025-12-31T16:12:38.650148,9.346365,-11.097911,7.427321,0.021991,-0.267558,2.037846
2025-12-31T16:12:38.660148,10.322636,-12.959527,7.479963,-0.678060,-0.233350,1.929112
2025-12-31T16:12:38.669148,10.332207,-15.046068,8.001598,-1.094670,-0.026878,1.788613
2025-12-31T16:12:38.679148,9.810572,-17.391033,7.135396,-1.390328,0.118507,1.533271
2025-12-31T16:12:38.688148,9.360722,-19.554146,6.307480,-1.425759,0.084299,1.134987
2025-12-31T16:12:38.698148,9.221938,-21.008982,5.953342,-1.187521,-0.052534,0.652403
2025-12-31T16:12:38.708148,9.193224,-21.439690,5.532205,-0.616973,-0.149051,0.168598
2025-12-31T16:12:38.717148,9.212367,-19.898712,6.001199,0.114842,-0.207694,-0.230907
2025-12-31T16:12:38.727148,9.064012,-17.194822,7.307680,0.499687,-0.312762,-0.533896
2025-12-31T16:12:38.737148,8.958727,-15.290136,7.901100,0.428827,-0.480139,-0.810007
2025-12-31T16:12:38.746148,9.025726,-14.423934,8.982656,0.298102,-0.615752,-1.054353
2025-12-31T16:12:38.756148,9.351150,-14.175081,9.600004,0.167377,-0.718377,-1.237612
2025-12-31T16:12:38.765148,10.121639,-15.309278,9.437292,0.010995,-0.763581,-1.285260
2025-12-31T16:12:38.775148,10.949556,-16.472191,9.107082,0.076969,-0.718377,-1.313359
2025-12-31T16:12:38.785148,10.839486,-17.419748,8.408378,0.377514,-0.618195,-1.373224
2025-12-31T16:12:38.794148,10.628917,-16.007982,8.417949,0.952949,-0.472809,-1.503949
2025-12-31T16:12:38.804148,9.327222,-13.983655,7.944171,1.323133,-0.195476,-1.595579
2025-12-31T16:12:38.813148,7.575676,-11.318050,6.451049,1.533271,-0.079412,-1.585805
2025-12-31T16:12:38.823148,5.790630,-8.518448,5.355136,1.480737,-0.241902,-1.552819
2025-12-31T16:12:38.833148,4.503292,-6.695117,5.163711,0.992044,-0.526565,-1.507615
2025-12-31T16:12:38.842148,3.790230,-5.618347,5.230710,0.362853,-0.897971,-1.525941
2025-12-31T16:12:38.852148,3.574876,-4.369294,4.838287,-0.299323,-1.220508,-1.523497
2025-12-31T16:12:38.862148,3.948157,-3.268595,4.101297,-1.106887,-1.470963,-1.376889
2025-12-31T16:12:38.871148,4.512863,-3.560520,3.536591,-1.973094,-1.601688,-1.318246
2025-12-31T16:12:38.881148,5.517848,-5.201996,2.062613,-2.693915,-1.671326,-1.412320
2025-12-31T16:12:38.890148,6.269195,-7.518248,1.215553,-3.032334,-1.639561,-1.525941
2025-12-31T16:12:38.900148,6.857829,-9.470791,0.875773,-2.831970,-1.485623,-1.778839
2025-12-31T16:12:38.910148,7.101897,-10.327422,1.435693,-2.072054,-1.246164,-2.185675
2025-12-31T16:12:38.919148,7.082754,-10.064211,2.833101,-1.076344,-1.038470,-2.521651
2025-12-31T16:12:38.929148,7.092326,-9.408578,4.048655,-0.074525,-0.884532,-2.702467
2025-12-31T16:12:38.938148,6.967899,-8.025527,4.331008,0.842993,-0.702494,-2.922378
2025-12-31T16:12:38.948148,6.431907,-6.044269,3.474378,1.409876,-0.508239,-3.127629
2025-12-31T16:12:38.958148,5.795416,-4.134797,2.761317,1.522275,-0.406836,-3.224146
2025-12-31T16:12:38.967148,5.182853,-2.388036,2.608176,1.343903,-0.430049,-3.319441
2025-12-31T16:12:38.977148,4.972285,-0.894915,2.187039,0.904080,-0.640186,-3.458718
2025-12-31T16:12:38.987148,5.364708,-0.655633,1.813759,0.161268,-0.962723,-3.502700
2025-12-31T16:12:38.996148,6.422335,-1.502692,1.052841,-0.529009,-1.263269,-3.507587
2025-12-31T16:12:39.006148,7.389036,-2.206182,0.306281,-0.970053,-1.404989,-3.500257
2025-12-31T16:12:39.015148,7.982456,-2.469392,-0.287138,-1.251051,-1.392772,-3.458718
2025-12-31T16:12:39.025148,8.116454,-2.684746,-0.483350,-1.486845,-1.365894,-3.387857
2025-12-31T16:12:39.035148,8.126025,-2.952743,-0.047856,-1.666440,-1.396437,-3.359758
2025-12-31T16:12:39.044148,8.207381,-3.038884,0.363709,-1.798386,-1.433089,-3.412292
2025-12-31T16:12:39.054148,8.231309,-3.168097,0.397208,-1.888794,-1.470963,-3.518583
2025-12-31T16:12:39.063148,8.317451,-2.957528,0.459421,-1.904677,-1.541823,-3.619986
2025-12-31T16:12:39.073148,8.595018,-2.402393,0.780060,-1.912007,-1.642005,-3.720168
2025-12-31T16:12:39.083148,9.083154,-1.904686,0.612562,-1.963320,-1.753182,-3.815463
2025-12-31T16:12:39.092148,9.762716,-1.359123,0.454636,-2.039067,-1.824043,-3.882658
2025-12-31T16:12:39.102148,10.308279,-1.000199,0.435493,-2.163684,-1.832595,-3.905871
2025-12-31T16:12:39.112148,10.834700,-1.086341,0.162711,-2.355495,-1.791056,-3.860667
2025-12-31T16:12:39.121148,11.289337,-1.464407,0.105284,-2.535090,-1.692096,-3.797137
2025-12-31T16:12:39.131148,11.399406,-1.957328,0.162711,-2.646267,-1.529606,-3.728720
2025-12-31T16:12:39.140148,11.260623,-2.325823,0.124426,-2.696358,-1.303586,-3.639534
2025-12-31T16:12:39.150148,10.954341,-3.019742,-0.373280,-2.679254,-1.104444,-3.522248
2025-12-31T16:12:39.160148,10.336993,-3.445664,-0.066999,-2.531425,-0.902858,-3.403740
2025-12-31T16:12:39.169148,9.489934,-3.622733,0.095712,-2.306626,-0.696386,-3.274236
2025-12-31T16:12:39.179148,8.484948,-3.316452,0.138783,-2.024406,-0.493579,-3.143511
2025-12-31T16:12:39.188148,7.412964,-3.072384,0.224925,-1.815491,-0.337197,-2.961474
2025-12-31T16:12:39.198148,6.465406,-3.230310,0.349352,-1.684765,-0.250454,-2.751336
2025-12-31T16:12:39.208148,5.881557,-3.943371,0.253639,-1.547932,-0.235793,-2.553416
2025-12-31T16:12:39.217148,5.407779,-4.579862,0.665204,-1.280373,-0.238237,-2.383595
2025-12-31T16:12:39.227148,5.249852,-4.737788,0.961914,-0.944397,-0.211359,-2.232101
2025-12-31T16:12:39.237148,4.962714,-4.565505,0.866201,-0.637743,-0.146607,-2.062280
2025-12-31T16:12:39.246148,4.575076,-4.187439,0.708275,-0.353080,-0.079412,-1.883908
2025-12-31T16:12:39.256148,4.225724,-3.469592,0.775274,-0.149051,-0.029321,-1.690874
2025-12-31T16:12:39.265148,3.909872,-3.139383,0.799202,-0.068416,0.001221,-1.495397
2025-12-31T16:12:39.275148,3.584448,-2.818745,0.847059,-0.061086,0.009773,-1.286481
2025-12-31T16:12:39.285148,3.278166,-2.713460,0.995414,-0.102625,-0.007330,-1.071457
2025-12-31T16:12:39.294148,3.077169,-2.703889,1.378265,-0.167377,-0.043982,-0.886976
2025-12-31T16:12:39.304148,3.019742,-2.828316,1.655833,-0.234572,-0.098960,-0.707381
2025-12-31T16:12:39.313148,3.297309,-2.737389,1.617548,-0.265115,-0.157603,-0.540004
2025-12-31T16:12:39.323148,3.469592,-2.364108,1.325623,-0.278554,-0.173485,-0.373849
2025-12-31T16:12:39.333148,3.680161,-1.914258,1.368694,-0.306654,-0.160046,-0.244346
2025-12-31T16:12:39.342148,3.761517,-1.670190,1.435693,-0.377514,-0.155159,-0.151494
2025-12-31T16:12:39.352148,3.919443,-1.588834,1.301695,-0.428827,-0.168598,-0.111177
2025-12-31T16:12:39.362148,4.297509,-1.483550,1.225125,-0.434935,-0.210137,-0.101403
2025-12-31T16:12:39.371148,4.833501,-1.545763,1.225125,-0.427605,-0.298102,-0.096516
2025-12-31T16:12:39.381148,5.709274,-1.612762,1.191625,-0.373849,-0.381179,-0.116064
2025-12-31T16:12:39.390148,6.613761,-1.517049,1.057627,-0.274889,-0.422718,-0.145385
2025-12-31T16:12:39.400148,7.556533,-1.560120,0.909272,-0.182037,-0.421496,-0.169820
2025-12-31T16:12:39.410148,8.384450,-1.612762,0.684347,-0.105068,-0.404392,-0.193033
2025-12-31T16:12:39.419148,9.221938,-1.751546,0.440279,-0.017104,-0.397062,-0.239459
2025-12-31T16:12:39.429148,10.183852,-1.871187,0.157926,0.086742,-0.422718,-0.307876
2025-12-31T16:12:39.438148,11.222337,-1.689332,-0.119641,0.241902,-0.452040,-0.381179
2025-12-31T16:12:39.448148,12.232109,-1.196411,-0.363709,0.378736,-0.443488,-0.409279
2025-12-31T16:12:39.458148,13.031311,-0.799202,-0.492921,0.438601,-0.372627,-0.383623
2025-12-31T16:12:39.467148,13.399806,-0.291924,-0.689132,0.433714,-0.189368,-0.328645
2025-12-31T16:12:39.477148,12.935598,-0.014356,-0.722632,0.346971,0.111177,-0.216246
2025-12-31T16:12:39.487148,11.657831,-0.076570,-0.440279,0.219911,0.434935,-0.059864
2025-12-31T16:12:39.496148,9.671788,-0.363709,-0.076570,0.145385,0.662177,0.102625
2025-12-31T16:12:39.506148,7.666603,-0.445065,0.119641,0.113620,0.726929,0.239459
2025-12-31T16:12:39.515148,5.934200,-0.626919,0.488135,0.100181,0.682947,0.353080
2025-12-31T16:12:39.525148,4.541577,-0.947557,0.732203,0.135612,0.570548,0.456927
2025-12-31T16:12:39.535148,3.689732,-1.215553,0.933200,0.241902,0.406836,0.521678
2025-12-31T16:12:39.544148,3.249453,-1.162911,1.028913,0.386066,0.226020,0.555887
2025-12-31T16:12:39.554148,3.263810,-1.129412,0.990628,0.541226,0.078190,0.574213
2025-12-31T16:12:39.563148,3.436093,-0.981057,0.933200,0.674395,-0.006108,0.588873
2025-12-31T16:12:39.573148,3.751945,-0.684347,0.727418,0.748920,-0.023212,0.596204
2025-12-31T16:12:39.583148,4.043870,-0.588634,0.430708,0.745255,-0.002443,0.620638
2025-12-31T16:12:39.592148,4.307080,-0.641276,0.282353,0.682947,0.012217,0.643851
2025-12-31T16:12:39.602148,4.508077,-0.914058,0.177068,0.586430,0.023212,0.680503
2025-12-31T16:12:39.612148,4.804787,-1.196411,0.167497,0.509461,0.023212,0.731816
2025-12-31T16:12:39.621148,5.039284,-1.579262,0.454636,0.475253,0.028099,0.819780
2025-12-31T16:12:39.631148,5.297709,-1.871187,0.823130,0.459370,0.032986,0.966388
2025-12-31T16:12:39.640148,5.541777,-1.928615,1.129412,0.458148,0.090408,1.126435
2025-12-31T16:12:39.650148,5.498706,-1.655833,1.062413,0.485026,0.252898,1.302364
2025-12-31T16:12:39.660148,4.943571,-1.253839,0.851844,0.524122,0.475253,1.495397
2025-12-31T16:12:39.669148,4.034298,-0.909272,0.818345,0.543669,0.642630,1.717752
2025-12-31T16:12:39.679148,3.349951,-0.899701,0.808774,0.530230,0.686612,1.953546
2025-12-31T16:12:39.688148,2.904886,-1.148554,0.698704,0.488692,0.651182,2.175901
