Timestamp,Acceleration_X,Acceleration_Y,Acceleration_Z,Gyro_X,Gyro_Y,Gyro_Z
2025-12-31T15:23:20.861221,9.638289,-1.588834,0.861416,-0.045204,-0.017104,0.006108
2025-12-31T15:23:20.871221,9.700502,-1.622333,0.794417,-0.031764,-0.031764,0.001221
2025-12-31T15:23:20.880221,9.781858,-1.698904,0.885344,-0.010995,-0.037873,-0.002443
2025-12-31T15:23:20.890221,9.786644,-1.732403,0.823130,0.018325,-0.037873,-0.008552
2025-12-31T15:23:20.899221,9.853643,-1.579262,0.789631,0.042760,-0.034208,-0.010995
2025-12-31T15:23:20.909221,9.872786,-1.569691,0.847059,0.052534,-0.025656,-0.006108
2025-12-31T15:23:20.919221,9.863214,-1.488335,0.866201,0.050090,-0.019547,-0.004886
2025-12-31T15:23:20.928221,9.858429,-1.406979,0.827916,0.031764,-0.010995,0.003665
2025-12-31T15:23:20.938221,9.738787,-1.464407,0.842273,0.004886,-0.012217,0.010995
2025-12-31T15:23:20.948221,9.729216,-1.507478,0.861416,-0.017104,-0.018325,0.009773
2025-12-31T15:23:20.957221,9.738787,-1.521835,0.818345,-0.031764,-0.028099,0.009773
2025-12-31T15:23:20.967221,9.738787,-1.588834,0.847059,-0.037873,-0.030543,0.009773
2025-12-31T15:23:20.976221,9.762716,-1.564905,0.890130,-0.028099,-0.032986,0.010995
2025-12-31T15:23:20.986221,9.815358,-1.564905,0.851844,-0.013439,-0.031764,0.013439
2025-12-31T15:23:20.996221,9.796215,-1.536192,0.832702,-0.001221,-0.030543,0.012217
2025-12-31T15:23:21.005221,9.801001,-1.536192,0.885344,0.006108,-0.030543,0.019547
2025-12-31T15:23:21.015221,9.911071,-1.435693,0.847059,0.002443,-0.029321,0.029321
2025-12-31T15:23:21.024221,9.810572,-1.483550,0.861416,-0.001221,-0.024434,0.032986
2025-12-31T15:23:21.034221,9.882357,-1.464407,0.847059,-0.001221,-0.024434,0.029321
2025-12-31T15:23:21.044221,9.796215,-1.469193,0.784845,0.002443,-0.021991,0.029321
2025-12-31T15:23:21.053221,9.700502,-1.459621,0.866201,0.007330,-0.020769,0.031764
2025-12-31T15:23:21.063221,9.757930,-1.435693,0.832702,0.009773,-0.021991,0.028099
2025-12-31T15:23:21.073221,9.710074,-1.459621,0.847059,0.007330,-0.026878,0.020769
2025-12-31T15:23:21.082221,9.738787,-1.373480,0.894915,-0.002443,-0.032986,0.012217
2025-12-31T15:23:21.092221,9.757930,-1.378265,0.885344,-0.010995,-0.034208,0.010995
2025-12-31T15:23:21.101221,9.743573,-1.373480,0.985842,-0.023212,-0.034208,0.009773
2025-12-31T15:23:21.111221,9.781858,-1.464407,0.909272,-0.032986,-0.040317,0.002443
2025-12-31T15:23:21.121221,9.791430,-1.502692,0.851844,-0.030543,-0.034208,0.001221
2025-12-31T15:23:21.130221,9.777073,-1.555334,0.866201,-0.017104,-0.032986,0.001221
2025-12-31T15:23:21.140221,9.796215,-1.526620,0.780060,-0.001221,-0.028099,0.003665
2025-12-31T15:23:21.149221,9.820143,-1.550549,0.870987,0.006108,-0.025656,0.006108
2025-12-31T15:23:21.159221,9.734002,-1.459621,0.890130,0.004886,-0.031764,0.004886
2025-12-31T15:23:21.169221,9.858429,-1.392622,0.808774,-0.001221,-0.040317,0.000000
2025-12-31T15:23:21.178221,9.815358,-1.421336,0.856630,-0.009773,-0.042760,-0.001221
2025-12-31T15:23:21.188221,9.887142,-1.469193,0.904486,-0.018325,-0.037873,0.007330
2025-12-31T15:23:21.198221,9.863214,-1.521835,0.937986,-0.018325,-0.025656,0.009773
2025-12-31T15:23:21.207221,9.705288,-1.526620,0.933200,-0.010995,-0.010995,0.021991
2025-12-31T15:23:21.217221,9.676574,-1.507478,0.928415,-0.009773,-0.013439,0.024434
2025-12-31T15:23:21.226221,9.757930,-1.421336,0.885344,-0.012217,-0.031764,0.023212
2025-12-31T15:23:21.236221,9.796215,-1.445264,0.851844,-0.014660,-0.047647,0.021991
2025-12-31T15:23:21.246221,9.954142,-1.454836,0.909272,-0.019547,-0.045204,0.021991
2025-12-31T15:23:21.255221,9.944570,-1.440479,0.866201,-0.025656,-0.021991,0.020769
2025-12-31T15:23:21.265221,9.815358,-1.469193,0.885344,-0.023212,0.002443,0.023212
2025-12-31T15:23:21.274221,9.734002,-1.493121,0.856630,-0.014660,0.010995,0.018325
2025-12-31T15:23:21.284221,9.652646,-1.497906,0.880558,-0.010995,-0.004886,0.015882
2025-12-31T15:23:21.294221,9.700502,-1.483550,0.904486,-0.012217,-0.031764,0.006108
2025-12-31T15:23:21.303221,9.796215,-1.497906,0.885344,-0.013439,-0.041538,0.003665
2025-12-31T15:23:21.313221,9.858429,-1.502692,0.947557,-0.012217,-0.037873,0.013439
2025-12-31T15:23:21.323221,9.810572,-1.526620,0.937986,-0.007330,-0.026878,0.021991
2025-12-31T15:23:21.332221,9.762716,-1.512263,0.899701,-0.008552,-0.012217,0.028099
2025-12-31T15:23:21.342221,9.796215,-1.483550,0.885344,-0.009773,-0.006108,0.026878
2025-12-31T15:23:21.351221,9.714859,-1.564905,0.870987,-0.008552,-0.004886,0.029321
2025-12-31T15:23:21.361221,9.710074,-1.497906,0.890130,-0.002443,-0.006108,0.030543
2025-12-31T15:23:21.371221,9.710074,-1.440479,0.885344,0.000000,-0.004886,0.025656
2025-12-31T15:23:21.380221,9.738787,-1.406979,0.914058,-0.007330,-0.010995,0.023212
2025-12-31T15:23:21.390221,9.676574,-1.459621,0.885344,-0.024434,-0.010995,0.020769
2025-12-31T15:23:21.399221,9.724431,-1.450050,0.914058,-0.045204,-0.019547,0.014660
2025-12-31T15:23:21.409221,9.757930,-1.464407,0.813559,-0.063529,-0.028099,0.013439
2025-12-31T15:23:21.419221,9.810572,-1.531406,0.832702,-0.068416,-0.028099,0.014660
2025-12-31T15:23:21.428221,9.801001,-1.584048,0.784845,-0.058643,-0.028099,0.015882
2025-12-31T15:23:21.438221,9.805787,-1.622333,0.760917,-0.039095,-0.023212,0.018325
2025-12-31T15:23:21.448221,9.805787,-1.607976,0.789631,-0.019547,-0.018325,0.024434
2025-12-31T15:23:21.457221,9.820143,-1.674975,0.794417,0.001221,-0.025656,0.023212
2025-12-31T15:23:21.467221,9.777073,-1.612762,0.765703,0.024434,-0.024434,0.025656
2025-12-31T15:23:21.476221,9.767501,-1.521835,0.780060,0.037873,-0.020769,0.020769
2025-12-31T15:23:21.486221,9.734002,-1.473978,0.813559,0.036651,-0.020769,0.015882
2025-12-31T15:23:21.496221,9.757930,-1.373480,0.842273,0.025656,-0.029321,0.014660
2025-12-31T15:23:21.505221,9.777073,-1.344766,0.885344,0.000000,-0.037873,0.019547
2025-12-31T15:23:21.515221,9.796215,-1.406979,0.842273,-0.031764,-0.043982,0.018325
2025-12-31T15:23:21.524221,9.767501,-1.493121,0.842273,-0.050090,-0.042760,0.015882
2025-12-31T15:23:21.534221,9.748359,-1.607976,0.780060,-0.046425,-0.041538,0.018325
2025-12-31T15:23:21.544221,9.724431,-1.646261,0.780060,-0.035430,-0.042760,0.019547
2025-12-31T15:23:21.553221,9.729216,-1.694118,0.794417,-0.010995,-0.045204,0.023212
2025-12-31T15:23:21.563221,9.772287,-1.670190,0.736989,0.017104,-0.056199,0.015882
2025-12-31T15:23:21.573221,9.801001,-1.627119,0.894915,0.042760,-0.059864,0.009773
2025-12-31T15:23:21.582221,9.829715,-1.569691,0.847059,0.058643,-0.056199,0.010995
2025-12-31T15:23:21.592221,9.848857,-1.483550,0.842273,0.068416,-0.048869,0.009773
2025-12-31T15:23:21.601221,9.834500,-1.464407,0.837487,0.064751,-0.036651,0.010995
2025-12-31T15:23:21.611221,9.767501,-1.402194,0.933200,0.043982,-0.037873,0.014660
2025-12-31T15:23:21.621221,9.743573,-1.397408,0.961914,0.015882,-0.043982,0.010995
2025-12-31T15:23:21.630221,9.824929,-1.459621,0.832702,-0.009773,-0.046425,0.017104
2025-12-31T15:23:21.640221,9.781858,-1.502692,0.866201,-0.024434,-0.051312,0.017104
2025-12-31T15:23:21.649221,9.901499,-1.540977,0.847059,-0.029321,-0.050090,0.023212
2025-12-31T15:23:21.659221,9.805787,-1.627119,0.894915,-0.034208,-0.047647,0.023212
2025-12-31T15:23:21.669221,9.824929,-1.607976,0.870987,-0.026878,-0.040317,0.025656
2025-12-31T15:23:21.678221,9.767501,-1.646261,0.770488,-0.003665,-0.042760,0.024434
2025-12-31T15:23:21.688221,9.786644,-1.660618,0.880558,0.028099,-0.041538,0.020769
2025-12-31T15:23:21.698221,9.796215,-1.655833,0.851844,0.053756,-0.043982,0.019547
2025-12-31T15:23:21.707221,9.872786,-1.521835,0.880558,0.068416,-0.041538,0.023212
2025-12-31T15:23:21.717221,9.839286,-1.469193,0.957129,0.067195,-0.040317,0.025656
2025-12-31T15:23:21.726221,9.853643,-1.426122,0.904486,0.054977,-0.034208,0.026878
2025-12-31T15:23:21.736221,9.810572,-1.387837,0.966700,0.032986,-0.028099,0.030543
2025-12-31T15:23:21.746221,9.777073,-1.464407,0.928415,0.009773,-0.028099,0.037873
2025-12-31T15:23:21.755221,9.786644,-1.483550,0.914058,-0.004886,-0.024434,0.045204
2025-12-31T15:23:21.765221,9.767501,-1.526620,0.894915,-0.009773,-0.021991,0.051312
2025-12-31T15:23:21.774221,9.772287,-1.536192,0.918843,-0.012217,-0.018325,0.051312
2025-12-31T15:23:21.784221,9.719645,-1.560120,0.842273,-0.004886,-0.020769,0.053756
2025-12-31T15:23:21.794221,9.805787,-1.569691,0.894915,0.001221,-0.019547,0.056199
2025-12-31T15:23:21.803221,9.858429,-1.526620,0.937986,0.012217,-0.020769,0.053756
2025-12-31T15:23:21.813221,9.887142,-1.502692,0.894915,0.026878,-0.014660,0.054977
2025-12-31T15:23:21.823221,9.896714,-1.521835,0.851844,0.039095,-0.007330,0.053756
2025-12-31T15:23:21.832221,9.882357,-1.440479,0.851844,0.046425,-0.001221,0.058643
2025-12-31T15:23:21.842221,9.829715,-1.450050,0.861416,0.039095,-0.006108,0.057421
2025-12-31T15:23:21.851221,9.839286,-1.411765,0.813559,0.030543,-0.008552,0.056199
2025-12-31T15:23:21.861221,9.844072,-1.416550,0.870987,0.028099,-0.010995,0.050090
2025-12-31T15:23:21.871221,9.762716,-1.450050,0.861416,0.028099,-0.008552,0.045204
2025-12-31T15:23:21.880221,9.791430,-1.450050,0.890130,0.034208,-0.004886,0.040317
2025-12-31T15:23:21.890221,9.791430,-1.469193,0.799202,0.041538,-0.008552,0.036651
2025-12-31T15:23:21.899221,9.896714,-1.450050,0.832702,0.047647,-0.020769,0.028099
2025-12-31T15:23:21.909221,9.997212,-1.354337,0.808774,0.040317,-0.028099,0.025656
2025-12-31T15:23:21.919221,10.045069,-1.363908,0.832702,0.028099,-0.018325,0.021991
2025-12-31T15:23:21.928221,9.911071,-1.454836,0.885344,0.015882,0.004886,0.028099
2025-12-31T15:23:21.938221,9.844072,-1.435693,0.808774,0.010995,0.021991,0.031764
2025-12-31T15:23:21.948221,9.729216,-1.512263,0.823130,0.014660,0.018325,0.026878
2025-12-31T15:23:21.957221,9.662217,-1.464407,0.832702,0.018325,0.003665,0.020769
2025-12-31T15:23:21.967221,9.681360,-1.454836,0.827916,0.019547,-0.013439,0.013439
2025-12-31T15:23:21.976221,9.724431,-1.478764,0.937986,0.015882,-0.024434,0.002443
2025-12-31T15:23:21.986221,9.815358,-1.430907,0.803988,0.004886,-0.024434,0.004886
2025-12-31T15:23:21.996221,9.738787,-1.507478,0.818345,-0.002443,-0.010995,0.006108
2025-12-31T15:23:22.005221,9.719645,-1.540977,0.880558,0.000000,-0.002443,0.001221
2025-12-31T15:23:22.015221,9.609575,-1.555334,0.780060,0.006108,-0.001221,-0.001221
2025-12-31T15:23:22.024221,9.700502,-1.555334,0.827916,0.014660,-0.012217,0.000000
2025-12-31T15:23:22.034221,9.724431,-1.440479,0.813559,0.020769,-0.025656,0.000000
2025-12-31T15:23:22.044221,9.781858,-1.445264,0.847059,0.012217,-0.029321,-0.001221
2025-12-31T15:23:22.053221,9.786644,-1.373480,0.880558,-0.003665,-0.017104,0.006108
2025-12-31T15:23:22.063221,9.815358,-1.359123,0.842273,-0.030543,-0.006108,0.010995
2025-12-31T15:23:22.073221,9.772287,-1.406979,0.756131,-0.057421,-0.010995,0.004886
2025-12-31T15:23:22.082221,9.772287,-1.512263,0.736989,-0.072082,-0.026878,-0.004886
2025-12-31T15:23:22.092221,9.743573,-1.607976,0.770488,-0.058643,-0.042760,-0.008552
2025-12-31T15:23:22.101221,9.853643,-1.674975,0.794417,-0.034208,-0.043982,-0.015882
2025-12-31T15:23:22.111221,9.896714,-1.631905,0.799202,-0.004886,-0.032986,-0.014660
2025-12-31T15:23:22.121221,9.824929,-1.598405,0.827916,0.021991,-0.021991,-0.009773
2025-12-31T15:23:22.130221,9.796215,-1.488335,0.760917,0.037873,-0.010995,-0.001221
2025-12-31T15:23:22.140221,9.719645,-1.411765,0.794417,0.032986,-0.010995,-0.004886
2025-12-31T15:23:22.149221,9.662217,-1.344766,0.870987,0.015882,-0.013439,0.003665
2025-12-31T15:23:22.159221,9.590432,-1.378265,0.775274,-0.006108,-0.025656,-0.003665
2025-12-31T15:23:22.169221,9.686145,-1.373480,0.866201,-0.026878,-0.040317,-0.012217
2025-12-31T15:23:22.178221,9.676574,-1.421336,0.899701,-0.048869,-0.050090,-0.015882
2025-12-31T15:23:22.188221,9.820143,-1.483550,0.794417,-0.061086,-0.054977,-0.023212
2025-12-31T15:23:22.198221,9.829715,-1.502692,0.818345,-0.058643,-0.053756,-0.035430
2025-12-31T15:23:22.207221,9.882357,-1.631905,0.808774,-0.042760,-0.045204,-0.036651
2025-12-31T15:23:22.217221,9.848857,-1.593619,0.861416,-0.023212,-0.042760,-0.039095
2025-12-31T15:23:22.226221,9.844072,-1.588834,0.866201,-0.006108,-0.046425,-0.041538
2025-12-31T15:23:22.236221,9.786644,-1.493121,0.918843,0.002443,-0.043982,-0.039095
2025-12-31T15:23:22.246221,9.781858,-1.526620,0.875773,-0.003665,-0.045204,-0.034208
2025-12-31T15:23:22.255221,9.777073,-1.483550,0.918843,-0.007330,-0.046425,-0.032986
2025-12-31T15:23:22.265221,9.786644,-1.521835,0.918843,-0.002443,-0.050090,-0.029321
2025-12-31T15:23:22.274221,9.772287,-1.579262,0.957129,0.001221,-0.054977,-0.030543
2025-12-31T15:23:22.284221,9.868000,-1.627119,0.928415,0.006108,-0.058643,-0.041538
2025-12-31T15:23:22.294221,9.891928,-1.569691,0.942772,0.009773,-0.052534,-0.043982
2025-12-31T15:23:22.303221,9.915856,-1.517049,0.899701,0.013439,-0.045204,-0.041538
2025-12-31T15:23:22.313221,9.925428,-1.540977,0.918843,0.009773,-0.040317,-0.037873
2025-12-31T15:23:22.323221,9.906285,-1.564905,1.000199,0.003665,-0.042760,-0.036651
2025-12-31T15:23:22.332221,9.872786,-1.526620,0.981057,-0.006108,-0.042760,-0.026878
2025-12-31T15:23:22.342221,9.853643,-1.569691,0.971485,-0.012217,-0.040317,-0.019547
2025-12-31T15:23:22.351221,9.801001,-1.588834,1.000199,-0.008552,-0.039095,-0.017104
2025-12-31T15:23:22.361221,9.767501,-1.612762,0.990628,-0.004886,-0.039095,-0.012217
2025-12-31T15:23:22.371221,9.810572,-1.698904,0.966700,0.009773,-0.039095,-0.013439
2025-12-31T15:23:22.380221,9.829715,-1.689332,0.918843,0.031764,-0.032986,-0.012217
2025-12-31T15:23:22.390221,9.781858,-1.622333,0.923629,0.056199,-0.031764,-0.014660
2025-12-31T15:23:22.399221,9.829715,-1.631905,0.942772,0.074525,-0.028099,-0.019547
2025-12-31T15:23:22.409221,9.772287,-1.521835,0.976271,0.084299,-0.023212,-0.018325
2025-12-31T15:23:22.419221,9.810572,-1.464407,0.995414,0.079412,-0.018325,-0.014660
2025-12-31T15:23:22.428221,9.796215,-1.454836,0.947557,0.063529,-0.018325,-0.013439
2025-12-31T15:23:22.438221,9.815358,-1.373480,0.947557,0.034208,-0.023212,-0.015882
2025-12-31T15:23:22.448221,9.820143,-1.450050,1.014556,0.012217,-0.023212,-0.009773
2025-12-31T15:23:22.457221,9.820143,-1.512263,0.914058,0.007330,-0.024434,-0.003665
2025-12-31T15:23:22.467221,9.824929,-1.627119,0.937986,0.018325,-0.018325,0.000000
2025-12-31T15:23:22.476221,9.786644,-1.574477,0.842273,0.032986,-0.015882,0.004886
2025-12-31T15:23:22.486221,9.786644,-1.493121,0.885344,0.051312,-0.009773,0.007330
2025-12-31T15:23:22.496221,9.767501,-1.440479,0.904486,0.058643,-0.014660,0.002443
2025-12-31T15:23:22.505221,9.801001,-1.406979,0.832702,0.053756,-0.019547,0.004886
2025-12-31T15:23:22.515221,9.853643,-1.402194,0.947557,0.048869,-0.021991,0.003665
2025-12-31T15:23:22.524221,9.863214,-1.344766,0.880558,0.045204,-0.018325,0.007330
2025-12-31T15:23:22.534221,9.791430,-1.368694,0.885344,0.047647,-0.006108,0.012217
2025-12-31T15:23:22.544221,9.777073,-1.373480,0.866201,0.051312,-0.003665,0.009773
2025-12-31T15:23:22.553221,9.810572,-1.277767,0.760917,0.056199,-0.007330,0.012217
2025-12-31T15:23:22.563221,9.829715,-1.239482,0.746560,0.050090,-0.028099,0.003665
2025-12-31T15:23:22.573221,9.901499,-1.277767,0.751346,0.042760,-0.036651,0.004886
2025-12-31T15:23:22.582221,9.958927,-1.263410,0.823130,0.040317,-0.028099,0.002443
2025-12-31T15:23:22.592221,9.891928,-1.225125,0.832702,0.046425,-0.008552,0.001221
2025-12-31T15:23:22.601221,9.829715,-1.258624,0.736989,0.056199,0.004886,0.002443
2025-12-31T15:23:22.611221,9.772287,-1.191625,0.775274,0.061086,-0.012217,-0.006108
2025-12-31T15:23:22.621221,9.858429,-1.177268,0.775274,0.057421,-0.039095,-0.019547
2025-12-31T15:23:22.630221,9.954142,-1.138983,0.851844,0.059864,-0.050090,-0.021991
2025-12-31T15:23:22.640221,10.016355,-1.134197,0.875773,0.052534,-0.037873,-0.018325
2025-12-31T15:23:22.649221,9.968498,-1.024128,0.923629,0.036651,-0.009773,-0.015882
2025-12-31T15:23:22.659221,9.844072,-1.076770,0.909272,0.020769,0.013439,-0.013439
2025-12-31T15:23:22.669221,9.748359,-1.038485,0.923629,-0.003665,0.014660,-0.019547
2025-12-31T15:23:22.678221,9.686145,-1.000199,0.866201,-0.018325,0.001221,-0.025656
2025-12-31T15:23:22.688221,9.623932,-1.052841,0.890130,-0.024434,-0.015882,-0.032986
2025-12-31T15:23:22.698221,9.686145,-1.115055,0.842273,-0.030543,-0.030543,-0.042760
2025-12-31T15:23:22.707221,9.772287,-1.067198,0.789631,-0.024434,-0.029321,-0.043982
2025-12-31T15:23:22.717221,9.815358,-1.115055,0.866201,-0.026878,-0.023212,-0.047647
2025-12-31T15:23:22.726221,9.753144,-1.153340,0.851844,-0.031764,-0.023212,-0.054977
2025-12-31T15:23:22.736221,9.815358,-1.143769,0.880558,-0.026878,-0.025656,-0.054977
2025-12-31T15:23:22.746221,9.882357,-1.191625,0.861416,-0.017104,-0.030543,-0.065973
2025-12-31T15:23:22.755221,9.896714,-1.138983,0.866201,-0.004886,-0.024434,-0.067195
2025-12-31T15:23:22.765221,9.887142,-1.081555,0.890130,-0.002443,-0.020769,-0.064751
2025-12-31T15:23:22.774221,9.887142,-1.024128,0.890130,-0.010995,-0.019547,-0.063529
2025-12-31T15:23:22.784221,9.939785,-1.014556,0.904486,-0.032986,-0.023212,-0.067195
2025-12-31T15:23:22.794221,9.949356,-1.071984,0.880558,-0.056199,-0.026878,-0.075747
2025-12-31T15:23:22.803221,9.930213,-1.177268,0.894915,-0.070860,-0.023212,-0.079412
2025-12-31T15:23:22.813221,9.973284,-1.191625,0.827916,-0.076969,-0.018325,-0.083077
2025-12-31T15:23:22.823221,9.920642,-1.258624,0.899701,-0.069638,-0.014660,-0.087964
2025-12-31T15:23:22.832221,9.901499,-1.263410,0.847059,-0.061086,-0.010995,-0.084299
2025-12-31T15:23:22.842221,9.772287,-1.287338,0.875773,-0.051312,-0.008552,-0.078190
2025-12-31T15:23:22.851221,9.748359,-1.253839,0.952343,-0.046425,-0.010995,-0.084299
2025-12-31T15:23:22.861221,9.820143,-1.272981,0.957129,-0.043982,-0.015882,-0.081855
2025-12-31T15:23:22.871221,9.786644,-1.277767,0.952343,-0.043982,-0.015882,-0.076969
2025-12-31T15:23:22.880221,9.805787,-1.253839,0.837487,-0.042760,-0.017104,-0.085521
2025-12-31T15:23:22.890221,9.791430,-1.277767,0.923629,-0.039095,-0.012217,-0.085521
2025-12-31T15:23:22.899221,9.815358,-1.234696,0.942772,-0.036651,-0.009773,-0.091629
2025-12-31T15:23:22.909221,9.844072,-1.320838,0.890130,-0.034208,-0.015882,-0.100181
2025-12-31T15:23:22.919221,9.834500,-1.258624,0.923629,-0.035430,-0.019547,-0.105068
2025-12-31T15:23:22.928221,9.882357,-1.292124,0.885344,-0.029321,-0.019547,-0.107512
2025-12-31T15:23:22.938221,9.934999,-1.301695,0.961914,-0.019547,-0.019547,-0.114842
2025-12-31T15:23:22.948221,9.853643,-1.292124,0.928415,-0.010995,-0.014660,-0.113620
2025-12-31T15:23:22.957221,9.887142,-1.325623,0.981057,0.004886,-0.004886,-0.112399
2025-12-31T15:23:22.967221,9.772287,-1.320838,0.923629,0.025656,0.002443,-0.113620
2025-12-31T15:23:22.976221,9.801001,-1.282552,0.923629,0.041538,0.000000,-0.111177
2025-12-31T15:23:22.986221,9.791430,-1.210768,0.942772,0.052534,-0.008552,-0.112399
2025-12-31T15:23:22.996221,9.796215,-1.172483,0.933200,0.054977,-0.023212,-0.112399
2025-12-31T15:23:23.005221,9.844072,-1.091127,0.981057,0.045204,-0.028099,-0.107512
2025-12-31T15:23:23.015221,9.973284,-1.052841,1.038485,0.040317,-0.021991,-0.101403
2025-12-31T15:23:23.024221,9.987641,-1.110269,0.971485,0.021991,-0.013439,-0.092851
2025-12-31T15:23:23.034221,9.949356,-1.239482,0.914058,0.002443,-0.006108,-0.081855
2025-12-31T15:23:23.044221,9.939785,-1.205982,0.861416,0.006108,0.001221,-0.079412
2025-12-31T15:23:23.053221,9.915856,-1.186840,0.847059,0.036651,-0.007330,-0.080634
2025-12-31T15:23:23.063221,9.949356,-1.129412,0.923629,0.061086,-0.019547,-0.089186
2025-12-31T15:23:23.073221,9.997212,-0.942772,0.861416,0.079412,-0.032986,-0.091629
2025-12-31T15:23:23.082221,10.068997,-0.856630,0.952343,0.080634,-0.024434,-0.091629
2025-12-31T15:23:23.092221,10.054640,-0.827916,0.961914,0.067195,-0.006108,-0.080634
2025-12-31T15:23:23.101221,9.882357,-0.803988,0.971485,0.048869,0.014660,-0.068416
2025-12-31T15:23:23.111221,9.772287,-0.823130,0.933200,0.036651,0.026878,-0.058643
2025-12-31T15:23:23.121221,9.600004,-0.770488,0.909272,0.034208,0.021991,-0.061086
2025-12-31T15:23:23.130221,9.513862,-0.760917,0.918843,0.036651,0.003665,-0.068416
2025-12-31T15:23:23.140221,9.547362,-0.760917,0.928415,0.043982,-0.014660,-0.079412
2025-12-31T15:23:23.149221,9.580861,-0.698704,0.870987,0.050090,-0.026878,-0.096516
2025-12-31T15:23:23.159221,9.667003,-0.636490,0.856630,0.054977,-0.034208,-0.112399
2025-12-31T15:23:23.169221,9.743573,-0.622133,0.789631,0.061086,-0.036651,-0.130725
2025-12-31T15:23:23.178221,9.872786,-0.535992,0.808774,0.064751,-0.039095,-0.153938
2025-12-31T15:23:23.188221,10.001998,-0.497707,0.813559,0.064751,-0.040317,-0.162490
2025-12-31T15:23:23.198221,10.045069,-0.382851,0.727418,0.050090,-0.039095,-0.167377
2025-12-31T15:23:23.207221,10.131210,-0.287138,0.669990,0.024434,-0.031764,-0.166155
2025-12-31T15:23:23.217221,10.121639,-0.287138,0.693918,-0.012217,-0.023212,-0.163711
2025-12-31T15:23:23.226221,10.073783,-0.330209,0.722632,-0.056199,-0.010995,-0.155159
2025-12-31T15:23:23.236221,9.887142,-0.406779,0.794417,-0.087964,0.004886,-0.147829
2025-12-31T15:23:23.246221,9.662217,-0.468993,0.746560,-0.091629,0.010995,-0.153938
2025-12-31T15:23:23.255221,9.485148,-0.488135,0.679561,-0.072082,0.000000,-0.166155
2025-12-31T15:23:23.265221,9.389435,-0.531206,0.674775,-0.042760,-0.037873,-0.195476
2025-12-31T15:23:23.274221,9.489934,-0.526420,0.689132,-0.008552,-0.083077,-0.223576
2025-12-31T15:23:23.284221,9.824929,-0.449850,0.708275,0.017104,-0.116064,-0.249232
2025-12-31T15:23:23.294221,9.982855,-0.430708,0.741775,0.036651,-0.120951,-0.262671
2025-12-31T15:23:23.303221,10.202995,-0.392422,0.722632,0.053756,-0.098960,-0.270002
2025-12-31T15:23:23.313221,10.169496,-0.334995,0.636490,0.054977,-0.068416,-0.270002
2025-12-31T15:23:23.323221,10.083354,-0.229710,0.598205,0.052534,-0.042760,-0.263893
2025-12-31T15:23:23.332221,9.882357,-0.224925,0.569491,0.045204,-0.036651,-0.265115
2025-12-31T15:23:23.342221,9.743573,-0.244067,0.631705,0.036651,-0.050090,-0.268780
2025-12-31T15:23:23.351221,9.734002,-0.224925,0.650847,0.036651,-0.070860,-0.280997
2025-12-31T15:23:23.361221,9.710074,-0.172283,0.631705,0.050090,-0.085521,-0.293215
2025-12-31T15:23:23.371221,9.781858,-0.086141,0.727418,0.050090,-0.095294,-0.299323
2025-12-31T15:23:23.380221,9.729216,-0.014356,0.717846,0.040317,-0.106290,-0.307876
2025-12-31T15:23:23.390221,9.719645,-0.057427,0.765703,0.031764,-0.111177,-0.311541
2025-12-31T15:23:23.399221,9.657432,-0.086141,0.803988,0.013439,-0.116064,-0.306654
2025-12-31T15:23:23.409221,9.638289,-0.248853,0.818345,0.012217,-0.122173,-0.310319
2025-12-31T15:23:23.419221,9.585647,-0.311066,0.698704,0.051312,-0.129503,-0.317649
2025-12-31T15:23:23.428221,9.561719,-0.301495,0.727418,0.095294,-0.144164,-0.331088
2025-12-31T15:23:23.438221,9.647860,-0.205782,0.713061,0.151494,-0.146607,-0.345749
2025-12-31T15:23:23.448221,9.681360,-0.043070,0.784845,0.210137,-0.128281,-0.357966
2025-12-31T15:23:23.457221,9.533005,0.244067,0.890130,0.230907,-0.103847,-0.362853
2025-12-31T15:23:23.467221,9.470791,0.387637,1.033699,0.207694,-0.100181,-0.368962
2025-12-31T15:23:23.476221,9.336793,0.387637,1.004985,0.152716,-0.103847,-0.381179
2025-12-31T15:23:23.486221,9.217152,0.344566,1.138983,0.086742,-0.111177,-0.389731
2025-12-31T15:23:23.496221,9.274580,0.162711,1.186840,0.018325,-0.129503,-0.398284
2025-12-31T15:23:23.505221,9.279366,0.062213,1.210768,-0.030543,-0.138055,-0.404392
2025-12-31T15:23:23.515221,9.284151,-0.071784,1.296909,-0.048869,-0.120951,-0.404392
2025-12-31T15:23:23.524221,9.111868,-0.215354,1.354337,-0.061086,-0.085521,-0.399505
2025-12-31T15:23:23.534221,8.776873,-0.258424,1.411765,-0.050090,-0.041538,-0.383623
2025-12-31T15:23:23.544221,8.461020,-0.210568,1.497906,-0.004886,0.004886,-0.375071
2025-12-31T15:23:23.553221,8.068597,-0.004785,1.531406,0.032986,0.034208,-0.372627
2025-12-31T15:23:23.563221,7.776673,0.086141,1.823330,0.031764,0.045204,-0.365297
2025-12-31T15:23:23.573221,7.609175,0.287138,1.727617,-0.029321,0.048869,-0.332310
2025-12-31T15:23:23.582221,7.537391,0.172283,1.837687,-0.127059,0.079412,-0.288328
2025-12-31T15:23:23.592221,7.278966,-0.148355,1.909472,-0.263893,0.106290,-0.227241
2025-12-31T15:23:23.601221,7.135396,-0.646062,1.909472,-0.405614,0.107512,-0.162490
2025-12-31T15:23:23.611221,7.149753,-1.311266,1.904686,-0.503352,0.078190,-0.108733
2025-12-31T15:23:23.621221,7.360322,-1.942971,1.852044,-0.531452,0.030543,-0.052534
2025-12-31T15:23:23.630221,7.700103,-2.431107,1.617548,-0.470366,0.003665,-0.009773
2025-12-31T15:23:23.640221,7.929814,-2.612962,1.517049,-0.326201,0.019547,0.043982
2025-12-31T15:23:23.649221,7.968099,-2.474178,1.387837,-0.150272,0.068416,0.096516
2025-12-31T15:23:23.659221,7.800601,-2.201396,1.421336,-0.030543,0.128281,0.168598
2025-12-31T15:23:23.669221,7.465606,-1.895115,1.579262,0.020769,0.149051,0.224798
2025-12-31T15:23:23.678221,7.269395,-1.861615,1.631905,0.000000,0.123394,0.279776
2025-12-31T15:23:23.688221,7.379464,-2.005185,1.684547,-0.068416,0.086742,0.332310
2025-12-31T15:23:23.698221,7.575676,-2.392822,1.579262,-0.133168,0.092851,0.404392
2025-12-31T15:23:23.707221,7.613961,-2.608176,1.344766,-0.153938,0.156381,0.471587
2025-12-31T15:23:23.717221,7.484749,-2.847458,1.545763,-0.155159,0.222354,0.543669
2025-12-31T15:23:23.726221,7.221538,-2.861815,1.651047,-0.147829,0.263893,0.607199
2025-12-31T15:23:23.736221,6.948756,-2.904886,1.545763,-0.156381,0.261450,0.675616
2025-12-31T15:23:23.746221,6.752545,-2.861815,1.459621,-0.179594,0.230907,0.753807
2025-12-31T15:23:23.755221,6.742974,-3.034099,1.215553,-0.205250,0.182037,0.840550
2025-12-31T15:23:23.765221,6.809973,-3.278166,0.880558,-0.174707,0.130725,0.922406
2025-12-31T15:23:23.774221,6.853043,-3.594019,0.684347,-0.078190,0.078190,0.995710
2025-12-31T15:23:23.784221,6.905686,-3.799802,0.703489,0.062308,0.036651,1.064127
2025-12-31T15:23:23.794221,7.106683,-3.761517,0.669990,0.237015,0.017104,1.123991
2025-12-31T15:23:23.803221,7.240681,-3.632304,0.746560,0.406836,0.029321,1.187521
2025-12-31T15:23:23.813221,7.288537,-3.268595,0.928415,0.551000,0.067195,1.248608
2025-12-31T15:23:23.823221,7.259823,-2.823530,0.928415,0.636521,0.109955,1.299920
2025-12-31T15:23:23.832221,7.355536,-2.368894,0.942772,0.631634,0.127059,1.337794
2025-12-31T15:23:23.842221,7.623532,-2.076970,0.923629,0.552222,0.113620,1.351233
2025-12-31T15:23:23.851221,8.030312,-1.919043,0.914058,0.434935,0.064751,1.368337
2025-12-31T15:23:23.861221,8.566304,-1.856830,0.885344,0.322536,0.023212,1.386663
2025-12-31T15:23:23.871221,9.064012,-1.890329,0.842273,0.216246,0.043982,1.433089
2025-12-31T15:23:23.880221,9.083154,-1.818545,0.626919,0.102625,0.128281,1.519832
2025-12-31T15:23:23.890221,8.633303,-1.875972,0.602991,-0.017104,0.213802,1.610240
2025-12-31T15:23:23.899221,7.925028,-1.952543,0.789631,-0.106290,0.213802,1.681100
2025-12-31T15:23:23.909221,7.561319,-2.124826,1.000199,-0.142942,0.122173,1.706757
2025-12-31T15:23:23.919221,7.814958,-2.402393,1.081555,-0.149051,-0.013439,1.704313
2025-12-31T15:23:23.928221,8.585447,-2.852244,1.091127,-0.116064,-0.119729,1.694539
2025-12-31T15:23:23.938221,9.542576,-3.316452,1.086341,-0.006108,-0.130725,1.694539
2025-12-31T15:23:23.948221,10.174281,-3.440878,0.870987,0.147829,-0.028099,1.711644
2025-12-31T15:23:23.957221,10.322636,-3.192025,0.780060,0.289550,0.140498,1.742187
2025-12-31T15:23:23.967221,9.939785,-2.703889,0.775274,0.370184,0.276111,1.778839
2025-12-31T15:23:23.976221,9.322436,-2.134397,0.823130,0.322536,0.316428,1.815491
2025-12-31T15:23:23.986221,8.805587,-1.727617,1.359123,0.161268,0.237015,1.828930
2025-12-31T15:23:23.996221,8.595018,-1.483550,1.703689,-0.105068,0.064751,1.837482
2025-12-31T15:23:24.005221,9.064012,-1.727617,1.612762,-0.449596,-0.150272,1.849699
2025-12-31T15:23:24.015221,9.710074,-2.857030,1.651047,-0.678060,-0.304210,1.830151
2025-12-31T15:23:24.024221,10.557133,-4.182653,1.603191,-0.673173,-0.342084,1.816712
2025-12-31T15:23:24.034221,11.274980,-5.374279,1.344766,-0.486248,-0.240680,1.826486
2025-12-31T15:23:24.044221,11.456834,-6.278766,0.894915,-0.096516,-0.024434,1.859473
2025-12-31T15:23:24.053221,11.097911,-6.527620,0.492921,0.420275,0.205250,1.876577
2025-12-31T15:23:24.063221,10.490134,-6.163911,0.287138,0.857654,0.346971,1.879021
2025-12-31T15:23:24.073221,9.925428,-5.340780,0.492921,1.152091,0.371405,1.875355
2025-12-31T15:23:24.082221,9.619146,-4.086941,0.904486,1.246164,0.320093,1.863138
2025-12-31T15:23:24.092221,9.442077,-2.742174,1.497906,1.032362,0.207694,1.850921
2025-12-31T15:23:24.101221,9.566504,-2.225325,2.067398,0.546113,0.039095,1.849699
2025-12-31T15:23:24.111221,10.068997,-2.354537,2.656033,-0.070860,-0.155159,1.852143
2025-12-31T15:23:24.121221,10.820343,-3.388236,2.359323,-0.702494,-0.296880,1.893681
2025-12-31T15:23:24.130221,11.432906,-5.158925,1.852044,-1.077566,-0.302989,1.923003
2025-12-31T15:23:24.140221,11.643474,-7.135396,1.344766,-1.039692,-0.168598,1.931555
2025-12-31T15:23:24.149221,11.509476,-8.714659,0.770488,-0.728151,-0.010995,1.938885
2025-12-31T15:23:24.159221,11.274980,-9.863214,0.382851,-0.193033,0.117286,1.929112
2025-12-31T15:23:24.169221,10.997412,-10.169496,0.138783,0.532674,0.218689,1.860695
2025-12-31T15:23:24.178221,10.700702,-9.528219,0.162711,1.244943,0.294436,1.772730
2025-12-31T15:23:24.188221,10.581061,-8.226524,0.339780,1.736078,0.339641,1.715309
2025-12-31T15:23:24.198221,10.475777,-6.690331,0.698704,1.912007,0.356745,1.700648
2025-12-31T15:23:24.207221,10.284351,-5.053641,1.316052,1.748295,0.370184,1.727526
2025-12-31T15:23:24.217221,10.006784,-3.852444,2.019542,1.259603,0.373849,1.795943
2025-12-31T15:23:24.226221,9.499505,-3.440878,2.703889,0.572991,0.376292,1.870468
2025-12-31T15:23:24.236221,8.863014,-4.082155,3.024527,-0.147829,0.370184,1.942551
2025-12-31T15:23:24.246221,8.556733,-5.441278,3.488735,-0.746477,0.294436,1.991420
2025-12-31T15:23:24.255221,8.537591,-7.283751,2.737389,-1.163087,0.183259,2.041511
2025-12-31T15:23:24.265221,8.958727,-9.198010,1.617548,-1.246164,0.124616,2.095267
2025-12-31T15:23:24.274221,9.169296,-10.734202,0.937986,-0.928514,0.177150,2.105041
2025-12-31T15:23:24.284221,9.049655,-11.274980,0.464207,-0.379958,0.295658,2.107484
2025-12-31T15:23:24.294221,8.556733,-10.896914,0.263210,0.189368,0.406836,2.101375
2025-12-31T15:23:24.303221,7.891528,-10.083354,0.483350,0.648738,0.443488,2.087936
2025-12-31T15:23:24.313221,7.432106,-8.671589,1.100698,0.851545,0.377514,2.078163
2025-12-31T15:23:24.323221,7.403393,-7.427321,2.038684,0.745255,0.241902,2.075719
2025-12-31T15:23:24.332221,7.451249,-6.575476,2.699103,0.383623,0.133168,2.086715
2025-12-31T15:23:24.342221,7.403393,-6.613761,2.842673,-0.128281,0.097738,2.122145
2025-12-31T15:23:24.351221,7.355536,-7.489534,2.622533,-0.572991,0.114842,2.136806
2025-12-31T15:23:24.361221,7.116254,-8.982656,2.038684,-0.824667,0.152716,2.130697
2025-12-31T15:23:24.371221,6.829115,-10.652846,1.502692,-0.834441,0.169820,2.106262
2025-12-31T15:23:24.380221,6.556333,-12.031112,0.985842,-0.529009,0.197920,2.036624
2025-12-31T15:23:24.390221,6.206981,-12.701102,0.502492,-0.008552,0.237015,1.930333
2025-12-31T15:23:24.399221,5.958128,-12.586246,0.354137,0.570548,0.244346,1.813047
2025-12-31T15:23:24.409221,5.819344,-11.830114,0.751346,1.112996,0.201585,1.667661
2025-12-31T15:23:24.419221,6.063412,-10.576275,1.383051,1.484402,0.158824,1.522275
2025-12-31T15:23:24.428221,6.297909,-9.126225,2.163111,1.579697,0.135612,1.407433
2025-12-31T15:23:24.438221,6.518048,-7.972884,2.914457,1.448972,0.163711,1.317025
2025-12-31T15:23:24.448221,6.527620,-7.025327,3.378665,1.127656,0.249232,1.273042
2025-12-31T15:23:24.457221,6.173482,-6.671189,3.474378,0.670729,0.356745,1.246164
2025-12-31T15:23:24.467221,5.608776,-6.977470,3.120240,0.146607,0.434935,1.213178
2025-12-31T15:23:24.476221,4.962714,-7.834101,2.804388,-0.315206,0.421496,1.139874
2025-12-31T15:23:24.486221,4.570291,-8.700302,2.383251,-0.587652,0.345749,1.001818
2025-12-31T15:23:24.496221,4.412364,-9.537790,2.167897,-0.659734,0.251676,0.806341
2025-12-31T15:23:24.505221,4.455435,-10.164710,2.038684,-0.604756,0.162490,0.583987
2025-12-31T15:23:24.515221,4.809573,-10.365707,2.057827,-0.445931,0.075747,0.348193
2025-12-31T15:23:24.524221,5.240281,-10.116853,2.297109,-0.211359,0.039095,0.090408
2025-12-31T15:23:24.534221,5.627918,-9.609575,2.895315,0.020769,0.068416,-0.173485
2025-12-31T15:23:24.544221,5.934200,-9.001798,3.172882,0.139277,0.141720,-0.389731
2025-12-31T15:23:24.553221,6.116054,-8.551947,3.326023,0.184481,0.228463,-0.580321
2025-12-31T15:23:24.563221,6.197410,-8.226524,3.388236,0.184481,0.299323,-0.774576
2025-12-31T15:23:24.573221,6.173482,-8.173882,3.306880,0.111177,0.310319,-0.946840
2025-12-31T15:23:24.582221,6.254838,-8.700302,3.153740,-0.020769,0.261450,-1.122770
2025-12-31T15:23:24.592221,6.518048,-9.293722,3.010170,-0.102625,0.180816,-1.291368
2025-12-31T15:23:24.601221,6.824330,-9.762716,2.909672,-0.131946,0.095294,-1.452637
2025-12-31T15:23:24.611221,7.221538,-10.006784,3.019742,-0.123394,0.035430,-1.606575
2025-12-31T15:23:24.621221,7.518248,-9.633503,3.287738,-0.043982,0.019547,-1.756848
2025-12-31T15:23:24.630221,7.628318,-8.609375,3.349951,-0.013439,0.036651,-1.894903
2025-12-31T15:23:24.640221,7.479963,-7.532605,3.010170,-0.146607,0.053756,-2.014633
2025-12-31T15:23:24.649221,7.264609,-6.632904,2.699103,-0.372627,0.059864,-2.124588
2025-12-31T15:23:24.659221,7.058826,-5.967699,2.378465,-0.667064,0.026878,-2.258979
2025-12-31T15:23:24.669221,6.891329,-5.800201,2.091326,-1.040914,-0.075747,-2.410473
2025-12-31T15:23:24.678221,7.006184,-6.422335,1.976471,-1.463632,-0.265115,-2.587624
2025-12-31T15:23:24.688221,7.858029,-7.858029,1.947757,-1.926668,-0.557108,-2.728123
2025-12-31T15:23:24.698221,9.561719,-9.829715,2.220539,-2.197892,-0.834441,-2.878396
2025-12-31T15:23:24.707221,11.676974,-11.385049,2.191825,-2.167349,-0.915075,-2.970026
2025-12-31T15:23:24.717221,13.222737,-12.552747,1.493121,-1.855808,-0.707381,-2.959030
2025-12-31T15:23:24.726221,13.552947,-12.782458,0.866201,-1.264490,-0.248011,-2.894278
2025-12-31T15:23:24.736221,12.418749,-11.892328,0.579063,-0.582765,0.243124,-2.814866
2025-12-31T15:23:24.746221,10.384850,-10.375278,0.421136,-0.056199,0.549778,-2.780657
2025-12-31T15:23:24.755221,8.437092,-8.614161,0.162711,0.274889,0.576656,-2.852740
2025-12-31T15:23:24.765221,7.255038,-6.862615,0.626919,0.428827,0.326201,-3.027447
2025-12-31T15:23:24.774221,7.226324,-5.278566,1.517049,0.368962,-0.118507,-3.288897
2025-12-31T15:23:24.784221,8.389236,-4.345365,1.804188,0.052534,-0.580321,-3.534465
2025-12-31T15:23:24.794221,10.341779,-4.254438,1.813759,-0.370184,-0.889419,-3.704286
2025-12-31T15:23:24.803221,12.485748,-4.656432,2.306680,-0.759916,-1.006705,-3.777589
2025-12-31T15:23:24.813221,14.414363,-5.096712,2.512463,-1.138652,-0.890641,-3.715281
2025-12-31T15:23:24.823221,15.457633,-5.867201,1.885544,-1.589471,-0.620638,-3.496591
2025-12-31T15:23:24.832221,15.395420,-6.934399,0.904486,-1.942551,-0.290771,-3.235141
2025-12-31T15:23:24.842221,14.366506,-7.929814,0.167497,-2.030515,-0.021991,-3.006678
2025-12-31T15:23:24.851221,12.940384,-8.365307,-0.449850,-1.894903,0.096516,-2.844187
2025-12-31T15:23:24.861221,11.691331,-8.489734,-0.382851,-1.577253,0.031764,-2.776992
2025-12-31T15:23:24.871221,11.107482,-8.049455,0.492921,-1.119104,-0.166155,-2.824640
2025-12-31T15:23:24.880221,11.499905,-7.403393,1.387837,-0.671951,-0.394618,-2.917491
2025-12-31T15:23:24.890221,12.562318,-6.833901,1.507478,-0.309097,-0.493579,-2.987130
2025-12-31T15:23:24.899221,13.538590,-6.202196,1.148554,0.042760,-0.340862,-2.994460
2025-12-31T15:23:24.909221,13.552947,-5.407779,0.813559,0.386066,0.035430,-2.946813
2025-12-31T15:23:24.919221,12.337393,-4.407579,0.124426,0.659734,0.464257,-2.852740
2025-12-31T15:23:24.928221,10.705488,-3.326023,-0.038285,0.831998,0.735481,-2.797762
2025-12-31T15:23:24.938221,9.135796,-2.325823,0.191425,0.850324,0.747698,-2.783101
2025-12-31T15:23:24.948221,8.279166,-1.287338,0.703489,0.620638,0.510683,-2.750114
2025-12-31T15:23:24.957221,8.446663,-0.655633,1.698904,0.136833,0.094073,-2.700023
2025-12-31T15:23:24.967221,9.662217,-0.282353,2.297109,-0.535117,-0.335975,-2.614502
2025-12-31T15:23:24.976221,11.452048,-0.622133,1.895115,-1.310916,-0.590095,-2.431243
2025-12-31T15:23:24.986221,12.768101,-1.646261,1.296909,-1.937664,-0.546113,-2.211331
2025-12-31T15:23:24.996221,13.088739,-2.828316,0.904486,-2.217440,-0.267558,-1.976759
2025-12-31T15:23:25.005221,12.399606,-3.785445,0.717846,-2.204001,0.056199,-1.775174
2025-12-31T15:23:25.015221,11.102696,-4.426721,0.459421,-2.001194,0.255341,-1.639561
2025-12-31T15:23:25.024221,9.786644,-4.512863,0.205782,-1.623679,0.301767,-1.582140
2025-12-31T15:23:25.034221,8.791230,-4.058227,-0.167497,-1.134987,0.262671,-1.613905
2025-12-31T15:23:25.044221,8.202595,-3.450450,-0.339780,-0.645073,0.179594,-1.674992
2025-12-31T15:23:25.053221,8.059026,-2.924029,-0.052642,-0.284663,0.068416,-1.723861
2025-12-31T15:23:25.063221,8.551947,-2.852244,0.239282,-0.057421,-0.050090,-1.718974
2025-12-31T15:23:25.073221,9.260223,-3.029313,0.248853,0.105068,-0.118507,-1.644448
2025-12-31T15:23:25.082221,9.858429,-3.062812,0.535992,0.282219,-0.059864,-1.535714
2025-12-31T15:23:25.092221,9.911071,-2.612962,0.665204,0.478918,0.128281,-1.392772
2025-12-31T15:23:25.101221,9.317651,-1.665404,0.933200,0.580321,0.339641,-1.244943
2025-12-31T15:23:25.111221,8.408378,-0.612562,1.062413,0.531452,0.441044,-1.110552
2025-12-31T15:23:25.121221,7.484749,0.196211,1.143769,0.323758,0.403170,-1.032362
2025-12-31T15:23:25.130221,6.934399,0.550349,1.148554,-0.021991,0.251676,-0.974940
2025-12-31T15:23:25.140221,6.886543,0.406779,0.923629,-0.387288,0.035430,-0.938288
2025-12-31T15:23:25.149221,7.121040,0.076570,0.650847,-0.676838,-0.167377,-0.915075
2025-12-31T15:23:25.159221,7.599604,-0.291924,0.320638,-0.845437,-0.307876,-0.890641
2025-12-31T15:23:25.169221,8.068597,-0.598205,0.124426,-0.874758,-0.371405,-0.847880
2025-12-31T15:23:25.178221,8.293523,-0.928415,0.373280,-0.808785,-0.349414,-0.777020
2025-12-31T15:23:25.188221,8.216952,-1.138983,0.392422,-0.701273,-0.266337,-0.680503
2025-12-31T15:23:25.198221,7.829315,-1.464407,0.473778,-0.553443,-0.168598,-0.601091
2025-12-31T15:23:25.207221,7.259823,-1.813759,0.459421,-0.326201,-0.096516,-0.554665
2025-12-31T15:23:25.217221,6.757331,-1.775474,0.492921,-0.026878,-0.063529,-0.557108
2025-12-31T15:23:25.226221,6.470192,-1.588834,0.445065,0.305432,-0.087964,-0.588873
2025-12-31T15:23:25.236221,6.388836,-1.148554,0.416351,0.610865,-0.150272,-0.635299
2025-12-31T15:23:25.246221,6.599404,-0.555134,0.478564,0.830776,-0.222354,-0.673173
2025-12-31T15:23:25.255221,7.049255,0.062213,0.378065,0.941954,-0.283441,-0.687834
2025-12-31T15:23:25.265221,7.422535,0.626919,0.449850,0.957836,-0.293215,-0.669508
2025-12-31T15:23:25.274221,7.570890,1.033699,0.531206,0.862541,-0.224798,-0.623082
2025-12-31T15:23:25.284221,7.350751,1.153340,0.411565,0.696386,-0.113620,-0.542448
2025-12-31T15:23:25.294221,6.781259,1.134197,0.516849,0.527787,-0.031764,-0.459370
2025-12-31T15:23:25.303221,6.235695,0.990628,0.655633,0.365297,-0.035430,-0.389731
2025-12-31T15:23:25.313221,5.958128,0.799202,0.473778,0.201585,-0.100181,-0.323758
2025-12-31T15:23:25.323221,5.934200,0.555134,0.349352,0.091629,-0.184481,-0.270002
2025-12-31T15:23:25.332221,6.068198,0.445065,0.406779,0.042760,-0.265115,-0.240680
2025-12-31T15:23:25.342221,6.575476,0.430708,0.311066,0.006108,-0.334754,-0.206472
2025-12-31T15:23:25.351221,7.106683,0.473778,0.325423,-0.014660,-0.357966,-0.167377
2025-12-31T15:23:25.361221,7.556533,0.650847,0.454636,-0.045204,-0.298102,-0.114842
2025-12-31T15:23:25.371221,7.532605,0.765703,0.421136,-0.122173,-0.172263,-0.042760
2025-12-31T15:23:25.380221,7.178467,0.756131,0.574277,-0.218689,-0.042760,0.032986
2025-12-31T15:23:25.390221,6.585047,0.626919,0.593420,-0.310319,0.028099,0.096516
2025-12-31T15:23:25.399221,6.010770,0.435493,0.521635,-0.387288,0.029321,0.152716
2025-12-31T15:23:25.409221,5.680560,0.191425,0.545563,-0.422718,-0.024434,0.194255
2025-12-31T15:23:25.419221,5.446064,0.071784,0.497707,-0.403170,-0.094073,0.224798
2025-12-31T15:23:25.428221,5.517848,0.062213,0.430708,-0.362853,-0.163711,0.251676
2025-12-31T15:23:25.438221,5.790630,0.090927,0.492921,-0.329867,-0.248011,0.274889
2025-12-31T15:23:25.448221,6.259623,0.229710,0.344566,-0.288328,-0.312762,0.296880
2025-12-31T15:23:25.457221,6.766902,0.229710,0.358923,-0.250454,-0.335975,0.306654
2025-12-31T15:23:25.467221,7.302894,0.253639,0.325423,-0.234572,-0.304210,0.332310
2025-12-31T15:23:25.476221,7.747959,0.172283,0.138783,-0.208915,-0.246789,0.354301
2025-12-31T15:23:25.486221,7.963313,0.148355,0.009571,-0.162490,-0.200363,0.353080
2025-12-31T15:23:25.496221,8.231309,0.282353,0.000000,-0.107512,-0.200363,0.345749
2025-12-31T15:23:25.505221,8.642875,0.579063,0.062213,-0.057421,-0.237015,0.335975
2025-12-31T15:23:25.515221,9.279366,0.966700,0.043070,-0.062308,-0.293215,0.324980
2025-12-31T15:23:25.524221,9.963713,1.263410,0.014356,-0.128281,-0.335975,0.324980
2025-12-31T15:23:25.534221,10.614561,1.435693,-0.133998,-0.232128,-0.344527,0.344527
2025-12-31T15:23:25.544221,11.126625,1.550549,-0.248853,-0.335975,-0.339641,0.359188
2025-12-31T15:23:25.553221,11.633903,1.426122,-0.373280,-0.447153,-0.318871,0.382401
2025-12-31T15:23:25.563221,11.748758,1.205982,-0.411565,-0.494800,-0.270002,0.414166
2025-12-31T15:23:25.573221,11.758330,1.043270,-0.382851,-0.471587,-0.229685,0.425162
2025-12-31T15:23:25.582221,11.729616,0.803988,-0.186640,-0.421496,-0.194255,0.439822
2025-12-31T15:23:25.592221,11.404192,0.693918,-0.023928,-0.310319,-0.147829,0.455705
2025-12-31T15:23:25.601221,10.968698,0.655633,0.110069,-0.164933,-0.085521,0.470366
2025-12-31T15:23:25.611221,10.356136,0.756131,0.306281,-0.023212,-0.043982,0.491135
2025-12-31T15:23:25.621221,9.805787,1.028913,0.502492,0.117286,-0.041538,0.493579
2025-12-31T15:23:25.630221,9.384650,1.229910,0.727418,0.240680,-0.059864,0.466700
2025-12-31T15:23:25.640221,9.035298,1.454836,0.847059,0.338419,-0.081855,0.432492
2025-12-31T15:23:25.649221,8.786444,1.694118,0.933200,0.408057,-0.113620,0.370184
2025-12-31T15:23:25.659221,8.786444,1.885544,1.019342,0.448374,-0.147829,0.302989
2025-12-31T15:23:25.669221,8.824729,1.928615,0.914058,0.461814,-0.184481,0.226020
2025-12-31T15:23:25.678221,9.231509,1.909472,0.914058,0.466700,-0.218689,0.149051
2025-12-31T15:23:25.688221,9.729216,1.986042,0.827916,0.447153,-0.243124,0.084299
2025-12-31T15:23:25.698221,10.246066,2.043470,0.717846,0.387288,-0.230907,0.045204
2025-12-31T15:23:25.707221,10.662417,2.191825,0.583848,0.285884,-0.177150,0.030543
2025-12-31T15:23:25.717221,10.872985,2.273181,0.555134,0.136833,-0.096516,0.043982
2025-12-31T15:23:25.726221,10.815558,2.110469,0.622133,-0.032986,-0.026878,0.057421
2025-12-31T15:23:25.736221,10.648060,1.909472,0.617348,-0.190589,0.015882,0.059864
2025-12-31T15:23:25.746221,10.403992,1.579262,0.612562,-0.305432,0.037873,0.048869
2025-12-31T15:23:25.755221,10.193424,1.033699,0.650847,-0.364075,0.043982,0.030543
2025-12-31T15:23:25.765221,10.083354,0.488135,0.583848,-0.332310,0.025656,-0.001221
2025-12-31T15:23:25.774221,10.016355,0.105284,0.468993,-0.204028,-0.010995,-0.041538
2025-12-31T15:23:25.784221,10.279565,-0.114855,0.425922,-0.008552,-0.037873,-0.076969
2025-12-31T15:23:25.794221,10.461420,0.062213,0.277567,0.199142,-0.017104,-0.091629
2025-12-31T15:23:25.803221,10.480562,0.387637,0.186640,0.373849,0.062308,-0.095294
2025-12-31T15:23:25.813221,10.241280,0.866201,0.244067,0.467922,0.152716,-0.080634
2025-12-31T15:23:25.823221,9.968498,1.153340,0.325423,0.450818,0.212581,-0.054977
2025-12-31T15:23:25.832221,9.604789,1.416550,0.406779,0.356745,0.226020,-0.034208
2025-12-31T15:23:25.842221,9.389435,1.421336,0.416351,0.224798,0.197920,-0.018325
2025-12-31T15:23:25.851221,9.322436,1.397408,0.401994,0.089186,0.150272,-0.003665
2025-12-31T15:23:25.861221,9.375078,1.249053,0.483350,-0.026878,0.102625,0.001221
2025-12-31T15:23:25.871221,9.533005,1.071984,0.406779,-0.120951,0.073303,0.012217
2025-12-31T15:23:25.880221,9.676574,0.914058,0.311066,-0.186924,0.074525,0.030543
2025-12-31T15:23:25.890221,9.786644,0.684347,0.205782,-0.211359,0.087964,0.035430
2025-12-31T15:23:25.899221,9.714859,0.459421,0.133998,-0.193033,0.116064,0.048869
2025-12-31T15:23:25.909221,9.748359,0.272781,0.047856,-0.134390,0.133168,0.046425
2025-12-31T15:23:25.919221,9.743573,0.172283,-0.081355,-0.054977,0.124616,0.041538
2025-12-31T15:23:25.928221,9.815358,0.186640,-0.057427,0.050090,0.095294,0.035430
2025-12-31T15:23:25.938221,10.126425,0.334995,0.019142,0.152716,0.061086,0.036651
2025-12-31T15:23:25.948221,10.423135,0.545563,0.124426,0.206472,0.067195,0.058643
2025-12-31T15:23:25.957221,10.461420,0.770488,0.191425,0.216246,0.131946,0.091629
2025-12-31T15:23:25.967221,10.169496,0.861416,0.301495,0.173485,0.224798,0.142942
2025-12-31T15:23:25.976221,9.690931,0.890130,0.373280,0.083077,0.277332,0.186924
2025-12-31T15:23:25.986221,9.145367,0.722632,0.325423,-0.010995,0.263893,0.210137
2025-12-31T15:23:25.996221,8.824729,0.449850,0.440279,-0.046425,0.201585,0.211359
2025-12-31T15:23:26.005221,8.829515,0.296710,0.545563,-0.043982,0.123394,0.190589
2025-12-31T15:23:26.015221,8.915657,0.100498,0.679561,-0.026878,0.062308,0.177150
2025-12-31T15:23:26.024221,9.135796,-0.114855,0.593420,0.015882,0.026878,0.172263
2025-12-31T15:23:26.034221,9.418149,-0.205782,0.401994,0.081855,0.020769,0.172263
2025-12-31T15:23:26.044221,9.580861,-0.220139,0.339780,0.155159,0.046425,0.186924
2025-12-31T15:23:26.053221,9.585647,-0.143569,0.583848,0.232128,0.096516,0.205250
2025-12-31T15:23:26.063221,9.336793,-0.009571,0.612562,0.283441,0.175929,0.244346
2025-12-31T15:23:26.073221,8.973084,0.057427,0.583848,0.311541,0.245567,0.280997
2025-12-31T15:23:26.082221,8.413164,0.191425,0.655633,0.338419,0.282219,0.295658
2025-12-31T15:23:26.092221,8.025527,0.177068,0.794417,0.345749,0.268780,0.296880
2025-12-31T15:23:26.101221,7.795816,0.167497,0.813559,0.335975,0.213802,0.285884
2025-12-31T15:23:26.111221,7.791030,0.033499,1.024128,0.327423,0.135612,0.270002
2025-12-31T15:23:26.121221,8.121239,0.052642,1.038485,0.321315,0.058643,0.254119
2025-12-31T15:23:26.130221,8.575876,0.057427,1.043270,0.304210,0.031764,0.256563
2025-12-31T15:23:26.140221,8.977870,0.133998,0.937986,0.273667,0.095294,0.296880
2025-12-31T15:23:26.149221,8.906085,0.258424,0.780060,0.201585,0.208915,0.364075
2025-12-31T15:23:26.159221,8.518448,0.124426,0.693918,0.091629,0.309097,0.449596
2025-12-31T15:23:26.169221,8.102097,0.071784,0.770488,-0.014660,0.333532,0.532674
2025-12-31T15:23:26.178221,7.700103,-0.095712,0.736989,-0.100181,0.287106,0.576656
2025-12-31T15:23:26.188221,7.604390,-0.334995,0.823130,-0.161268,0.217467,0.601091
2025-12-31T15:23:26.198221,7.652246,-0.775274,0.861416,-0.185702,0.151494,0.624304
2025-12-31T15:23:26.207221,7.814958,-1.014556,0.808774,-0.139277,0.106290,0.641408
2025-12-31T15:23:26.217221,8.111668,-1.220339,0.703489,-0.042760,0.097738,0.657290
2025-12-31T15:23:26.226221,8.283951,-1.253839,0.827916,0.086742,0.128281,0.670729
2025-12-31T15:23:26.236221,8.398807,-1.067198,0.631705,0.201585,0.174707,0.704938
2025-12-31T15:23:26.246221,8.461020,-0.837487,0.354137,0.246789,0.226020,0.748920
2025-12-31T15:23:26.255221,8.279166,-0.684347,0.215354,0.233350,0.285884,0.807563
2025-12-31T15:23:26.265221,7.901100,-0.641276,0.320638,0.189368,0.335975,0.880867
2025-12-31T15:23:26.274221,7.365107,-0.569491,0.291924,0.114842,0.351858,0.951727
2025-12-31T15:23:26.284221,6.900900,-0.703489,0.349352,0.006108,0.312762,0.992044
2025-12-31T15:23:26.294221,6.580262,-0.990628,0.492921,-0.092851,0.193033,1.012814
2025-12-31T15:23:26.303221,6.742974,-1.373480,0.473778,-0.134390,0.015882,1.023809
2025-12-31T15:23:26.313221,7.197610,-1.756331,0.392422,-0.103847,-0.146607,1.031140
2025-12-31T15:23:26.323221,7.810172,-2.043470,0.483350,-0.001221,-0.221133,1.040914
2025-12-31T15:23:26.332221,8.255237,-2.163111,0.339780,0.155159,-0.188146,1.066570
2025-12-31T15:23:26.342221,8.427521,-2.139183,0.143569,0.317649,-0.098960,1.109331
2025-12-31T15:23:26.351221,8.212167,-2.053041,0.172283,0.480139,-0.006108,1.150869
2025-12-31T15:23:26.361221,8.001598,-1.751546,0.253639,0.597426,0.056199,1.189965
2025-12-31T15:23:26.371221,7.637889,-1.588834,0.062213,0.642630,0.096516,1.216843
2025-12-31T15:23:26.380221,7.412964,-1.483550,0.105284,0.647517,0.100181,1.221730
2025-12-31T15:23:26.390221,7.331608,-1.426122,0.200997,0.618195,0.058643,1.216843
2025-12-31T15:23:26.399221,7.446463,-1.536192,0.358923,0.565661,-0.012217,1.204625
2025-12-31T15:23:26.409221,7.633104,-1.555334,0.478564,0.516791,-0.068416,1.204625
2025-12-31T15:23:26.419221,7.848458,-1.593619,0.531206,0.478918,-0.087964,1.215621
2025-12-31T15:23:26.428221,8.006384,-1.473978,0.784845,0.437379,-0.101403,1.227838
2025-12-31T15:23:26.438221,8.106882,-1.392622,0.856630,0.366519,-0.124616,1.251051
2025-12-31T15:23:26.448221,8.231309,-1.464407,0.641276,0.266337,-0.151494,1.277929
2025-12-31T15:23:26.457221,8.327022,-1.813759,0.564706,0.193033,-0.171042,1.301142
2025-12-31T15:23:26.467221,8.551947,-2.134397,0.502492,0.189368,-0.183259,1.307251
2025-12-31T15:23:26.476221,8.666803,-2.445464,0.349352,0.224798,-0.184481,1.320690
2025-12-31T15:23:26.486221,8.752945,-2.813959,0.334995,0.284663,-0.171042,1.329242
2025-12-31T15:23:26.496221,8.829515,-2.962314,0.282353,0.377514,-0.139277,1.341459
2025-12-31T15:23:26.505221,8.752945,-2.818745,0.287138,0.461814,-0.101403,1.363450
2025-12-31T15:23:26.515221,8.413164,-2.502892,0.416351,0.500909,-0.091629,1.369559
2025-12-31T15:23:26.524221,8.178667,-2.110469,0.526420,0.463035,-0.125838,1.356120
2025-12-31T15:23:26.534221,8.154739,-1.938186,0.626919,0.342084,-0.216246,1.320690
2025-12-31T15:23:26.544221,8.446663,-1.957328,0.914058,0.174707,-0.340862,1.280373
2025-12-31T15:23:26.553221,8.901300,-2.402393,0.904486,0.020769,-0.445931,1.229060
2025-12-31T15:23:26.563221,9.446863,-3.153740,0.923629,-0.040317,-0.498465,1.176526
2025-12-31T15:23:26.573221,10.131210,-3.962514,0.765703,0.028099,-0.476474,1.130100
2025-12-31T15:23:26.582221,10.595418,-4.594219,0.315852,0.239459,-0.371405,1.093448
2025-12-31T15:23:26.592221,10.834700,-4.905286,0.124426,0.546113,-0.227241,1.083674
2025-12-31T15:23:26.601221,10.786844,-4.991427,0.095712,0.841772,-0.080634,1.109331
2025-12-31T15:23:26.611221,10.557133,-4.780859,0.105284,1.076344,0.051312,1.160643
2025-12-31T15:23:26.621221,10.102497,-4.063012,0.311066,1.198517,0.144164,1.218065
2025-12-31T15:23:26.630221,9.604789,-3.125026,0.717846,1.134987,0.155159,1.252273
2025-12-31T15:23:26.640221,9.250652,-2.234896,1.019342,0.882089,0.068416,1.269377
2025-12-31T15:23:26.649221,9.245866,-1.904686,1.272981,0.500909,-0.080634,1.259603
2025-12-31T15:23:26.659221,9.623932,-2.009970,1.579262,0.059864,-0.261450,1.244943
2025-12-31T15:23:26.669221,10.403992,-2.723032,1.622333,-0.343306,-0.414166,1.235169
2025-12-31T15:23:26.678221,11.255837,-3.866801,1.201196,-0.586430,-0.466700,1.227838
2025-12-31T15:23:26.688221,11.916256,-5.072783,0.947557,-0.588873,-0.381179,1.221730
2025-12-31T15:23:26.698221,12.098111,-6.020341,0.674775,-0.383623,-0.191811,1.242499
2025-12-31T15:23:26.707221,11.710473,-6.575476,0.181854,-0.026878,0.047647,1.282816
2025-12-31T15:23:26.717221,10.968698,-6.604190,0.086141,0.381179,0.232128,1.309694
2025-12-31T15:23:26.726221,10.073783,-6.326622,0.138783,0.712268,0.282219,1.306029
2025-12-31T15:23:26.736221,9.542576,-5.699703,0.325423,0.919962,0.216246,1.290147
2025-12-31T15:23:26.746221,9.466006,-4.962714,0.736989,1.004262,0.096516,1.251051
2025-12-31T15:23:26.755221,9.714859,-4.163511,1.119840,0.924849,-0.021991,1.216843
2025-12-31T15:23:26.765221,10.112068,-3.656232,1.335195,0.668286,-0.090408,1.199739
2025-12-31T15:23:26.774221,10.351350,-3.589233,1.268195,0.300545,-0.091629,1.213178
2025-12-31T15:23:26.784221,10.313065,-3.991228,1.062413,-0.048869,-0.051312,1.233947
2025-12-31T15:23:26.794221,10.073783,-4.704289,0.885344,-0.312762,-0.004886,1.253495
2025-12-31T15:23:26.803221,9.643075,-5.656632,0.765703,-0.439822,-0.001221,1.260825
2025-12-31T15:23:26.813221,9.365507,-6.350551,0.454636,-0.409279,-0.020769,1.243721
2025-12-31T15:23:26.823221,9.236295,-6.996613,0.540777,-0.246789,-0.056199,1.207069
2025-12-31T15:23:26.832221,9.308079,-7.365107,0.713061,0.000000,-0.091629,1.154535
2025-12-31T15:23:26.842221,9.537790,-7.599604,0.650847,0.235793,-0.117286,1.133765
2025-12-31T15:23:26.851221,9.872786,-7.733602,0.569491,0.436157,-0.102625,1.127656
2025-12-31T15:23:26.861221,10.088140,-7.695317,0.483350,0.593760,-0.045204,1.148426
2025-12-31T15:23:26.871221,10.030712,-7.288537,0.602991,0.678060,0.036651,1.194852
2025-12-31T15:23:26.880221,9.753144,-6.752545,0.856630,0.665842,0.116064,1.251051
2025-12-31T15:23:26.890221,9.298508,-6.240481,1.033699,0.529009,0.166155,1.292590
2025-12-31T15:23:26.899221,8.700302,-5.910271,1.086341,0.316428,0.175929,1.328020
2025-12-31T15:23:26.909221,8.106882,-5.809773,1.100698,0.053756,0.131946,1.351233
2025-12-31T15:23:26.919221,7.786244,-6.202196,1.186840,-0.222354,0.018325,1.345124
2025-12-31T15:23:26.928221,7.905885,-6.948756,1.244267,-0.430049,-0.129503,1.324355
2025-12-31T15:23:26.938221,8.240881,-7.800601,1.373480,-0.502131,-0.233350,1.303586
2025-12-31T15:23:26.948221,8.767302,-8.542376,1.387837,-0.445931,-0.234572,1.310916
2025-12-31T15:23:26.957221,9.059226,-9.178867,1.234696,-0.266337,-0.119729,1.337794
2025-12-31T15:23:26.967221,8.997012,-9.633503,1.004985,-0.004886,0.051312,1.386663
2025-12-31T15:23:26.976221,8.489734,-9.858429,0.756131,0.276111,0.210137,1.437976
2025-12-31T15:23:26.986221,7.944171,-9.542576,0.722632,0.565661,0.306654,1.463632
2025-12-31T15:23:26.996221,7.508677,-9.044869,0.799202,0.783129,0.322536,1.451415
2025-12-31T15:23:27.005221,7.269395,-8.389236,0.971485,0.858876,0.262671,1.429424
2025-12-31T15:23:27.015221,7.436892,-7.824529,1.272981,0.805120,0.174707,1.380555
2025-12-31T15:23:27.024221,7.700103,-7.389036,1.330409,0.601091,0.085521,1.329242
2025-12-31T15:23:27.034221,8.226524,-7.283751,1.186840,0.318871,0.034208,1.293812
2025-12-31T15:23:27.044221,8.456235,-7.546962,1.325623,0.084299,0.057421,1.262047
2025-12-31T15:23:27.053221,8.556733,-7.977670,1.459621,-0.101403,0.153938,1.243721
2025-12-31T15:23:27.063221,8.169096,-8.590233,1.383051,-0.244346,0.261450,1.257160
2025-12-31T15:23:27.073221,7.695317,-9.241080,1.454836,-0.268780,0.348193,1.268155
2025-12-31T15:23:27.082221,7.216752,-9.777073,1.531406,-0.227241,0.373849,1.269377
2025-12-31T15:23:27.092221,6.924828,-10.145567,1.426122,-0.119729,0.349414,1.259603
2025-12-31T15:23:27.101221,6.757331,-10.217352,1.488335,0.063529,0.331088,1.230282
2025-12-31T15:23:27.111221,6.652046,-10.049854,1.627119,0.233350,0.318871,1.183856
2025-12-31T15:23:27.121221,6.551548,-9.868000,1.746760,0.323758,0.310319,1.153313
2025-12-31T15:23:27.130221,6.541976,-9.643075,1.823330,0.362853,0.301767,1.106887
2025-12-31T15:23:27.140221,6.403193,-9.384650,2.038684,0.355523,0.295658,1.042135
2025-12-31T15:23:27.149221,6.254838,-9.097511,2.153540,0.302989,0.302989,0.965166
2025-12-31T15:23:27.159221,6.010770,-8.877371,2.048256,0.207694,0.328645,0.896749
2025-12-31T15:23:27.169221,5.694917,-8.834301,2.244467,0.091629,0.324980,0.827111
2025-12-31T15:23:27.178221,5.426921,-8.977870,2.268395,-0.054977,0.270002,0.747698
2025-12-31T15:23:27.188221,5.431707,-9.346365,2.153540,-0.155159,0.200363,0.662177
2025-12-31T15:23:27.198221,5.493920,-9.662217,2.306680,-0.166155,0.150272,0.558330
2025-12-31T15:23:27.207221,5.675775,-9.628718,2.220539,-0.086742,0.124616,0.450818
2025-12-31T15:23:27.217221,5.733202,-9.360722,2.450250,0.037873,0.138055,0.339641
2025-12-31T15:23:27.226221,5.771488,-8.772087,2.493321,0.146607,0.171042,0.200363
2025-12-31T15:23:27.236221,5.685346,-8.025527,2.517249,0.175929,0.180816,0.059864
2025-12-31T15:23:27.246221,5.642275,-7.537391,2.321037,0.084299,0.152716,-0.086742
2025-12-31T15:23:27.255221,5.718846,-7.336394,2.225325,-0.080634,0.084299,-0.250454
2025-12-31T15:23:27.265221,5.900700,-7.542176,2.225325,-0.283441,-0.012217,-0.406836
2025-12-31T15:23:27.274221,6.345765,-8.015955,2.287538,-0.455705,-0.138055,-0.587652
2025-12-31T15:23:27.284221,7.063612,-8.484948,2.359323,-0.510683,-0.237015,-0.796568
2025-12-31T15:23:27.294221,7.905885,-8.910871,2.273181,-0.438601,-0.261450,-0.994488
2025-12-31T15:23:27.303221,8.628518,-9.135796,1.942971,-0.290771,-0.217467,-1.163087
2025-12-31T15:23:27.313221,9.159724,-8.982656,1.526620,-0.080634,-0.122173,-1.317025
2025-12-31T15:23:27.323221,9.327222,-8.647660,1.335195,0.097738,-0.004886,-1.451415
2025-12-31T15:23:27.332221,9.154939,-8.240881,1.014556,0.135612,0.073303,-1.533271
2025-12-31T15:23:27.342221,8.925228,-7.786244,0.918843,0.119729,0.102625,-1.649335
2025-12-31T15:23:27.351221,8.676374,-7.245466,1.512263,0.096516,0.070860,-1.826486
2025-12-31T15:23:27.361221,8.796015,-6.809973,1.698904,-0.072082,-0.034208,-1.962098
2025-12-31T15:23:27.371221,9.188438,-6.671189,1.957328,-0.283441,-0.161268,-2.097710
2025-12-31T15:23:27.380221,9.920642,-6.518048,2.029113,-0.475253,-0.224798,-2.243096
2025-12-31T15:23:27.390221,10.528419,-6.824330,1.526620,-0.744033,-0.222354,-2.306626
2025-12-31T15:23:27.399221,11.188838,-7.360322,1.158126,-0.917519,-0.149051,-2.348165
2025-12-31T15:23:27.409221,11.356336,-7.628318,0.918843,-0.951727,-0.019547,-2.406808
2025-12-31T15:23:27.419221,11.160124,-7.891528,0.497707,-0.990823,0.090408,-2.441016
2025-12-31T15:23:27.428221,10.853843,-8.240881,0.325423,-1.004262,0.100181,-2.477668
2025-12-31T15:23:27.438221,10.853843,-8.269594,0.492921,-0.911410,0.031764,-2.557081
2025-12-31T15:23:27.448221,11.035697,-8.145168,0.660419,-0.812450,-0.054977,-2.638937
2025-12-31T15:23:27.457221,11.332407,-7.858029,0.593420,-0.708603,-0.105068,-2.711019
2025-12-31T15:23:27.467221,11.485548,-7.417750,0.646062,-0.527787,-0.079412,-2.798983
2025-12-31T15:23:27.476221,11.480762,-6.709474,0.808774,-0.370184,-0.024434,-2.869844
2025-12-31T15:23:27.486221,11.313265,-6.135197,0.942772,-0.316428,0.021991,-2.919935
2025-12-31T15:23:27.496221,11.050054,-5.728417,0.990628,-0.289550,0.062308,-2.979800
2025-12-31T15:23:27.505221,10.849057,-5.335994,1.287338,-0.241902,0.067195,-3.068986
2025-12-31T15:23:27.515221,10.944770,-4.919643,1.191625,-0.229685,0.023212,-3.172833
2025-12-31T15:23:27.524221,11.327622,-4.699503,0.823130,-0.235793,-0.040317,-3.258354
2025-12-31T15:23:27.534221,11.806186,-4.488935,0.933200,-0.261450,-0.086742,-3.312110
2025-12-31T15:23:27.544221,12.504890,-4.594219,1.138983,-0.430049,-0.153938,-3.284010
2025-12-31T15:23:27.553221,13.265808,-5.044070,1.048056,-0.670729,-0.197920,-3.177720
2025-12-31T15:23:27.563221,13.950155,-5.637490,0.928415,-0.828333,-0.147829,-3.023782
2025-12-31T15:23:27.573221,13.969298,-6.101697,0.981057,-0.891863,0.003665,-2.831970
2025-12-31T15:23:27.582221,13.323236,-6.422335,0.679561,-0.862541,0.199142,-2.629163
2025-12-31T15:23:27.592221,12.265608,-6.446264,0.287138,-0.717155,0.317649,-2.460564
2025-12-31T15:23:27.601221,11.155338,-6.312266,0.315852,-0.491135,0.296880,-2.371378
2025-12-31T15:23:27.611221,10.437492,-5.876772,0.516849,-0.218689,0.163711,-2.349387
2025-12-31T15:23:27.621221,10.356136,-5.130211,0.789631,0.069638,-0.017104,-2.395812
2025-12-31T15:23:27.630221,10.758130,-4.287938,0.837487,0.304210,-0.158824,-2.430021
2025-12-31T15:23:27.640221,11.217552,-3.340380,0.593420,0.437379,-0.168598,-2.422691
2025-12-31T15:23:27.649221,11.313265,-2.459821,0.215354,0.498465,-0.042760,-2.378708
2025-12-31T15:23:27.659221,10.815558,-1.689332,0.028713,0.483805,0.131946,-2.320065
2025-12-31T15:23:27.669221,9.954142,-1.124626,-0.033499,0.371405,0.249232,-2.251648
2025-12-31T15:23:27.678221,9.150153,-0.861416,0.263210,0.150272,0.219911,-2.183231
2025-12-31T15:23:27.688221,8.819944,-0.904486,0.411565,-0.155159,0.063529,-2.109928
2025-12-31T15:23:27.698221,8.987441,-1.148554,0.492921,-0.472809,-0.127059,-2.040289
2025-12-31T15:23:27.707221,9.384650,-1.363908,0.722632,-0.711046,-0.259006,-1.969429
2025-12-31T15:23:27.717221,9.777073,-1.392622,0.713061,-0.863763,-0.298102,-1.887573
2025-12-31T15:23:27.726221,10.025926,-1.301695,0.717846,-0.963945,-0.268780,-1.792278
2025-12-31T15:23:27.736221,9.987641,-1.234696,0.875773,-1.044579,-0.217467,-1.712865
2025-12-31T15:23:27.746221,9.973284,-1.244267,1.081555,-1.110552,-0.169820,-1.640783
2025-12-31T15:23:27.755221,9.796215,-1.416550,1.071984,-1.171639,-0.130725,-1.584584
2025-12-31T15:23:27.765221,9.533005,-1.708475,0.698704,-1.165530,-0.091629,-1.545488
2025-12-31T15:23:27.774221,9.308079,-1.832902,0.311066,-1.055574,-0.036651,-1.519832
2025-12-31T15:23:27.784221,8.973084,-1.919043,0.148355,-0.889419,-0.015882,-1.497841
2025-12-31T15:23:27.794221,8.738588,-1.962114,-0.028713,-0.684168,-0.045204,-1.478293
2025-12-31T15:23:27.803221,8.748159,-1.962114,-0.100498,-0.459370,-0.112399,-1.433089
2025-12-31T15:23:27.813221,9.020941,-1.837687,-0.086141,-0.230907,-0.182037,-1.375668
2025-12-31T15:23:27.823221,9.351150,-1.584048,0.119641,-0.014660,-0.201585,-1.309694
2025-12-31T15:23:27.832221,9.600004,-1.450050,0.397208,0.127059,-0.156381,-1.222951
2025-12-31T15:23:27.842221,9.662217,-1.253839,0.464207,0.216246,-0.068416,-1.122770
2025-12-31T15:23:27.851221,9.403792,-0.976271,0.598205,0.298102,0.024434,-1.036027
2025-12-31T15:23:27.861221,9.044869,-0.708275,0.665204,0.344527,0.069638,-0.962723
2025-12-31T15:23:27.871221,8.748159,-0.401994,0.660419,0.344527,0.070860,-0.879645
2025-12-31T15:23:27.880221,8.461020,-0.143569,0.751346,0.288328,0.046425,-0.799011
2025-12-31T15:23:27.890221,8.197810,0.028713,0.760917,0.191811,0.021991,-0.701273
2025-12-31T15:23:27.899221,7.843672,0.052642,0.722632,0.072082,0.006108,-0.588873
2025-12-31T15:23:27.909221,7.532605,0.172283,0.617348,-0.040317,-0.002443,-0.470366
2025-12-31T15:23:27.919221,7.092326,0.301495,0.531206,-0.117286,-0.009773,-0.371405
2025-12-31T15:23:27.928221,6.723831,0.507278,0.641276,-0.178372,-0.028099,-0.306654
2025-12-31T15:23:27.938221,6.460621,0.516849,0.708275,-0.271224,-0.065973,-0.266337
2025-12-31T15:23:27.948221,6.211767,0.248853,0.770488,-0.377514,-0.119729,-0.235793
2025-12-31T15:23:27.957221,6.187839,-0.181854,0.794417,-0.431270,-0.206472,-0.227241
2025-12-31T15:23:27.967221,6.484549,-0.574277,0.808774,-0.414166,-0.306654,-0.230907
2025-12-31T15:23:27.976221,7.039684,-0.813559,0.856630,-0.329867,-0.375071,-0.233350
2025-12-31T15:23:27.986221,7.599604,-0.847059,0.746560,-0.188146,-0.353080,-0.210137
2025-12-31T15:23:27.996221,7.805387,-0.588634,0.636490,-0.039095,-0.237015,-0.160046
2025-12-31T15:23:28.005221,7.590033,-0.224925,0.555134,0.059864,-0.080634,-0.083077
2025-12-31T15:23:28.015221,7.073183,0.157926,0.736989,0.113620,0.058643,-0.006108
2025-12-31T15:23:28.024221,6.321837,0.521635,0.760917,0.101403,0.131946,0.065973
2025-12-31T15:23:28.034221,5.603990,0.770488,0.818345,0.030543,0.125838,0.119729
2025-12-31T15:23:28.044221,4.934000,0.818345,0.875773,-0.067195,0.069638,0.157603
2025-12-31T15:23:28.053221,4.560719,0.770488,1.052841,-0.169820,-0.020769,0.183259
2025-12-31T15:23:28.063221,4.197010,0.602991,1.182054,-0.248011,-0.128281,0.191811
2025-12-31T15:23:28.073221,4.235296,0.315852,1.258624,-0.305432,-0.233350,0.202807
2025-12-31T15:23:28.082221,4.383651,0.114855,1.263410,-0.315206,-0.304210,0.216246
2025-12-31T15:23:28.092221,4.522434,-0.019142,1.225125,-0.254119,-0.329867,0.226020
2025-12-31T15:23:28.101221,4.608576,-0.086141,1.316052,-0.182037,-0.321315,0.240680
2025-12-31T15:23:28.111221,4.747360,-0.086141,1.105484,-0.092851,-0.293215,0.254119
2025-12-31T15:23:28.121221,4.771288,-0.057427,1.038485,0.032986,-0.260228,0.251676
2025-12-31T15:23:28.130221,4.905286,0.086141,1.115055,0.140498,-0.262671,0.223576
2025-12-31T15:23:28.140221,5.225924,0.157926,0.981057,0.224798,-0.312762,0.194255
2025-12-31T15:23:28.149221,5.857629,0.325423,1.009771,0.307876,-0.393397,0.157603
2025-12-31T15:23:28.159221,6.829115,0.555134,0.961914,0.365297,-0.461814,0.113620
2025-12-31T15:23:28.169221,7.905885,0.880558,0.880558,0.370184,-0.497244,0.086742
2025-12-31T15:23:28.178221,9.030512,1.277767,0.473778,0.307876,-0.493579,0.075747
2025-12-31T15:23:28.188221,10.121639,1.679761,0.234496,0.197920,-0.467922,0.080634
2025-12-31T15:23:28.198221,11.207981,1.919043,0.105284,0.010995,-0.449596,0.090408
2025-12-31T15:23:28.207221,12.184252,2.000399,-0.114855,-0.230907,-0.423940,0.120951
2025-12-31T15:23:28.217221,12.945170,1.966900,-0.358923,-0.475253,-0.371405,0.160046
2025-12-31T15:23:28.226221,13.428520,1.770688,-0.521635,-0.676838,-0.304210,0.221133
2025-12-31T15:23:28.236221,13.686945,1.636690,-0.808774,-0.830776,-0.254119,0.288328
2025-12-31T15:23:28.246221,13.629517,1.249053,-0.559920,-0.899193,-0.157603,0.344527
2025-12-31T15:23:28.255221,12.993026,0.952343,-0.296710,-0.880867,-0.040317,0.412944
2025-12-31T15:23:28.265221,11.868400,0.579063,0.253639,-0.784350,0.072082,0.472809
2025-12-31T15:23:28.274221,10.700702,0.215354,0.775274,-0.631634,0.128281,0.510683
2025-12-31T15:23:28.284221,9.346365,-0.167497,1.177268,-0.403170,0.116064,0.531452
2025-12-31T15:23:28.294221,8.231309,-0.435493,1.531406,-0.098960,0.065973,0.531452
2025-12-31T15:23:28.303221,7.484749,-0.521635,1.564905,0.250454,-0.006108,0.511904
2025-12-31T15:23:28.313221,7.140182,-0.272781,1.392622,0.624304,-0.079412,0.474031
2025-12-31T15:23:28.323221,7.106683,0.311066,1.229910,0.955393,-0.156381,0.417831
2025-12-31T15:23:28.332221,7.546962,1.086341,1.057627,1.158200,-0.223576,0.359188
2025-12-31T15:23:28.342221,8.212167,1.780260,0.976271,1.220508,-0.256563,0.299323
2025-12-31T15:23:28.351221,8.973084,2.502892,0.937986,1.127656,-0.241902,0.257785
2025-12-31T15:23:28.361221,9.676574,3.177668,0.756131,0.896749,-0.210137,0.226020
2025-12-31T15:23:28.371221,10.322636,3.608376,0.765703,0.540004,-0.164933,0.218689
2025-12-31T15:23:28.380221,10.753344,3.876372,0.808774,0.107512,-0.111177,0.227241
2025-12-31T15:23:28.390221,11.150553,3.799802,0.784845,-0.366519,-0.073303,0.230907
2025-12-31T15:23:28.399221,11.428120,3.393022,0.521635,-0.845437,-0.064751,0.245567
2025-12-31T15:23:28.409221,11.576475,2.608176,0.368494,-1.242499,-0.072082,0.262671
2025-12-31T15:23:28.419221,11.624332,1.617548,0.162711,-1.477071,-0.076969,0.277332
2025-12-31T15:23:28.428221,11.576475,0.650847,0.062213,-1.521054,-0.061086,0.285884
2025-12-31T15:23:28.438221,11.428120,-0.124426,0.014356,-1.379333,-0.014660,0.280997
2025-12-31T15:23:28.448221,10.992627,-0.622133,0.253639,-1.097113,0.058643,0.271224
2025-12-31T15:23:28.457221,10.408778,-0.914058,0.445065,-0.751364,0.130725,0.252898
2025-12-31T15:23:28.467221,9.724431,-1.048056,0.535992,-0.375071,0.180816,0.222354
2025-12-31T15:23:28.476221,9.174081,-0.914058,0.574277,0.006108,0.194255,0.169820
2025-12-31T15:23:28.486221,8.681160,-0.593420,0.569491,0.339641,0.174707,0.116064
2025-12-31T15:23:28.496221,8.518448,-0.071784,0.545563,0.608421,0.127059,0.059864
2025-12-31T15:23:28.505221,8.604590,0.559920,0.416351,0.779463,0.073303,0.002443
2025-12-31T15:23:28.515221,8.886943,1.124626,0.382851,0.828333,0.026878,-0.032986
2025-12-31T15:23:28.524221,9.154939,1.665404,0.468993,0.764803,0.014660,-0.037873
2025-12-31T15:23:28.534221,9.446863,2.062613,0.512064,0.613308,0.035430,-0.034208
2025-12-31T15:23:28.544221,9.561719,2.292324,0.459421,0.377514,0.072082,-0.020769
2025-12-31T15:23:28.553221,9.619146,2.172682,0.483350,0.097738,0.090408,0.002443
2025-12-31T15:23:28.563221,9.662217,1.976471,0.387637,-0.173485,0.079412,0.024434
2025-12-31T15:23:28.573221,9.887142,1.603191,0.191425,-0.398284,0.042760,0.036651
2025-12-31T15:23:28.582221,10.188638,1.277767,0.023928,-0.548556,-0.004886,0.041538
2025-12-31T15:23:28.592221,10.533205,0.961914,-0.267996,-0.614530,-0.025656,0.062308
2025-12-31T15:23:28.601221,10.753344,0.751346,-0.220139,-0.629191,-0.006108,0.078190
2025-12-31T15:23:28.611221,10.834700,0.598205,-0.244067,-0.629191,0.052534,0.113620
2025-12-31T15:23:28.621221,10.576275,0.454636,-0.181854,-0.612086,0.119729,0.144164
2025-12-31T15:23:28.630221,10.112068,0.258424,0.004785,-0.566882,0.163711,0.149051
2025-12-31T15:23:28.640221,9.767501,0.090927,0.043070,-0.502131,0.156381,0.138055
2025-12-31T15:23:28.649221,9.365507,-0.191425,0.186640,-0.406836,0.108733,0.111177
2025-12-31T15:23:28.659221,9.284151,-0.473778,0.263210,-0.273667,0.040317,0.076969
2025-12-31T15:23:28.669221,9.327222,-0.555134,0.234496,-0.103847,-0.021991,0.039095
2025-12-31T15:23:28.678221,9.566504,-0.488135,0.224925,0.072082,-0.056199,0.004886
2025-12-31T15:23:28.688221,9.786644,-0.253639,0.196211,0.216246,-0.046425,-0.010995
2025-12-31T15:23:28.698221,9.848857,0.028713,0.253639,0.300545,0.012217,0.001221
2025-12-31T15:23:28.707221,9.614361,0.205782,0.263210,0.317649,0.087964,0.018325
2025-12-31T15:23:28.717221,9.298508,0.234496,0.349352,0.279776,0.128281,0.034208
2025-12-31T15:23:28.726221,9.059226,0.287138,0.468993,0.208915,0.101403,0.047647
2025-12-31T15:23:28.736221,8.963513,0.167497,0.531206,0.140498,0.032986,0.051312
2025-12-31T15:23:28.746221,9.154939,0.004785,0.669990,0.100181,-0.053756,0.054977
2025-12-31T15:23:28.755221,9.561719,-0.043070,0.607776,0.084299,-0.107512,0.072082
2025-12-31T15:23:28.765221,9.796215,-0.076570,0.593420,0.087964,-0.096516,0.095294
2025-12-31T15:23:28.774221,9.863214,-0.081355,0.660419,0.102625,-0.018325,0.133168
2025-12-31T15:23:28.784221,9.638289,-0.019142,0.655633,0.096516,0.058643,0.184481
2025-12-31T15:23:28.794221,9.269794,-0.043070,0.593420,0.064751,0.092851,0.222354
2025-12-31T15:23:28.803221,8.939585,-0.224925,0.689132,0.043982,0.072082,0.238237
2025-12-31T15:23:28.813221,8.752945,-0.464207,0.880558,0.045204,0.014660,0.230907
2025-12-31T15:23:28.823221,8.834301,-0.736989,0.870987,0.080634,-0.029321,0.227241
2025-12-31T15:23:28.832221,8.968299,-0.909272,0.933200,0.156381,-0.029321,0.219911
2025-12-31T15:23:28.842221,9.030512,-1.052841,1.028913,0.254119,0.014660,0.227241
2025-12-31T15:23:28.851221,8.810372,-1.048056,1.014556,0.366519,0.087964,0.240680
2025-12-31T15:23:28.861221,8.446663,-0.933200,1.019342,0.461814,0.162490,0.250454
2025-12-31T15:23:28.871221,8.073383,-0.756131,0.952343,0.519235,0.206472,0.265115
2025-12-31T15:23:28.880221,7.719245,-0.727418,0.914058,0.543669,0.199142,0.274889
2025-12-31T15:23:28.890221,7.518248,-0.770488,0.985842,0.544891,0.151494,0.277332
2025-12-31T15:23:28.899221,7.513462,-0.794417,0.966700,0.538783,0.090408,0.289550
2025-12-31T15:23:28.909221,7.709674,-0.880558,0.961914,0.537561,0.036651,0.304210
2025-12-31T15:23:28.919221,8.030312,-0.904486,0.914058,0.547335,0.003665,0.335975
2025-12-31T15:23:28.928221,8.417949,-0.818345,0.736989,0.555887,-0.006108,0.389731
2025-12-31T15:23:28.938221,8.690731,-0.780060,0.631705,0.543669,0.018325,0.443488
2025-12-31T15:23:28.948221,8.839086,-0.713061,0.521635,0.509461,0.073303,0.511904
2025-12-31T15:23:28.957221,8.743373,-0.693918,0.382851,0.449596,0.136833,0.588873
2025-12-31T15:23:28.967221,8.441878,-0.646062,0.282353,0.383623,0.188146,0.654847
2025-12-31T15:23:28.976221,8.044669,-0.775274,0.473778,0.333532,0.207694,0.697607
2025-12-31T15:23:28.986221,7.810172,-0.818345,0.631705,0.294436,0.177150,0.720820
2025-12-31T15:23:28.996221,7.834101,-0.851844,0.803988,0.268780,0.098960,0.730594
2025-12-31T15:23:29.005221,8.049455,-0.937986,0.765703,0.238237,0.036651,0.744033
2025-12-31T15:23:29.015221,8.298308,-0.985842,0.588634,0.218689,0.051312,0.779463
2025-12-31T15:23:29.024221,8.288737,-1.024128,0.440279,0.213802,0.131946,0.829554
2025-12-31T15:23:29.034221,7.996813,-1.052841,0.306281,0.191811,0.215024,0.880867
2025-12-31T15:23:29.044221,7.637889,-1.043270,0.344566,0.157603,0.250454,0.934623
2025-12-31T15:23:29.053221,7.226324,-1.110269,0.267996,0.117286,0.226020,0.985936
2025-12-31T15:23:29.063221,7.044469,-1.205982,0.315852,0.081855,0.150272,1.004262
2025-12-31T15:23:29.073221,7.058826,-1.296909,0.287138,0.047647,0.039095,1.014036
2025-12-31T15:23:29.082221,7.345965,-1.473978,0.464207,0.040317,-0.064751,1.015257
2025-12-31T15:23:29.092221,7.733602,-1.665404,0.468993,0.084299,-0.127059,1.009149
2025-12-31T15:23:29.101221,8.145168,-1.718046,0.435493,0.142942,-0.130725,1.021366
2025-12-31T15:23:29.111221,8.303094,-1.804188,0.301495,0.199142,-0.073303,1.051909
2025-12-31T15:23:29.121221,8.145168,-1.818545,0.239282,0.270002,0.026878,1.098335
2025-12-31T15:23:29.130221,7.896314,-1.823330,0.196211,0.344527,0.094073,1.136209
2025-12-31T15:23:29.140221,7.518248,-1.732403,0.095712,0.379958,0.091629,1.167974
2025-12-31T15:23:29.149221,7.307680,-1.607976,-0.066999,0.395840,0.017104,1.174082
2025-12-31T15:23:29.159221,7.389036,-1.536192,0.004785,0.414166,-0.100181,1.160643
2025-12-31T15:23:29.169221,7.829315,-1.598405,0.272781,0.423940,-0.228463,1.137430
2025-12-31T15:23:29.178221,8.389236,-1.655833,0.291924,0.432492,-0.294436,1.122770
2025-12-31T15:23:29.188221,8.953942,-1.660618,0.272781,0.444709,-0.241902,1.126435
2025-12-31T15:23:29.198221,9.044869,-1.550549,0.234496,0.449596,-0.100181,1.153313
2025-12-31T15:23:29.207221,8.724231,-1.483550,0.181854,0.434935,0.059864,1.192408
2025-12-31T15:23:29.217221,7.910671,-1.282552,0.172283,0.382401,0.163711,1.231504
2025-12-31T15:23:29.226221,7.140182,-1.110269,0.248853,0.304210,0.146607,1.253495
2025-12-31T15:23:29.236221,6.776473,-1.148554,0.411565,0.185702,-0.010995,1.246164
2025-12-31T15:23:29.246221,7.068397,-1.335195,0.669990,0.040317,-0.256563,1.219286
2025-12-31T15:23:29.255221,7.891528,-1.770688,0.713061,-0.058643,-0.443488,1.194852
2025-12-31T15:23:29.265221,8.987441,-2.244467,0.488135,-0.076969,-0.474031,1.189965
2025-12-31T15:23:29.274221,9.600004,-2.675175,0.253639,-0.020769,-0.355523,1.207069
2025-12-31T15:23:29.284221,9.949356,-2.962314,0.062213,0.094073,-0.169820,1.259603
2025-12-31T15:23:29.294221,9.662217,-2.971885,0.124426,0.221133,-0.006108,1.304807
2025-12-31T15:23:29.303221,9.140582,-2.828316,0.133998,0.317649,0.078190,1.331685
2025-12-31T15:23:29.313221,8.724231,-2.708675,0.272781,0.348193,0.070860,1.321912
2025-12-31T15:23:29.323221,8.374879,-2.541177,0.497707,0.313984,-0.021991,1.302364
2025-12-31T15:23:29.332221,8.441878,-2.526820,0.679561,0.243124,-0.163711,1.264490
2025-12-31T15:23:29.342221,8.886943,-2.699103,0.832702,0.147829,-0.301767,1.229060
2025-12-31T15:23:29.351221,9.614361,-3.067598,0.732203,0.070860,-0.370184,1.208291
2025-12-31T15:23:29.361221,10.207781,-3.460021,0.459421,0.051312,-0.316428,1.204625
2025-12-31T15:23:29.371221,10.423135,-3.694518,-0.133998,0.119729,-0.149051,1.210734
2025-12-31T15:23:29.380221,10.126425,-3.842873,-0.301495,0.243124,0.030543,1.235169
2025-12-31T15:23:29.390221,9.614361,-3.938585,-0.143569,0.342084,0.125838,1.252273
2025-12-31T15:23:29.399221,9.226723,-3.996013,0.129212,0.373849,0.107512,1.254716
2025-12-31T15:23:29.409221,9.121439,-4.058227,0.267996,0.353080,0.006108,1.232725
2025-12-31T15:23:29.419221,9.375078,-4.091726,0.488135,0.301767,-0.151494,1.181413
2025-12-31T15:23:29.428221,10.045069,-4.110869,0.669990,0.228463,-0.313984,1.120326
2025-12-31T15:23:29.438221,11.011769,-4.240081,0.789631,0.167377,-0.414166,1.065348
2025-12-31T15:23:29.448221,11.849257,-4.321437,0.918843,0.123394,-0.384845,1.033583
2025-12-31T15:23:29.457221,12.260823,-4.709074,0.794417,0.075747,-0.234572,1.044579
2025-12-31T15:23:29.467221,12.088539,-5.173282,0.593420,0.079412,-0.006108,1.078787
2025-12-31T15:23:29.476221,11.332407,-5.560919,0.263210,0.153938,0.221133,1.128878
2025-12-31T15:23:29.486221,10.298708,-5.790630,-0.095712,0.266337,0.342084,1.161865
2025-12-31T15:23:29.496221,9.442077,-6.001199,-0.110069,0.377514,0.301767,1.174082
2025-12-31T15:23:29.505221,9.164510,-6.192624,0.339780,0.456927,0.131946,1.155756
2025-12-31T15:23:29.515221,9.427721,-6.374479,0.641276,0.499687,-0.073303,1.125213
2025-12-31T15:23:29.524221,10.121639,-6.494120,0.899701,0.525343,-0.226020,1.097113
2025-12-31T15:23:29.534221,10.949556,-6.474977,1.344766,0.553443,-0.279776,1.067792
2025-12-31T15:23:29.544221,11.586047,-6.278766,1.244267,0.583987,-0.217467,1.066570
2025-12-31T15:23:29.553221,11.672188,-6.149554,0.995414,0.591317,-0.054977,1.106887
2025-12-31T15:23:29.563221,11.155338,-6.025127,0.971485,0.590095,0.153938,1.153313
2025-12-31T15:23:29.573221,10.107282,-5.953342,0.952343,0.564439,0.316428,1.189965
2025-12-31T15:23:29.582221,9.016155,-5.857629,0.622133,0.470366,0.359188,1.231504
2025-12-31T15:23:29.592221,8.245666,-5.881557,0.454636,0.332310,0.262671,1.242499
2025-12-31T15:23:29.601221,7.795816,-5.915057,0.468993,0.188146,0.068416,1.225395
2025-12-31T15:23:29.611221,7.982456,-6.154339,0.660419,-0.003665,-0.171042,1.213178
2025-12-31T15:23:29.621221,8.676374,-6.742974,0.832702,-0.213802,-0.404392,1.196073
2025-12-31T15:23:29.630221,9.628718,-7.389036,0.803988,-0.332310,-0.538783,1.193630
2025-12-31T15:23:29.640221,10.370493,-8.020741,0.875773,-0.327423,-0.510683,1.210734
2025-12-31T15:23:29.649221,10.648060,-8.513662,1.095912,-0.185702,-0.353080,1.226617
2025-12-31T15:23:29.659221,10.298708,-8.690731,1.287338,0.054977,-0.157603,1.235169
2025-12-31T15:23:29.669221,9.805787,-8.786444,1.205982,0.309097,-0.007330,1.237612
2025-12-31T15:23:29.678221,9.317651,-8.752945,1.076770,0.551000,0.051312,1.229060
2025-12-31T15:23:29.688221,9.078368,-8.489734,0.679561,0.729372,0.043982,1.231504
2025-12-31T15:23:29.698221,8.891728,-8.154739,0.311066,0.814894,0.014660,1.249830
2025-12-31T15:23:29.707221,8.949156,-7.881957,0.354137,0.772133,-0.050090,1.282816
2025-12-31T15:23:29.717221,9.255437,-7.570890,0.602991,0.612086,-0.118507,1.337794
2025-12-31T15:23:29.726221,9.418149,-7.403393,1.014556,0.342084,-0.161268,1.389107
2025-12-31T15:23:29.736221,9.528219,-7.590033,1.268195,0.023212,-0.156381,1.447750
2025-12-31T15:23:29.746221,9.456434,-8.011170,1.406979,-0.235793,-0.113620,1.480737
2025-12-31T15:23:29.755221,9.145367,-8.441878,1.488335,-0.381179,-0.051312,1.486845
2025-12-31T15:23:29.765221,8.767302,-8.896514,1.646261,-0.414166,0.009773,1.459967
2025-12-31T15:23:29.774221,8.322237,-9.269794,1.574477,-0.348193,0.068416,1.445306
2025-12-31T15:23:29.784221,7.944171,-9.556933,1.607976,-0.204028,0.114842,1.409876
2025-12-31T15:23:29.794221,7.657032,-9.863214,1.454836,-0.057421,0.133168,1.378111
2025-12-31T15:23:29.803221,7.527819,-10.112068,1.076770,0.097738,0.107512,1.347568
2025-12-31T15:23:29.813221,7.494320,-10.169496,0.890130,0.306654,0.067195,1.302364
2025-12-31T15:23:29.823221,7.575676,-10.092925,0.909272,0.500909,0.036651,1.249830
2025-12-31T15:23:29.832221,7.657032,-9.906285,0.933200,0.590095,0.017104,1.224173
2025-12-31T15:23:29.842221,7.738388,-9.671788,1.000199,0.624304,0.006108,1.198517
2025-12-31T15:23:29.851221,7.661817,-9.355936,1.153340,0.613308,0.013439,1.156978
2025-12-31T15:23:29.861221,7.494320,-8.901300,1.330409,0.527787,0.019547,1.094670
2025-12-31T15:23:29.871221,7.264609,-8.724231,1.631905,0.408057,0.012217,1.006705
2025-12-31T15:23:29.880221,7.140182,-8.614161,1.947757,0.254119,-0.032986,0.896749
2025-12-31T15:23:29.890221,7.178467,-8.863014,1.856830,0.087964,-0.091629,0.789237
2025-12-31T15:23:29.899221,7.412964,-9.312865,1.895115,0.002443,-0.122173,0.669508
2025-12-31T15:23:29.909221,7.666603,-9.858429,1.856830,0.014660,-0.101403,0.558330
2025-12-31T15:23:29.919221,7.872386,-10.198209,1.607976,0.102625,-0.037873,0.488692
2025-12-31T15:23:29.928221,7.838886,-10.274780,1.397408,0.290771,0.056199,0.412944
2025-12-31T15:23:29.938221,7.580461,-9.844072,1.253839,0.538783,0.151494,0.323758
2025-12-31T15:23:29.948221,7.221538,-9.016155,1.196411,0.772133,0.211359,0.213802
2025-12-31T15:23:29.957221,6.824330,-8.025527,1.339980,0.911410,0.219911,0.092851
2025-12-31T15:23:29.967221,6.494120,-7.039684,1.655833,0.904080,0.161268,-0.040317
2025-12-31T15:23:29.976221,6.494120,-6.144768,2.153540,0.745255,0.043982,-0.202807
2025-12-31T15:23:29.986221,6.809973,-5.656632,2.627319,0.464257,-0.103847,-0.372627
2025-12-31T15:23:29.996221,7.460820,-5.546562,2.933600,0.073303,-0.245567,-0.542448
2025-12-31T15:23:30.005221,8.245666,-6.025127,2.742174,-0.334754,-0.321315,-0.685390
2025-12-31T15:23:30.015221,9.025726,-6.747759,2.234896,-0.613308,-0.290771,-0.821002
2025-12-31T15:23:30.024221,9.355936,-7.417750,1.622333,-0.669508,-0.163711,-0.970053
2025-12-31T15:23:30.034221,9.389435,-7.690531,1.019342,-0.536339,-0.008552,-1.130100
2025-12-31T15:23:30.044221,9.078368,-7.647461,0.736989,-0.309097,0.096516,-1.304807
2025-12-31T15:23:30.053221,8.776873,-7.140182,0.765703,-0.084299,0.119729,-1.508836
2025-12-31T15:23:30.063221,8.719445,-6.498906,0.842273,0.003665,0.075747,-1.717752
2025-12-31T15:23:30.073221,8.786444,-6.063412,0.995414,-0.070860,-0.028099,-1.924225
2025-12-31T15:23:30.082221,9.164510,-5.766702,1.493121,-0.234572,-0.142942,-2.120923
2025-12-31T15:23:30.092221,9.839286,-5.982056,1.751546,-0.524122,-0.251676,-2.273639
2025-12-31T15:23:30.101221,10.753344,-6.613761,1.732403,-0.873537,-0.318871,-2.370156
2025-12-31T15:23:30.111221,11.614760,-7.369893,1.406979,-1.092226,-0.290771,-2.433686
2025-12-31T15:23:30.121221,12.074182,-7.858029,0.971485,-1.109331,-0.131946,-2.476447
2025-12-31T15:23:30.130221,11.849257,-7.776673,0.325423,-0.967610,0.119729,-2.502103
2025-12-31T15:23:30.140221,11.064411,-7.484749,0.052642,-0.780685,0.324980,-2.531425
2025-12-31T15:23:30.149221,10.179067,-7.082754,-0.014356,-0.649960,0.372627,-2.599841
2025-12-31T15:23:30.159221,9.556933,-6.546762,-0.076570,-0.605978,0.276111,-2.715906
2025-12-31T15:23:30.169221,9.561719,-6.139982,0.162711,-0.607199,0.054977,-2.890613
2025-12-31T15:23:30.178221,10.293922,-5.781059,0.602991,-0.635299,-0.211359,-3.083647
2025-12-31T15:23:30.188221,11.681759,-5.757131,1.392622,-0.696386,-0.411723,-3.248580
2025-12-31T15:23:30.198221,13.308879,-5.833701,1.842473,-0.797789,-0.456927,-3.321884
2025-12-31T15:23:30.207221,14.495719,-5.862415,1.287338,-0.924849,-0.301767,-3.279123
2025-12-31T15:23:30.217221,14.754144,-5.757131,0.229710,-0.992044,-0.002443,-3.167946
2025-12-31T15:23:30.226221,14.045868,-5.737988,-0.157926,-0.989601,0.300545,-3.045773
2025-12-31T15:23:30.236221,12.811172,-5.862415,-0.133998,-0.989601,0.464257,-2.957808
2025-12-31T15:23:30.246221,11.653046,-6.058626,-0.311066,-1.009149,0.425162,-2.891835
2025-12-31T15:23:30.255221,11.035697,-6.264409,-0.349352,-0.992044,0.207694,-2.878396
2025-12-31T15:23:30.265221,11.370692,-6.489334,0.468993,-0.852767,-0.092851,-2.937039
2025-12-31T15:23:30.274221,12.610175,-6.460621,1.670190,-0.610865,-0.333532,-3.015230
2025-12-31T15:23:30.284221,14.194223,-6.044269,1.933400,-0.349414,-0.344527,-3.022560
2025-12-31T15:23:30.294221,15.208780,-5.245067,1.689332,-0.067195,-0.073303,-2.957808
2025-12-31T15:23:30.303221,14.892927,-4.187439,1.674975,0.166155,0.377514,-2.860070
2025-12-31T15:23:30.313221,13.519447,-3.058027,1.287338,0.241902,0.786794,-2.744006
2025-12-31T15:23:30.323221,11.696116,-1.852044,0.454636,0.218689,1.022588,-2.674367
2025-12-31T15:23:30.332221,10.049854,-0.842273,-0.081355,0.129503,0.999375,-2.676810
2025-12-31T15:23:30.342221,9.020941,-0.019142,0.205782,-0.140498,0.695164,-2.708575
2025-12-31T15:23:30.351221,9.097511,0.129212,0.191425,-0.619417,0.223576,-2.712241
2025-12-31T15:23:30.361221,10.207781,-0.172283,0.258424,-1.170417,-0.238237,-2.652376
2025-12-31T15:23:30.371221,11.739187,-1.004985,0.334995,-1.651779,-0.536339,-2.539977
2025-12-31T15:23:30.380221,13.131810,-1.799402,0.382851,-1.953546,-0.587652,-2.378708
2025-12-31T15:23:30.390221,13.658231,-2.431107,0.559920,-2.023185,-0.377514,-2.185675
2025-12-31T15:23:30.399221,13.213166,-2.833101,0.928415,-1.908342,-0.037873,-2.025628
2025-12-31T15:23:30.409221,11.983255,-2.904886,1.076770,-1.711644,0.226020,-1.912007
2025-12-31T15:23:30.419221,10.710273,-3.139383,1.153340,-1.461189,0.315206,-1.866803
2025-12-31T15:23:30.428221,9.896714,-3.479164,1.392622,-1.125213,0.229685,-1.894903
2025-12-31T15:23:30.438221,9.777073,-3.507877,1.258624,-0.756251,0.075747,-1.931555
2025-12-31T15:23:30.448221,10.121639,-3.359522,0.732203,-0.367740,-0.009773,-1.919338
2025-12-31T15:23:30.457221,10.442277,-2.756531,0.220139,0.061086,0.051312,-1.858251
2025-12-31T15:23:30.467221,10.370493,-1.775474,-0.200997,0.398284,0.197920,-1.742187
2025-12-31T15:23:30.476221,9.829715,-0.837487,-0.253639,0.560774,0.342084,-1.584584
2025-12-31T15:23:30.486221,9.040083,-0.129212,0.033499,0.548556,0.431270,-1.431867
2025-12-31T15:23:30.496221,8.169096,0.200997,0.196211,0.393397,0.441044,-1.307251
2025-12-31T15:23:30.505221,7.441678,0.172283,0.301495,0.190589,0.373849,-1.219286
2025-12-31T15:23:30.515221,6.872186,-0.047856,0.631705,0.031764,0.243124,-1.177747
2025-12-31T15:23:30.524221,6.762116,-0.248853,1.019342,-0.097738,0.075747,-1.156978
2025-12-31T15:23:30.534221,6.891329,-0.488135,1.153340,-0.172263,-0.103847,-1.128878
2025-12-31T15:23:30.544221,7.341179,-0.497707,1.062413,-0.190589,-0.260228,-1.094670
2025-12-31T15:23:30.553221,8.006384,-0.373280,1.062413,-0.202807,-0.354301,-1.032362
2025-12-31T15:23:30.563221,8.561519,-0.368494,0.937986,-0.226020,-0.348193,-0.932180
2025-12-31T15:23:30.573221,8.772087,-0.282353,0.602991,-0.228463,-0.226020,-0.794124
2025-12-31T15:23:30.582221,8.398807,-0.186640,0.468993,-0.196698,-0.026878,-0.652403
2025-12-31T15:23:30.592221,7.518248,-0.210568,0.564706,-0.152716,0.162490,-0.531452
2025-12-31T15:23:30.601221,6.331408,-0.378065,0.507278,-0.124616,0.282219,-0.443488
2025-12-31T15:23:30.611221,5.211567,-0.655633,0.449850,-0.073303,0.300545,-0.399505
2025-12-31T15:23:30.621221,4.417150,-0.894915,0.545563,0.026878,0.223576,-0.389731
2025-12-31T15:23:30.630221,3.929014,-1.014556,0.459421,0.160046,0.067195,-0.399505
2025-12-31T15:23:30.640221,3.838087,-0.870987,0.564706,0.301767,-0.111177,-0.430049
2025-12-31T15:23:30.649221,4.197010,-0.665204,0.583848,0.411723,-0.255341,-0.449596
2025-12-31T15:23:30.659221,4.742574,-0.258424,0.612562,0.442266,-0.337197,-0.428827
2025-12-31T15:23:30.669221,5.254638,-0.114855,0.583848,0.401949,-0.366519,-0.382401
2025-12-31T15:23:30.678221,5.670989,0.028713,0.516849,0.320093,-0.348193,-0.313984
2025-12-31T15:23:30.688221,5.766702,-0.081355,0.392422,0.235793,-0.246789,-0.218689
2025-12-31T15:23:30.698221,5.345565,-0.119641,0.358923,0.217467,-0.067195,-0.136833
2025-12-31T15:23:30.707221,4.575076,-0.253639,0.550349,0.207694,0.095294,-0.073303
2025-12-31T15:23:30.717221,3.579662,-0.325423,0.425922,0.149051,0.162490,-0.013439
2025-12-31T15:23:30.726221,2.818745,-0.574277,0.512064,0.097738,0.123394,0.019547
2025-12-31T15:23:30.736221,2.287538,-0.827916,0.602991,0.080634,-0.003665,0.031764
2025-12-31T15:23:30.746221,2.249253,-1.009771,0.789631,0.086742,-0.178372,0.045204
2025-12-31T15:23:30.755221,2.632104,-0.961914,0.803988,0.112399,-0.367740,0.067195
2025-12-31T15:23:30.765221,3.555734,-0.823130,0.775274,0.145385,-0.536339,0.092851
2025-12-31T15:23:30.774221,4.622933,-0.483350,0.756131,0.158824,-0.631634,0.127059
2025-12-31T15:23:30.784221,5.670989,-0.416351,0.646062,0.136833,-0.614530,0.193033
2025-12-31T15:23:30.794221,6.312266,-0.468993,0.617348,0.122173,-0.519235,0.278554
2025-12-31T15:23:30.803221,6.671189,-0.354137,0.425922,0.142942,-0.415388,0.350636
2025-12-31T15:23:30.813221,6.929614,-0.090927,0.339780,0.167377,-0.361632,0.397062
2025-12-31T15:23:30.823221,7.360322,0.186640,0.330209,0.178372,-0.398284,0.419053
2025-12-31T15:23:30.832221,8.078169,0.459421,0.401994,0.169820,-0.516791,0.410501
2025-12-31T15:23:30.842221,9.221938,0.861416,0.306281,0.112399,-0.660956,0.393397
2025-12-31T15:23:30.851221,10.695917,1.153340,0.086141,0.008552,-0.773355,0.400727
2025-12-31T15:23:30.861221,12.222537,1.478764,-0.239282,-0.117286,-0.830776,0.415388
2025-12-31T15:23:30.871221,13.552947,1.871187,-0.334995,-0.279776,-0.813672,0.465479
2025-12-31T15:23:30.880221,14.586646,2.029113,-0.789631,-0.475253,-0.715933,0.548556
2025-12-31T15:23:30.890221,15.065211,1.866401,-0.622133,-0.676838,-0.485026,0.654847
2025-12-31T15:23:30.899221,14.572289,1.402194,-0.478564,-0.802676,-0.201585,0.790459
2025-12-31T15:23:30.909221,13.256237,0.784845,-0.143569,-0.810007,0.075747,0.910189
2025-12-31T15:23:30.919221,11.523833,0.387637,0.081355,-0.686612,0.246789,0.989601
2025-12-31T15:23:30.928221,9.906285,0.287138,0.512064,-0.453261,0.238237,1.011592
2025-12-31T15:23:30.938221,8.681160,0.320638,0.842273,-0.169820,0.083077,0.971275
2025-12-31T15:23:30.948221,8.073383,0.526420,1.225125,0.128281,-0.113620,0.910189
2025-12-31T15:23:30.957221,7.910671,1.100698,1.526620,0.411723,-0.254119,0.839328
2025-12-31T15:23:30.967221,8.025527,1.646261,1.612762,0.619417,-0.300545,0.770911
2025-12-31T15:23:30.976221,8.121239,2.234896,1.593619,0.725707,-0.291993,0.711046
2025-12-31T15:23:30.986221,8.336593,2.689532,1.325623,0.739146,-0.262671,0.662177
2025-12-31T15:23:30.996221,8.575876,3.038884,1.000199,0.670729,-0.243124,0.615752
2025-12-31T15:23:31.005221,8.882157,3.421736,0.799202,0.533896,-0.245567,0.568104
2025-12-31T15:23:31.015221,9.332008,3.756731,0.583848,0.362853,-0.266337,0.519235
2025-12-31T15:23:31.024221,9.872786,4.201796,0.631705,0.140498,-0.302989,0.456927
2025-12-31T15:23:31.034221,10.576275,4.264009,0.535992,-0.163711,-0.343306,0.408057
2025-12-31T15:23:31.044221,11.179267,4.048655,0.535992,-0.483805,-0.345749,0.373849
2025-12-31T15:23:31.053221,11.576475,3.646661,0.363709,-0.764803,-0.280997,0.344527
2025-12-31T15:23:31.063221,11.700902,2.861815,0.416351,-0.987158,-0.182037,0.318871
2025-12-31T15:23:31.073221,11.547761,1.995614,0.234496,-1.084896,-0.084299,0.296880
2025-12-31T15:23:31.082221,11.318050,1.354337,0.114855,-1.007927,-0.030543,0.245567
2025-12-31T15:23:31.092221,11.078768,0.928415,0.090927,-0.816115,-0.035430,0.169820
2025-12-31T15:23:31.101221,10.963913,0.674775,0.105284,-0.571769,-0.068416,0.085521
2025-12-31T15:23:31.111221,11.045269,0.602991,0.066999,-0.291993,-0.076969,0.003665
2025-12-31T15:23:31.121221,10.997412,0.669990,0.119641,-0.028099,-0.035430,-0.059864
2025-12-31T15:23:31.130221,10.849057,0.713061,0.153140,0.179594,0.039095,-0.101403
2025-12-31T15:23:31.140221,10.413563,0.808774,0.320638,0.342084,0.118507,-0.129503
2025-12-31T15:23:31.149221,9.997212,0.847059,0.411565,0.456927,0.171042,-0.144164
2025-12-31T15:23:31.159221,9.509077,1.014556,0.655633,0.521678,0.189368,-0.151494
2025-12-31T15:23:31.169221,9.107082,1.134197,0.780060,0.544891,0.177150,-0.160046
2025-12-31T15:23:31.178221,8.968299,1.325623,0.780060,0.530230,0.142942,-0.166155
2025-12-31T15:23:31.188221,8.896514,1.651047,0.693918,0.466700,0.097738,-0.172263
2025-12-31T15:23:31.198221,9.083154,1.775474,0.717846,0.349414,0.059864,-0.179594
2025-12-31T15:23:31.207221,9.317651,1.875972,0.550349,0.185702,0.043982,-0.182037
2025-12-31T15:23:31.217221,9.561719,1.899901,0.392422,0.003665,0.059864,-0.162490
2025-12-31T15:23:31.226221,9.719645,1.751546,0.277567,-0.174707,0.098960,-0.139277
2025-12-31T15:23:31.236221,9.714859,1.622333,0.186640,-0.323758,0.136833,-0.118507
2025-12-31T15:23:31.246221,9.815358,1.373480,-0.014356,-0.436157,0.140498,-0.098960
2025-12-31T15:23:31.255221,10.025926,1.205982,-0.124426,-0.532674,0.100181,-0.080634
2025-12-31T15:23:31.265221,10.293922,1.115055,-0.153140,-0.598647,0.053756,-0.063529
2025-12-31T15:23:31.274221,10.528419,0.866201,-0.038285,-0.651182,0.039095,-0.037873
2025-12-31T15:23:31.284221,10.667203,0.512064,0.066999,-0.681725,0.073303,-0.014660
2025-12-31T15:23:31.294221,10.408778,0.119641,0.215354,-0.671951,0.149051,0.007330
2025-12-31T15:23:31.303221,10.035497,-0.349352,0.325423,-0.601091,0.211359,0.023212
2025-12-31T15:23:31.313221,9.600004,-0.655633,0.306281,-0.470366,0.223576,0.025656
2025-12-31T15:23:31.323221,9.332008,-0.870987,0.239282,-0.298102,0.183259,0.014660
2025-12-31T15:23:31.332221,9.303294,-0.832702,0.138783,-0.106290,0.113620,0.001221
2025-12-31T15:23:31.342221,9.513862,-0.636490,0.066999,0.068416,0.046425,-0.012217
2025-12-31T15:23:31.351221,9.767501,-0.334995,0.215354,0.180816,0.023212,0.002443
2025-12-31T15:23:31.361221,9.911071,0.095712,0.220139,0.210137,0.058643,0.039095
2025-12-31T15:23:31.371221,9.796215,0.248853,0.358923,0.162490,0.129503,0.085521
2025-12-31T15:23:31.380221,9.533005,0.234496,0.406779,0.078190,0.180816,0.123394
2025-12-31T15:23:31.390221,9.298508,0.157926,0.478564,0.001221,0.182037,0.146607
2025-12-31T15:23:31.399221,9.011369,-0.081355,0.588634,-0.064751,0.125838,0.144164
2025-12-31T15:23:31.409221,9.116654,-0.478564,0.598205,-0.092851,0.047647,0.141720
2025-12-31T15:23:31.419221,9.413364,-0.799202,0.660419,-0.043982,-0.006108,0.130725
2025-12-31T15:23:31.428221,9.652646,-0.981057,0.713061,0.058643,-0.013439,0.133168
2025-12-31T15:23:31.438221,9.939785,-0.909272,0.579063,0.179594,0.024434,0.150272
2025-12-31T15:23:31.448221,9.949356,-0.756131,0.401994,0.279776,0.107512,0.185702
2025-12-31T15:23:31.457221,9.671788,-0.607776,0.421136,0.313984,0.206472,0.245567
2025-12-31T15:23:31.467221,9.260223,-0.488135,0.483350,0.300545,0.274889,0.304210
2025-12-31T15:23:31.476221,8.819944,-0.416351,0.550349,0.262671,0.288328,0.354301
2025-12-31T15:23:31.486221,8.551947,-0.344566,0.626919,0.218689,0.227241,0.378736
2025-12-31T15:23:31.496221,8.657232,-0.339780,0.703489,0.177150,0.103847,0.384845
2025-12-31T15:23:31.505221,9.092725,-0.311066,0.760917,0.138055,-0.018325,0.376292
2025-12-31T15:23:31.515221,9.533005,-0.488135,0.818345,0.113620,-0.057421,0.377514
2025-12-31T15:23:31.524221,9.848857,-0.612562,0.780060,0.135612,0.010995,0.401949
2025-12-31T15:23:31.534221,9.662217,-0.693918,0.689132,0.194255,0.140498,0.437379
2025-12-31T15:23:31.544221,9.245866,-0.650847,0.602991,0.267558,0.256563,0.474031
2025-12-31T15:23:31.553221,8.609375,-0.598205,0.488135,0.345749,0.294436,0.496022
2025-12-31T15:23:31.563221,8.078169,-0.320638,0.459421,0.392175,0.265115,0.510683
2025-12-31T15:23:31.573221,7.800601,-0.244067,0.646062,0.390953,0.207694,0.530230
2025-12-31T15:23:31.582221,7.590033,-0.143569,0.598205,0.378736,0.174707,0.559552
2025-12-31T15:23:31.592221,7.360322,-0.229710,0.631705,0.377514,0.175929,0.591317
2025-12-31T15:23:31.601221,6.963113,-0.291924,0.827916,0.375071,0.204028,0.627969
2025-12-31T15:23:31.611221,6.460621,-0.421136,0.914058,0.389731,0.230907,0.669508
2025-12-31T15:23:31.621221,5.958128,-0.468993,0.918843,0.430049,0.235793,0.723264
2025-12-31T15:23:31.630221,5.417350,-0.559920,1.000199,0.482583,0.207694,0.753807
2025-12-31T15:23:31.640221,5.106283,-0.626919,0.961914,0.537561,0.138055,0.786794
2025-12-31T15:23:31.649221,5.053641,-0.564706,0.971485,0.582765,0.045204,0.803898
2025-12-31T15:23:31.659221,5.355136,-0.483350,0.741775,0.599869,-0.069638,0.803898
2025-12-31T15:23:31.669221,6.010770,-0.478564,0.521635,0.597426,-0.189368,0.801455
2025-12-31T15:23:31.678221,6.872186,-0.559920,0.373280,0.580321,-0.266337,0.791681
2025-12-31T15:23:31.688221,7.724031,-0.617348,0.181854,0.574213,-0.273667,0.789237
2025-12-31T15:23:31.698221,8.307880,-0.674775,0.100498,0.572991,-0.204028,0.800233
2025-12-31T15:23:31.707221,8.815158,-0.780060,0.306281,0.565661,-0.080634,0.834441
2025-12-31T15:23:31.717221,8.767302,-0.722632,0.325423,0.541226,0.074525,0.899193
2025-12-31T15:23:31.726221,8.331808,-0.607776,0.282353,0.492357,0.221133,0.961501
2025-12-31T15:23:31.736221,7.714460,-0.468993,0.425922,0.404392,0.290771,1.014036
2025-12-31T15:23:31.746221,7.207181,-0.301495,0.708275,0.287106,0.232128,1.038470
2025-12-31T15:23:31.755221,7.235895,-0.368494,0.947557,0.140498,0.056199,1.022588
2025-12-31T15:23:31.765221,7.891528,-0.564706,0.756131,-0.025656,-0.142942,0.998153
2025-12-31T15:23:31.774221,8.906085,-0.842273,0.387637,-0.144164,-0.249232,0.984714
2025-12-31T15:23:31.784221,9.810572,-1.138983,0.181854,-0.167377,-0.204028,0.981049
2025-12-31T15:23:31.794221,10.155139,-1.378265,-0.133998,-0.124616,-0.028099,1.011592
2025-12-31T15:23:31.803221,9.872786,-1.512263,-0.143569,-0.019547,0.226020,1.077566
2025-12-31T15:23:31.813221,8.819944,-1.464407,-0.033499,0.106290,0.449596,1.137430
2025-12-31T15:23:31.823221,7.642675,-1.325623,0.205782,0.193033,0.525343,1.186300
2025-12-31T15:23:31.832221,6.790830,-1.043270,0.521635,0.199142,0.409279,1.210734
2025-12-31T15:23:31.842221,6.522834,-1.019342,0.674775,0.128281,0.152716,1.202182
2025-12-31T15:23:31.851221,7.020541,-1.124626,0.870987,0.041538,-0.135612,1.186300
2025-12-31T15:23:31.861221,8.068597,-1.387837,0.880558,-0.067195,-0.344527,1.187521
2025-12-31T15:23:31.871221,9.236295,-1.880758,0.918843,-0.186924,-0.392175,1.216843
2025-12-31T15:23:31.880221,10.049854,-2.440679,0.837487,-0.229685,-0.289550,1.263269
2025-12-31T15:23:31.890221,10.332207,-2.837887,0.741775,-0.216246,-0.128281,1.310916
2025-12-31T15:23:31.899221,10.179067,-3.177668,0.650847,-0.174707,0.035430,1.347568
2025-12-31T15:23:31.909221,9.595218,-3.402593,0.593420,-0.085521,0.155159,1.362229
2025-12-31T15:23:31.919221,9.040083,-3.464807,0.492921,0.059864,0.199142,1.343903
2025-12-31T15:23:31.928221,8.532805,-3.311666,0.545563,0.208915,0.157603,1.312138
2025-12-31T15:23:31.938221,8.350950,-3.168097,0.497707,0.295658,0.040317,1.292590
2025-12-31T15:23:31.948221,8.389236,-3.158525,0.430708,0.323758,-0.078190,1.277929
2025-12-31T15:23:31.957221,8.781658,-3.144168,0.416351,0.332310,-0.161268,1.274264
2025-12-31T15:23:31.967221,9.006584,-3.182454,0.291924,0.316428,-0.180816,1.288925
2025-12-31T15:23:31.976221,9.087940,-3.364308,0.076570,0.312762,-0.150272,1.308473
2025-12-31T15:23:31.986221,9.059226,-3.546163,0.052642,0.328645,-0.107512,1.320690
2025-12-31T15:23:31.996221,8.877371,-3.895515,0.100498,0.342084,-0.113620,1.324355
2025-12-31T15:23:32.005221,8.824729,-4.201796,0.043070,0.361632,-0.194255,1.297477
2025-12-31T15:23:32.015221,9.245866,-4.436293,0.086141,0.438601,-0.304210,1.258382
2025-12-31T15:23:32.024221,9.657432,-4.292723,0.291924,0.559552,-0.357966,1.215621
2025-12-31T15:23:32.034221,10.025926,-3.972085,0.234496,0.651182,-0.345749,1.202182
2025-12-31T15:23:32.044221,10.231709,-3.675375,0.019142,0.674395,-0.270002,1.227838
2025-12-31T15:23:32.053221,9.968498,-3.436093,-0.200997,0.607199,-0.177150,1.285260
2025-12-31T15:23:32.063221,9.442077,-3.407379,-0.392422,0.466700,-0.129503,1.353677
2025-12-31T15:23:32.073221,8.834301,-3.613162,-0.263210,0.313984,-0.174707,1.398881
2025-12-31T15:23:32.082221,8.475377,-4.029513,-0.153140,0.183259,-0.322536,1.396437
2025-12-31T15:23:32.092221,8.724231,-4.594219,0.028713,0.119729,-0.507018,1.351233
2025-12-31T15:23:32.101221,9.322436,-5.283352,0.483350,0.135612,-0.651182,1.296255
2025-12-31T15:23:32.111221,10.255637,-5.747559,0.569491,0.194255,-0.719599,1.262047
2025-12-31T15:23:32.121221,11.112268,-6.168696,0.411565,0.305432,-0.669508,1.240056
2025-12-31T15:23:32.130221,11.657831,-6.364908,0.416351,0.478918,-0.530230,1.232725
2025-12-31T15:23:32.140221,11.791829,-6.288337,0.258424,0.643851,-0.327423,1.274264
2025-12-31T15:23:32.149221,11.399406,-5.881557,-0.081355,0.752585,-0.123394,1.332907
2025-12-31T15:23:32.159221,10.643274,-5.326423,-0.052642,0.780685,0.013439,1.374446
2025-12-31T15:23:32.169221,9.906285,-4.876572,0.196211,0.708603,0.030543,1.407433
2025-12-31T15:23:32.178221,9.370293,-4.632504,0.406779,0.499687,-0.074525,1.423315
2025-12-31T15:23:32.188221,9.217152,-4.905286,0.684347,0.206472,-0.257785,1.417207
2025-12-31T15:23:32.198221,9.509077,-5.479563,0.722632,-0.054977,-0.432492,1.389107
2025-12-31T15:23:32.207221,10.021141,-6.297909,0.837487,-0.252898,-0.551000,1.352455
2025-12-31T15:23:32.217221,10.648060,-7.111468,0.861416,-0.317649,-0.570548,1.334129
2025-12-31T15:23:32.226221,11.112268,-7.743173,0.799202,-0.218689,-0.472809,1.340238
2025-12-31T15:23:32.236221,11.207981,-8.087740,0.636490,-0.025656,-0.293215,1.359785
2025-12-31T15:23:32.246221,10.681560,-8.121239,0.497707,0.234572,-0.069638,1.382998
2025-12-31T15:23:32.255221,9.810572,-7.795816,0.564706,0.527787,0.130725,1.404989
2025-12-31T15:23:32.265221,8.767302,-7.130611,0.674775,0.713490,0.230907,1.428202
2025-12-31T15:23:32.274221,7.853243,-6.585047,0.626919,0.739146,0.206472,1.450193
2025-12-31T15:23:32.284221,7.283751,-6.192624,0.847059,0.646295,0.069638,1.455080
2025-12-31T15:23:32.294221,7.202396,-6.010770,1.205982,0.434935,-0.134390,1.441641
2025-12-31T15:23:32.303221,7.628318,-6.288337,1.210768,0.153938,-0.350636,1.419650
2025-12-31T15:23:32.313221,8.307880,-6.934399,1.272981,-0.081855,-0.500909,1.389107
2025-12-31T15:23:32.323221,9.198010,-7.599604,1.000199,-0.174707,-0.549778,1.354898
2025-12-31T15:23:32.332221,9.939785,-8.197810,0.488135,-0.128281,-0.471587,1.353677
2025-12-31T15:23:32.342221,10.188638,-8.638089,-0.023928,0.000000,-0.302989,1.368337
2025-12-31T15:23:32.351221,9.968498,-8.776873,-0.157926,0.193033,-0.119729,1.372003
2025-12-31T15:23:32.361221,9.408578,-8.752945,0.014356,0.386066,0.024434,1.357342
2025-12-31T15:23:32.371221,8.757730,-8.465806,0.110069,0.491135,0.086742,1.329242
2025-12-31T15:23:32.380221,8.279166,-8.188238,0.655633,0.518013,0.078190,1.280373
2025-12-31T15:23:32.390221,7.915457,-8.011170,0.981057,0.463035,0.024434,1.209512
2025-12-31T15:23:32.399221,7.881957,-7.953742,1.014556,0.310319,-0.046425,1.153313
2025-12-31T15:23:32.409221,7.944171,-8.154739,1.043270,0.135612,-0.114842,1.114217
2025-12-31T15:23:32.419221,8.087740,-8.389236,0.851844,-0.002443,-0.163711,1.108109
2025-12-31T15:23:32.428221,8.111668,-8.609375,0.751346,-0.068416,-0.167377,1.088561
2025-12-31T15:23:32.438221,8.006384,-8.877371,0.741775,-0.102625,-0.139277,1.061683
2025-12-31T15:23:32.448221,7.767102,-9.221938,0.765703,-0.116064,-0.113620,1.034805
2025-12-31T15:23:32.457221,7.561319,-9.614361,0.894915,-0.097738,-0.098960,0.984714
2025-12-31T15:23:32.467221,7.326822,-10.068997,0.875773,-0.067195,-0.098960,0.921184
2025-12-31T15:23:32.476221,7.274180,-10.566704,0.947557,-0.013439,-0.109955,0.866206
2025-12-31T15:23:32.486221,7.250252,-10.853843,0.957129,0.114842,-0.123394,0.812450
2025-12-31T15:23:32.496221,7.369893,-10.892128,0.775274,0.257785,-0.124616,0.775798
2025-12-31T15:23:32.505221,7.432106,-10.753344,0.583848,0.365297,-0.111177,0.758694
2025-12-31T15:23:32.515221,7.475177,-10.619346,0.579063,0.442266,-0.075747,0.755029
2025-12-31T15:23:32.524221,7.379464,-10.375278,0.770488,0.455705,-0.048869,0.750142
2025-12-31T15:23:32.534221,7.355536,-10.202995,0.990628,0.419053,-0.047647,0.714712
2025-12-31T15:23:32.544221,7.259823,-9.992427,1.201196,0.340862,-0.053756,0.665842
2025-12-31T15:23:32.553221,7.259823,-9.944570,1.378265,0.216246,-0.067195,0.603534
2025-12-31T15:23:32.563221,7.513462,-9.997212,1.540977,0.085521,-0.079412,0.552222
2025-12-31T15:23:32.573221,7.685746,-10.155139,1.406979,-0.021991,-0.065973,0.494800
2025-12-31T15:23:32.582221,7.743173,-10.179067,1.100698,-0.070860,-0.010995,0.454483
2025-12-31T15:23:32.592221,7.642675,-9.973284,0.832702,-0.019547,0.074525,0.405614
2025-12-31T15:23:32.601221,7.384250,-9.628718,0.746560,0.102625,0.151494,0.337197
2025-12-31T15:23:32.611221,7.063612,-9.087940,0.880558,0.196698,0.173485,0.249232
2025-12-31T15:23:32.621221,6.948756,-8.877371,1.272981,0.271224,0.149051,0.129503
2025-12-31T15:23:32.630221,6.996613,-8.566304,1.679761,0.326201,0.119729,-0.014660
2025-12-31T15:23:32.640221,7.111468,-8.240881,1.890329,0.328645,0.107512,-0.156381
2025-12-31T15:23:32.649221,7.240681,-7.963313,1.875972,0.289550,0.117286,-0.299323
2025-12-31T15:23:32.659221,7.259823,-7.762316,1.861615,0.221133,0.144164,-0.428827
2025-12-31T15:23:32.669221,7.264609,-7.719245,1.698904,0.116064,0.164933,-0.547335
2025-12-31T15:23:32.678221,7.240681,-7.700103,1.469193,-0.020769,0.163711,-0.654847
2025-12-31T15:23:32.688221,7.183253,-7.671389,1.129412,-0.111177,0.140498,-0.761137
2025-12-31T15:23:32.698221,7.173682,-7.513462,0.918843,-0.120951,0.109955,-0.893084
2025-12-31T15:23:32.707221,7.336394,-7.269395,0.937986,-0.128281,0.048869,-1.031140
2025-12-31T15:23:32.717221,7.747959,-7.293323,1.172483,-0.151494,-0.043982,-1.170417
2025-12-31T15:23:32.726221,8.403592,-7.542176,1.258624,-0.234572,-0.162490,-1.298699
2025-12-31T15:23:32.736221,9.336793,-8.087740,1.378265,-0.313984,-0.239459,-1.424537
2025-12-31T15:23:32.746221,10.207781,-8.312665,1.038485,-0.277332,-0.194255,-1.543045
2025-12-31T15:23:32.755221,10.485348,-8.250452,0.823130,-0.142942,-0.023212,-1.627344
2025-12-31T15:23:32.765221,10.212566,-7.781459,0.579063,0.021991,0.201585,-1.703091
2025-12-31T15:23:32.774221,9.231509,-7.049255,0.516849,0.189368,0.382401,-1.794721
2025-12-31T15:23:32.784221,8.183453,-6.044269,0.468993,0.305432,0.460592,-1.927890
2025-12-31T15:23:32.794221,7.255038,-5.048855,0.416351,0.349414,0.405614,-2.101375
2025-12-31T15:23:32.803221,6.896114,-4.287938,0.890130,0.266337,0.212581,-2.331061
2025-12-31T15:23:32.813221,7.451249,-3.857230,1.115055,0.012217,-0.120951,-2.560746
2025-12-31T15:23:32.823221,8.810372,-3.986442,1.191625,-0.299323,-0.461814,-2.773327
2025-12-31T15:23:32.832221,10.753344,-4.369294,1.158126,-0.551000,-0.623082,-2.952921
2025-12-31T15:23:32.842221,12.409178,-4.785645,0.937986,-0.744033,-0.537561,-3.025004
2025-12-31T15:23:32.851221,13.299308,-5.422136,0.569491,-0.995710,-0.331088,-2.956587
2025-12-31T15:23:32.861221,13.495519,-6.350551,0.110069,-1.242499,-0.059864,-2.857626
2025-12-31T15:23:32.871221,12.825529,-7.159325,-0.229710,-1.342681,0.211359,-2.772105
2025-12-31T15:23:32.880221,11.609975,-7.523034,-0.559920,-1.246164,0.393397,-2.726901
2025-12-31T15:23:32.890221,10.351350,-7.240681,-0.579063,-1.020144,0.392175,-2.762332
2025-12-31T15:23:32.899221,9.700502,-6.494120,-0.373280,-0.751364,0.174707,-2.867400
2025-12-31T15:23:32.909221,10.088140,-5.498706,0.483350,-0.505796,-0.171042,-3.037221
2025-12-31T15:23:32.919221,11.351550,-4.756931,1.057627,-0.447153,-0.474031,-3.186272
2025-12-31T15:23:32.928221,12.940384,-4.527220,0.928415,-0.499687,-0.548556,-3.240028
2025-12-31T15:23:32.938221,13.964512,-4.579862,0.397208,-0.469144,-0.302989,-3.225367
2025-12-31T15:23:32.948221,13.993226,-4.627718,0.033499,-0.393397,0.098960,-3.138624
2025-12-31T15:23:32.957221,13.083953,-4.694717,0.000000,-0.324980,0.427605,-3.037221
2025-12-31T15:23:32.967221,11.839686,-4.455435,-0.114855,-0.248011,0.583987,-2.949256
2025-12-31T15:23:32.976221,10.782058,-3.852444,-0.129212,-0.196698,0.543669,-2.904052
2025-12-31T15:23:32.986221,10.423135,-3.211167,0.440279,-0.261450,0.321315,-2.888170
2025-12-31T15:23:32.996221,10.810772,-2.646461,1.019342,-0.492357,-0.012217,-2.863735
2025-12-31T15:23:33.005221,11.940184,-2.163111,1.105484,-0.842993,-0.334754,-2.802649
2025-12-31T15:23:33.015221,13.237094,-2.096112,0.985842,-1.203404,-0.480139,-2.702467
2025-12-31T15:23:33.024221,14.280365,-2.335394,0.928415,-1.500284,-0.403170,-2.560746
2025-12-31T15:23:33.034221,14.567503,-2.694318,0.387637,-1.672548,-0.167377,-2.403143
2025-12-31T15:23:33.044221,14.055439,-3.273381,-0.033499,-1.667661,0.091629,-2.285857
2025-12-31T15:23:33.053221,13.203595,-3.747160,-0.244067,-1.489289,0.254119,-2.222327
2025-12-31T15:23:33.063221,12.504890,-4.058227,-0.492921,-1.197295,0.285884,-2.212553
2025-12-31T15:23:33.073221,12.208180,-4.249652,-0.636490,-0.825889,0.227241,-2.230879
2025-12-31T15:23:33.082221,12.078968,-4.130011,-0.813559,-0.386066,0.168598,-2.239431
2025-12-31T15:23:33.092221,12.098111,-3.785445,-0.689132,0.046425,0.157603,-2.202779
2025-12-31T15:23:33.101221,11.992826,-3.105883,-0.090927,0.408057,0.202807,-2.131919
2025-12-31T15:23:33.111221,11.662617,-2.282752,0.253639,0.629191,0.277332,-2.008524
2025-12-31T15:23:33.121221,11.054840,-1.320838,0.535992,0.691499,0.328645,-1.879021
2025-12-31T15:23:33.130221,10.394421,-0.626919,0.842273,0.612086,0.342084,-1.783726
2025-12-31T15:23:33.140221,9.753144,0.000000,0.909272,0.423940,0.305432,-1.703091
2025-12-31T15:23:33.149221,9.322436,0.397208,1.067198,0.185702,0.222354,-1.656666
2025-12-31T15:23:33.159221,8.944370,0.425922,1.086341,-0.105068,0.107512,-1.627344
2025-12-31T15:23:33.169221,8.877371,0.181854,0.947557,-0.382401,-0.002443,-1.594357
2025-12-31T15:23:33.178221,8.906085,-0.186640,0.631705,-0.554665,-0.074525,-1.556484
2025-12-31T15:23:33.188221,8.882157,-0.507278,0.229710,-0.626747,-0.113620,-1.499062
2025-12-31T15:23:33.198221,8.839086,-0.693918,-0.110069,-0.643851,-0.123394,-1.424537
2025-12-31T15:23:33.207221,8.767302,-0.909272,-0.454636,-0.580321,-0.122173,-1.339016
2025-12-31T15:23:33.217221,8.618947,-1.143769,-0.445065,-0.452040,-0.097738,-1.251051
2025-12-31T15:23:33.226221,8.350950,-1.143769,-0.239282,-0.306654,-0.053756,-1.154535
2025-12-31T15:23:33.236221,8.015955,-1.004985,-0.172283,-0.134390,-0.002443,-1.059240
2025-12-31T15:23:33.246221,7.752745,-0.689132,0.119641,0.026878,0.030543,-1.021366
2025-12-31T15:23:33.255221,7.527819,-0.507278,0.244067,0.091629,0.026878,-0.989601
2025-12-31T15:23:33.265221,7.465606,-0.330209,0.258424,0.129503,-0.012217,-0.955393
2025-12-31T15:23:33.274221,7.546962,0.023928,0.234496,0.129503,-0.059864,-0.911410
2025-12-31T15:23:33.284221,7.652246,0.239282,0.234496,0.056199,-0.080634,-0.828333
2025-12-31T15:23:33.294221,7.532605,0.459421,0.186640,-0.067195,-0.058643,-0.726929
2025-12-31T15:23:33.303221,7.159325,0.416351,0.047856,-0.190589,0.008552,-0.619417
2025-12-31T15:23:33.313221,6.441478,0.401994,0.038285,-0.287106,0.086742,-0.507018
2025-12-31T15:23:33.323221,5.642275,0.162711,0.157926,-0.392175,0.106290,-0.388510
2025-12-31T15:23:33.332221,4.780859,-0.038285,0.167497,-0.472809,0.057421,-0.284663
2025-12-31T15:23:33.342221,4.144368,-0.411565,0.224925,-0.498465,-0.028099,-0.216246
2025-12-31T15:23:33.351221,3.632304,-0.875773,0.521635,-0.459370,-0.117286,-0.171042
2025-12-31T15:23:33.361221,3.263810,-1.225125,0.684347,-0.368962,-0.205250,-0.136833
2025-12-31T15:23:33.371221,3.201596,-1.478764,0.780060,-0.221133,-0.287106,-0.112399
2025-12-31T15:23:33.380221,3.306880,-1.430907,0.760917,-0.057421,-0.345749,-0.075747
2025-12-31T15:23:33.390221,3.594019,-1.143769,0.765703,0.092851,-0.389731,-0.034208
2025-12-31T15:23:33.399221,3.962514,-0.646062,0.736989,0.188146,-0.401949,0.020769
2025-12-31T15:23:33.409221,4.211367,-0.172283,0.488135,0.179594,-0.376292,0.092851
2025-12-31T15:23:33.419221,4.240081,0.167497,0.459421,0.086742,-0.322536,0.190589
2025-12-31T15:23:33.428221,4.043870,0.210568,0.588634,-0.029321,-0.284663,0.285884
2025-12-31T15:23:33.438221,3.809373,0.248853,0.789631,-0.140498,-0.289550,0.356745
2025-12-31T15:23:33.448221,3.680161,0.191425,1.019342,-0.249232,-0.328645,0.405614
2025-12-31T15:23:33.457221,3.699303,0.004785,1.043270,-0.337197,-0.386066,0.430049
2025-12-31T15:23:33.467221,4.015156,-0.181854,0.933200,-0.366519,-0.466700,0.430049
2025-12-31T15:23:33.476221,4.680361,-0.157926,0.995414,-0.355523,-0.558330,0.401949
2025-12-31T15:23:33.486221,5.489135,-0.028713,0.842273,-0.338419,-0.632856,0.370184
2025-12-31T15:23:33.496221,6.589833,0.110069,0.507278,-0.323758,-0.662177,0.338419
2025-12-31T15:23:33.505221,7.494320,0.258424,-0.076570,-0.304210,-0.663399,0.311541
2025-12-31T15:23:33.515221,8.389236,0.406779,-0.435493,-0.257785,-0.684168,0.280997
2025-12-31T15:23:33.524221,9.432506,0.507278,-0.449850,-0.207694,-0.759916,0.235793
2025-12-31T15:23:33.534221,10.715059,0.464207,-0.512064,-0.160046,-0.861319,0.206472
2025-12-31T15:23:33.544221,12.011969,0.583848,-0.626919,-0.084299,-0.910189,0.191811
2025-12-31T15:23:33.553221,13.170095,0.751346,-0.569491,0.029321,-0.877202,0.191811
2025-12-31T15:23:33.563221,14.084153,1.052841,-0.555134,0.150272,-0.745255,0.219911
2025-12-31T15:23:33.573221,14.423934,1.344766,-0.574277,0.240680,-0.533896,0.265115
2025-12-31T15:23:33.582221,14.165509,1.674975,-0.224925,0.300545,-0.235793,0.322536
2025-12-31T15:23:33.592221,13.007383,1.780260,0.177068,0.305432,0.057421,0.400727
2025-12-31T15:23:33.601221,11.428120,1.804188,0.502492,0.282219,0.259006,0.470366
2025-12-31T15:23:33.611221,9.748359,1.641476,0.598205,0.254119,0.300545,0.507018
2025-12-31T15:23:33.621221,8.451449,1.411765,0.789631,0.249232,0.191811,0.526565
2025-12-31T15:23:33.630221,7.728816,1.244267,0.990628,0.307876,0.013439,0.525343
2025-12-31T15:23:33.640221,7.470392,1.330409,1.091127,0.412944,-0.160046,0.502131
2025-12-31T15:23:33.649221,7.666603,1.603191,1.124626,0.515570,-0.280997,0.472809
2025-12-31T15:23:33.659221,8.063812,2.120040,1.158126,0.587652,-0.332310,0.442266
2025-12-31T15:23:33.669221,8.662017,2.718246,1.076770,0.580321,-0.317649,0.417831
2025-12-31T15:23:33.678221,9.217152,3.302095,1.000199,0.441044,-0.255341,0.414166
2025-12-31T15:23:33.688221,9.604789,3.728017,0.890130,0.206472,-0.161268,0.425162
2025-12-31T15:23:33.698221,9.829715,3.933800,0.784845,-0.106290,-0.074525,0.421496
2025-12-31T15:23:33.707221,9.982855,3.924229,0.569491,-0.486248,-0.034208,0.417831
2025-12-31T15:23:33.717221,10.241280,3.570091,0.153140,-0.858876,-0.039095,0.401949
2025-12-31T15:23:33.726221,10.614561,3.086741,-0.105284,-1.138652,-0.079412,0.376292
2025-12-31T15:23:33.736221,10.992627,2.545963,-0.296710,-1.319468,-0.134390,0.338419
2025-12-31T15:23:33.746221,11.490334,1.904686,-0.464207,-1.412320,-0.169820,0.309097
2025-12-31T15:23:33.755221,11.796615,1.397408,-0.411565,-1.387885,-0.138055,0.282219
2025-12-31T15:23:33.765221,11.858828,0.890130,-0.378065,-1.259603,-0.041538,0.255341
2025-12-31T15:23:33.774221,11.461620,0.454636,-0.339780,-1.059240,0.103847,0.234572
2025-12-31T15:23:33.784221,10.849057,0.177068,-0.287138,-0.781907,0.240680,0.201585
2025-12-31T15:23:33.794221,10.016355,-0.023928,-0.196211,-0.445931,0.311541,0.135612
2025-12-31T15:23:33.803221,9.408578,0.114855,-0.200997,-0.119729,0.302989,0.064751
2025-12-31T15:23:33.813221,8.968299,0.363709,-0.205782,0.161268,0.234572,-0.018325
2025-12-31T15:23:33.823221,8.939585,0.665204,-0.100498,0.383623,0.133168,-0.089186
2025-12-31T15:23:33.832221,9.107082,1.048056,-0.114855,0.525343,0.031764,-0.149051
2025-12-31T15:23:33.842221,9.533005,1.483550,0.071784,0.580321,-0.024434,-0.172263
2025-12-31T15:23:33.851221,9.872786,1.789831,0.172283,0.548556,-0.024434,-0.167377
2025-12-31T15:23:33.861221,10.016355,1.976471,0.244067,0.438601,0.035430,-0.138055
2025-12-31T15:23:33.871221,9.920642,2.057827,0.349352,0.273667,0.122173,-0.089186
2025-12-31T15:23:33.880221,9.614361,1.890329,0.363709,0.086742,0.185702,-0.045204
2025-12-31T15:23:33.890221,9.265009,1.598405,0.354137,-0.085521,0.201585,-0.019547
2025-12-31T15:23:33.899221,9.135796,1.277767,0.272781,-0.222354,0.171042,-0.002443
2025-12-31T15:23:33.909221,9.178867,0.976271,0.095712,-0.304210,0.108733,0.014660
2025-12-31T15:23:33.919221,9.585647,0.904486,-0.047856,-0.329867,0.014660,0.019547
2025-12-31T15:23:33.928221,10.140782,0.894915,-0.062213,-0.332310,-0.075747,0.021991
2025-12-31T15:23:33.938221,10.777272,0.866201,-0.138783,-0.344527,-0.101403,0.043982
2025-12-31T15:23:33.948221,11.140982,0.851844,-0.043070,-0.357966,-0.026878,0.080634
2025-12-31T15:23:33.957221,11.064411,0.641276,-0.028713,-0.360410,0.125838,0.140498
2025-12-31T15:23:33.967221,10.504491,0.430708,0.124426,-0.333532,0.283441,0.186924
2025-12-31T15:23:33.976221,9.705288,0.191425,0.263210,-0.261450,0.372627,0.208915
2025-12-31T15:23:33.986221,8.939585,0.038285,0.368494,-0.164933,0.366519,0.201585
2025-12-31T15:23:33.996221,8.580661,0.023928,0.588634,-0.076969,0.278554,0.160046
2025-12-31T15:23:34.005221,8.537591,-0.057427,0.736989,-0.010995,0.158824,0.107512
2025-12-31T15:23:34.015221,8.901300,-0.124426,0.885344,0.043982,0.050090,0.064751
2025-12-31T15:23:34.024221,9.571290,-0.148355,0.655633,0.073303,-0.001221,0.045204
2025-12-31T15:23:34.034221,10.140782,-0.191425,0.416351,0.103847,0.029321,0.051312
2025-12-31T15:23:34.044221,10.557133,-0.110069,0.358923,0.123394,0.146607,0.080634
2025-12-31T15:23:34.053221,10.389635,-0.052642,0.406779,0.112399,0.307876,0.135612
2025-12-31T15:23:34.063221,9.820143,0.004785,0.435493,0.050090,0.471587,0.219911
2025-12-31T15:23:34.073221,9.001798,0.023928,0.579063,-0.061086,0.563217,0.293215
2025-12-31T15:23:34.082221,8.169096,-0.181854,0.669990,-0.182037,0.531452,0.345749
2025-12-31T15:23:34.092221,7.714460,-0.411565,0.535992,-0.262671,0.393397,0.371405
2025-12-31T15:23:34.101221,7.637889,-0.626919,0.492921,-0.283441,0.210137,0.370184
2025-12-31T15:23:34.111221,7.934599,-0.957129,0.684347,-0.250454,0.061086,0.365297
2025-12-31T15:23:34.121221,8.260023,-1.392622,0.794417,-0.125838,0.013439,0.365297
2025-12-31T15:23:34.130221,8.504091,-1.517049,0.775274,0.064751,0.078190,0.378736
2025-12-31T15:23:34.140221,8.432306,-1.521835,0.655633,0.268780,0.216246,0.409279
2025-12-31T15:23:34.149221,7.982456,-1.277767,0.425922,0.481361,0.382401,0.441044
2025-12-31T15:23:34.159221,7.283751,-0.933200,0.378065,0.665842,0.505796,0.467922
2025-12-31T15:23:34.169221,6.513263,-0.574277,0.488135,0.757472,0.533896,0.487470
2025-12-31T15:23:34.178221,6.072983,-0.311066,0.708275,0.777020,0.461814,0.500909
2025-12-31T15:23:34.188221,5.972485,-0.028713,0.794417,0.742811,0.327423,0.519235
2025-12-31T15:23:34.198221,6.235695,0.100498,0.894915,0.662177,0.174707,0.547335
2025-12-31T15:23:34.207221,6.776473,0.148355,0.861416,0.554665,0.050090,0.588873
2025-12-31T15:23:34.217221,7.470392,0.186640,0.837487,0.449596,-0.013439,0.632856
2025-12-31T15:23:34.226221,8.039883,0.220139,0.684347,0.331088,-0.026878,0.681725
2025-12-31T15:23:34.236221,8.532805,0.177068,0.856630,0.216246,-0.001221,0.733038
2025-12-31T15:23:34.246221,8.925228,0.062213,0.894915,0.125838,0.052534,0.783129
2025-12-31T15:23:34.255221,9.097511,-0.138783,0.856630,0.050090,0.133168,0.827111
2025-12-31T15:23:34.265221,9.107082,-0.277567,0.512064,-0.021991,0.249232,0.862541
2025-12-31T15:23:34.274221,8.843872,-0.459421,0.315852,-0.059864,0.368962,0.891863
2025-12-31T15:23:34.284221,8.451449,-0.545563,0.277567,-0.075747,0.441044,0.911410
2025-12-31T15:23:34.294221,7.992027,-0.689132,0.445065,-0.107512,0.463035,0.927293
2025-12-31T15:23:34.303221,7.508677,-0.890130,0.512064,-0.150272,0.443488,0.941954
2025-12-31T15:23:34.313221,7.101897,-1.095912,0.598205,-0.152716,0.390953,0.955393
2025-12-31T15:23:34.323221,6.800401,-1.249053,0.803988,-0.134390,0.295658,0.982271
2025-12-31T15:23:34.332221,6.790830,-1.454836,0.727418,-0.101403,0.141720,1.012814
2025-12-31T15:23:34.342221,7.159325,-1.569691,0.722632,-0.020769,-0.019547,1.042135
2025-12-31T15:23:34.351221,7.757530,-1.689332,0.794417,0.096516,-0.120951,1.086118
2025-12-31T15:23:34.361221,8.269594,-1.823330,0.765703,0.229685,-0.120951,1.153313
2025-12-31T15:23:34.371221,8.590233,-1.842473,0.473778,0.356745,-0.032986,1.240056
2025-12-31T15:23:34.380221,8.580661,-1.756331,0.124426,0.455705,0.074525,1.325577
2025-12-31T15:23:34.390221,8.456235,-1.598405,-0.038285,0.514348,0.138055,1.387885
2025-12-31T15:23:34.399221,8.250452,-1.536192,0.081355,0.514348,0.131946,1.417207
2025-12-31T15:23:34.409221,8.202595,-1.584048,0.210568,0.469144,0.081855,1.411098
2025-12-31T15:23:34.419221,8.331808,-1.694118,0.301495,0.436157,0.017104,1.375668
2025-12-31T15:23:34.428221,8.461020,-1.785045,0.244067,0.439822,-0.031764,1.332907
2025-12-31T15:23:34.438221,8.705088,-1.981257,0.373280,0.489913,-0.040317,1.281595
2025-12-31T15:23:34.448221,8.863014,-1.914258,0.397208,0.596204,-0.031764,1.241277
2025-12-31T15:23:34.457221,8.968299,-1.737189,0.373280,0.697607,-0.023212,1.227838
2025-12-31T15:23:34.467221,9.020941,-1.550549,0.354137,0.747698,-0.008552,1.232725
2025-12-31T15:23:34.476221,8.987441,-1.354337,0.267996,0.729372,-0.004886,1.255938
2025-12-31T15:23:34.486221,8.953942,-1.359123,0.052642,0.660956,-0.013439,1.293812
