Timestamp,Acceleration_X,Acceleration_Y,Acceleration_Z,Gyro_X,Gyro_Y,Gyro_Z
2025-12-31T15:59:04.560073,9.475577,-2.756531,1.143769,0.000000,-0.145385,-0.128281
2025-12-31T15:59:04.570073,9.437292,-2.708675,1.071984,-0.012217,-0.150272,-0.130725
2025-12-31T15:59:04.579073,9.427721,-2.790031,1.071984,-0.010995,-0.160046,-0.136833
2025-12-31T15:59:04.589073,9.446863,-2.790031,0.981057,0.002443,-0.177150,-0.142942
2025-12-31T15:59:04.598073,9.470791,-2.780459,1.024128,0.019547,-0.180816,-0.149051
2025-12-31T15:59:04.608073,9.475577,-2.770888,1.062413,0.036651,-0.184481,-0.157603
2025-12-31T15:59:04.618073,9.489934,-2.703889,1.028913,0.054977,-0.185702,-0.164933
2025-12-31T15:59:04.627073,9.475577,-2.660818,1.024128,0.062308,-0.193033,-0.178372
2025-12-31T15:59:04.637073,9.561719,-2.651247,1.095912,0.062308,-0.211359,-0.182037
2025-12-31T15:59:04.647073,9.643075,-2.665604,1.071984,0.058643,-0.223576,-0.185702
2025-12-31T15:59:04.656073,9.657432,-2.708675,1.095912,0.062308,-0.226020,-0.193033
2025-12-31T15:59:04.666073,9.633503,-2.684746,1.067198,0.069638,-0.219911,-0.190589
2025-12-31T15:59:04.675073,9.585647,-2.627319,1.019342,0.067195,-0.205250,-0.182037
2025-12-31T15:59:04.685073,9.566504,-2.522035,0.985842,0.050090,-0.204028,-0.179594
2025-12-31T15:59:04.695073,9.528219,-2.603390,0.995414,0.024434,-0.226020,-0.189368
2025-12-31T15:59:04.704073,9.566504,-2.612962,0.971485,0.026878,-0.246789,-0.194255
2025-12-31T15:59:04.714073,9.738787,-2.531606,1.028913,0.047647,-0.263893,-0.204028
2025-12-31T15:59:04.723073,9.839286,-2.478964,1.048056,0.041538,-0.276111,-0.210137
2025-12-31T15:59:04.733073,9.896714,-2.431107,1.071984,0.023212,-0.277332,-0.210137
2025-12-31T15:59:04.743073,10.030712,-2.388036,1.033699,0.001221,-0.256563,-0.204028
2025-12-31T15:59:04.752073,9.978070,-2.349751,0.947557,-0.034208,-0.223576,-0.189368
2025-12-31T15:59:04.762073,9.882357,-2.249253,0.990628,-0.068416,-0.172263,-0.169820
2025-12-31T15:59:04.772073,9.724431,-2.249253,1.043270,-0.094073,-0.112399,-0.149051
2025-12-31T15:59:04.781073,9.437292,-2.206182,1.167697,-0.134390,-0.068416,-0.135612
2025-12-31T15:59:04.791073,9.241080,-2.325823,1.210768,-0.175929,-0.059864,-0.116064
2025-12-31T15:59:04.800073,9.025726,-2.464607,1.287338,-0.188146,-0.074525,-0.100181
2025-12-31T15:59:04.810073,8.973084,-2.541177,1.368694,-0.188146,-0.106290,-0.094073
2025-12-31T15:59:04.820073,9.016155,-2.665604,1.205982,-0.171042,-0.151494,-0.098960
2025-12-31T15:59:04.829073,9.131011,-2.665604,1.215553,-0.118507,-0.186924,-0.108733
2025-12-31T15:59:04.839073,9.355936,-2.589034,1.210768,-0.061086,-0.190589,-0.114842
2025-12-31T15:59:04.848073,9.585647,-2.402393,1.210768,-0.035430,-0.164933,-0.107512
2025-12-31T15:59:04.858073,9.667003,-2.388036,1.158126,-0.061086,-0.130725,-0.103847
2025-12-31T15:59:04.868073,9.786644,-2.488535,1.186840,-0.094073,-0.096516,-0.103847
2025-12-31T15:59:04.877073,9.863214,-2.545963,1.067198,-0.106290,-0.050090,-0.087964
2025-12-31T15:59:04.887073,9.848857,-2.478964,1.038485,-0.107512,-0.003665,-0.068416
2025-12-31T15:59:04.897073,9.887142,-2.469392,0.976271,-0.133168,0.035430,-0.059864
2025-12-31T15:59:04.906073,9.810572,-2.431107,0.923629,-0.175929,0.054977,-0.048869
2025-12-31T15:59:04.916073,9.858429,-2.474178,0.995414,-0.228463,0.067195,-0.025656
2025-12-31T15:59:04.925073,9.997212,-2.636890,0.957129,-0.270002,0.064751,-0.014660
2025-12-31T15:59:04.935073,10.179067,-2.751745,1.038485,-0.272445,0.062308,-0.007330
2025-12-31T15:59:04.945073,10.341779,-2.770888,1.062413,-0.252898,0.083077,0.002443
2025-12-31T15:59:04.954073,10.456634,-2.675175,0.957129,-0.232128,0.116064,0.021991
2025-12-31T15:59:04.964073,10.494919,-2.598605,0.942772,-0.226020,0.160046,0.050090
2025-12-31T15:59:04.973073,10.394421,-2.512463,0.923629,-0.251676,0.210137,0.081855
2025-12-31T15:59:04.983073,10.250852,-2.584248,0.880558,-0.299323,0.246789,0.117286
2025-12-31T15:59:04.993073,10.073783,-2.651247,0.823130,-0.322536,0.270002,0.155159
2025-12-31T15:59:05.002073,9.844072,-2.804388,0.813559,-0.315206,0.280997,0.189368
2025-12-31T15:59:05.012073,9.633503,-2.947957,0.775274,-0.287106,0.282219,0.222354
2025-12-31T15:59:05.022073,9.485148,-2.938386,0.842273,-0.238237,0.271224,0.241902
2025-12-31T15:59:05.031073,9.375078,-2.880958,0.957129,-0.175929,0.261450,0.254119
2025-12-31T15:59:05.041073,9.317651,-2.818745,1.000199,-0.113620,0.257785,0.266337
2025-12-31T15:59:05.050073,9.198010,-2.713460,1.071984,-0.065973,0.255341,0.282219
2025-12-31T15:59:05.060073,9.083154,-2.565105,1.028913,-0.040317,0.267558,0.293215
2025-12-31T15:59:05.070073,8.953942,-2.512463,1.081555,-0.046425,0.270002,0.307876
2025-12-31T15:59:05.079073,8.848657,-2.450250,1.000199,-0.080634,0.261450,0.318871
2025-12-31T15:59:05.089073,8.848657,-2.531606,0.947557,-0.117286,0.240680,0.323758
2025-12-31T15:59:05.098073,8.815158,-2.651247,1.028913,-0.122173,0.200363,0.316428
2025-12-31T15:59:05.108073,8.977870,-2.723032,0.990628,-0.105068,0.158824,0.295658
2025-12-31T15:59:05.118073,9.040083,-2.670390,0.942772,-0.081855,0.136833,0.270002
2025-12-31T15:59:05.127073,9.169296,-2.541177,0.971485,-0.075747,0.140498,0.244346
2025-12-31T15:59:05.137073,9.260223,-2.608176,0.933200,-0.089186,0.155159,0.222354
2025-12-31T15:59:05.147073,9.221938,-2.622533,0.971485,-0.107512,0.169820,0.193033
2025-12-31T15:59:05.156073,9.116654,-2.694318,1.033699,-0.125838,0.182037,0.168598
2025-12-31T15:59:05.166073,9.001798,-2.780459,1.009771,-0.134390,0.174707,0.147829
2025-12-31T15:59:05.175073,8.939585,-2.828316,1.024128,-0.133168,0.155159,0.128281
2025-12-31T15:59:05.185073,8.863014,-2.924029,1.062413,-0.129503,0.118507,0.106290
2025-12-31T15:59:05.195073,8.934799,-3.005385,1.052841,-0.123394,0.070860,0.086742
2025-12-31T15:59:05.204073,9.092725,-3.038884,1.119840,-0.108733,0.021991,0.070860
2025-12-31T15:59:05.214073,9.255437,-3.081955,1.143769,-0.084299,-0.009773,0.061086
2025-12-31T15:59:05.223073,9.394221,-3.163311,1.196411,-0.058643,-0.026878,0.047647
2025-12-31T15:59:05.233073,9.542576,-3.134597,1.258624,-0.037873,-0.030543,0.041538
2025-12-31T15:59:05.243073,9.657432,-3.182454,1.258624,-0.014660,-0.030543,0.041538
2025-12-31T15:59:05.252073,9.748359,-3.196810,1.306481,0.007330,-0.028099,0.042760
2025-12-31T15:59:05.262073,9.839286,-3.220739,1.277767,0.023212,-0.032986,0.045204
2025-12-31T15:59:05.272073,9.934999,-3.163311,1.272981,0.036651,-0.040317,0.054977
2025-12-31T15:59:05.281073,10.054640,-3.187239,1.268195,0.051312,-0.043982,0.070860
2025-12-31T15:59:05.291073,10.059426,-3.192025,1.287338,0.053756,-0.037873,0.092851
2025-12-31T15:59:05.300073,10.126425,-3.144168,1.392622,0.053756,-0.012217,0.117286
2025-12-31T15:59:05.310073,10.001998,-3.134597,1.411765,0.053756,0.013439,0.144164
2025-12-31T15:59:05.320073,9.968498,-3.125026,1.493121,0.056199,0.023212,0.174707
2025-12-31T15:59:05.329073,9.848857,-3.177668,1.478764,0.075747,0.029321,0.204028
2025-12-31T15:59:05.339073,9.724431,-3.148954,1.517049,0.105068,0.040317,0.227241
2025-12-31T15:59:05.348073,9.595218,-2.967100,1.550549,0.125838,0.052534,0.245567
2025-12-31T15:59:05.358073,9.461220,-2.957528,1.560120,0.141720,0.062308,0.262671
2025-12-31T15:59:05.368073,9.298508,-3.034099,1.502692,0.158824,0.062308,0.276111
2025-12-31T15:59:05.377073,9.188438,-3.014956,1.612762,0.185702,0.053756,0.277332
2025-12-31T15:59:05.387073,9.131011,-2.991028,1.526620,0.213802,0.041538,0.274889
2025-12-31T15:59:05.397073,9.107082,-2.947957,1.560120,0.241902,0.024434,0.268780
2025-12-31T15:59:05.406073,9.097511,-2.828316,1.478764,0.262671,0.006108,0.254119
2025-12-31T15:59:05.416073,9.221938,-2.794816,1.397408,0.262671,-0.004886,0.235793
2025-12-31T15:59:05.425073,9.178867,-2.737389,1.373480,0.250454,-0.013439,0.211359
2025-12-31T15:59:05.435073,9.322436,-2.746960,1.349551,0.238237,-0.021991,0.184481
2025-12-31T15:59:05.445073,9.365507,-2.775674,1.378265,0.232128,-0.019547,0.156381
2025-12-31T15:59:05.454073,9.456434,-2.813959,1.378265,0.234572,-0.014660,0.129503
2025-12-31T15:59:05.464073,9.480363,-2.809173,1.392622,0.243124,-0.003665,0.103847
2025-12-31T15:59:05.473073,9.485148,-2.746960,1.359123,0.250454,0.006108,0.084299
2025-12-31T15:59:05.483073,9.552147,-2.675175,1.277767,0.237015,0.009773,0.068416
2025-12-31T15:59:05.493073,9.509077,-2.703889,1.258624,0.207694,0.010995,0.062308
2025-12-31T15:59:05.502073,9.480363,-2.708675,1.229910,0.177150,0.007330,0.058643
2025-12-31T15:59:05.512073,9.552147,-2.804388,1.229910,0.158824,0.003665,0.057421
2025-12-31T15:59:05.522073,9.518648,-2.770888,1.196411,0.155159,0.003665,0.061086
2025-12-31T15:59:05.531073,9.528219,-2.900100,1.263410,0.166155,0.000000,0.062308
2025-12-31T15:59:05.541073,9.542576,-2.861815,1.239482,0.177150,0.000000,0.065973
2025-12-31T15:59:05.550073,9.518648,-2.861815,1.268195,0.190589,-0.004886,0.072082
2025-12-31T15:59:05.560073,9.518648,-2.780459,1.182054,0.199142,0.000000,0.076969
2025-12-31T15:59:05.570073,9.537790,-2.746960,1.201196,0.196698,0.012217,0.089186
2025-12-31T15:59:05.579073,9.394221,-2.660818,1.143769,0.183259,0.020769,0.095294
2025-12-31T15:59:05.589073,9.288937,-2.670390,1.167697,0.160046,0.029321,0.105068
2025-12-31T15:59:05.598073,9.255437,-2.756531,1.076770,0.136833,0.026878,0.113620
2025-12-31T15:59:05.608073,9.121439,-2.766102,1.038485,0.120951,0.013439,0.111177
2025-12-31T15:59:05.618073,9.116654,-2.794816,1.033699,0.114842,-0.002443,0.102625
2025-12-31T15:59:05.627073,9.159724,-2.828316,1.148554,0.125838,-0.015882,0.084299
2025-12-31T15:59:05.637073,9.188438,-2.770888,1.263410,0.142942,-0.015882,0.065973
2025-12-31T15:59:05.647073,9.241080,-2.703889,1.335195,0.150272,-0.015882,0.042760
2025-12-31T15:59:05.656073,9.250652,-2.598605,1.373480,0.133168,-0.013439,0.030543
2025-12-31T15:59:05.666073,9.255437,-2.574677,1.435693,0.095294,-0.015882,0.021991
2025-12-31T15:59:05.675073,9.274580,-2.608176,1.483550,0.057421,-0.021991,0.013439
2025-12-31T15:59:05.685073,9.288937,-2.689532,1.478764,0.025656,-0.031764,0.013439
2025-12-31T15:59:05.695073,9.370293,-2.746960,1.402194,-0.006108,-0.042760,0.012217
2025-12-31T15:59:05.704073,9.418149,-2.818745,1.311266,-0.030543,-0.048869,0.009773
2025-12-31T15:59:05.714073,9.379864,-2.947957,1.325623,-0.041538,-0.046425,0.017104
2025-12-31T15:59:05.723073,9.355936,-3.058027,1.268195,-0.040317,-0.047647,0.019547
2025-12-31T15:59:05.733073,9.355936,-3.081955,1.292124,-0.028099,-0.046425,0.015882
2025-12-31T15:59:05.743073,9.284151,-3.158525,1.225125,-0.004886,-0.053756,0.012217
2025-12-31T15:59:05.752073,9.360722,-3.182454,1.263410,0.018325,-0.064751,0.004886
2025-12-31T15:59:05.762073,9.365507,-3.192025,1.258624,0.048869,-0.080634,0.000000
2025-12-31T15:59:05.772073,9.360722,-3.172882,1.296909,0.073303,-0.079412,0.001221
2025-12-31T15:59:05.781073,9.461220,-3.163311,1.440479,0.086742,-0.064751,0.003665
2025-12-31T15:59:05.791073,9.432506,-3.077169,1.440479,0.089186,-0.043982,0.007330
2025-12-31T15:59:05.800073,9.375078,-2.976671,1.469193,0.087964,-0.023212,0.017104
2025-12-31T15:59:05.810073,9.293722,-2.914457,1.493121,0.070860,-0.012217,0.029321
2025-12-31T15:59:05.820073,9.245866,-2.866601,1.531406,0.040317,-0.010995,0.037873
2025-12-31T15:59:05.829073,9.322436,-2.928814,1.531406,-0.001221,-0.031764,0.041538
2025-12-31T15:59:05.839073,9.394221,-3.067598,1.588834,-0.036651,-0.054977,0.046425
2025-12-31T15:59:05.848073,9.489934,-3.101098,1.569691,-0.050090,-0.065973,0.048869
2025-12-31T15:59:05.858073,9.652646,-3.110669,1.593619,-0.048869,-0.056199,0.047647
2025-12-31T15:59:05.868073,9.619146,-3.086741,1.607976,-0.051312,-0.021991,0.056199
2025-12-31T15:59:05.877073,9.590432,-2.971885,1.531406,-0.067195,0.012217,0.061086
2025-12-31T15:59:05.887073,9.552147,-2.995813,1.521835,-0.100181,0.037873,0.078190
2025-12-31T15:59:05.897073,9.432506,-3.038884,1.512263,-0.139277,0.043982,0.091629
2025-12-31T15:59:05.906073,9.437292,-3.110669,1.478764,-0.158824,0.040317,0.097738
2025-12-31T15:59:05.916073,9.370293,-3.182454,1.497906,-0.151494,0.032986,0.101403
2025-12-31T15:59:05.925073,9.336793,-3.153740,1.545763,-0.130725,0.029321,0.106290
2025-12-31T15:59:05.935073,9.346365,-3.096312,1.540977,-0.108733,0.030543,0.106290
2025-12-31T15:59:05.945073,9.365507,-3.048455,1.569691,-0.096516,0.036651,0.107512
2025-12-31T15:59:05.954073,9.341579,-3.053241,1.588834,-0.096516,0.040317,0.108733
2025-12-31T15:59:05.964073,9.351150,-2.991028,1.469193,-0.102625,0.034208,0.106290
2025-12-31T15:59:05.973073,9.322436,-3.072384,1.560120,-0.098960,0.029321,0.102625
2025-12-31T15:59:05.983073,9.303294,-3.134597,1.517049,-0.094073,0.023212,0.094073
2025-12-31T15:59:05.993073,9.269794,-3.086741,1.497906,-0.086742,0.013439,0.083077
2025-12-31T15:59:06.002073,9.274580,-3.086741,1.512263,-0.068416,0.012217,0.065973
2025-12-31T15:59:06.012073,9.178867,-3.019742,1.497906,-0.057421,0.012217,0.051312
2025-12-31T15:59:06.022073,9.212367,-3.086741,1.540977,-0.056199,0.003665,0.040317
2025-12-31T15:59:06.031073,9.159724,-3.053241,1.478764,-0.053756,-0.010995,0.023212
2025-12-31T15:59:06.041073,9.217152,-3.086741,1.512263,-0.042760,-0.019547,0.010995
2025-12-31T15:59:06.050073,9.284151,-3.086741,1.536192,-0.029321,-0.030543,-0.006108
2025-12-31T15:59:06.060073,9.317651,-3.120240,1.536192,-0.023212,-0.039095,-0.019547
2025-12-31T15:59:06.070073,9.379864,-3.158525,1.555334,-0.017104,-0.052534,-0.035430
2025-12-31T15:59:06.079073,9.518648,-3.187239,1.560120,-0.007330,-0.056199,-0.042760
2025-12-31T15:59:06.089073,9.600004,-3.139383,1.550549,-0.001221,-0.063529,-0.048869
2025-12-31T15:59:06.098073,9.695717,-3.144168,1.540977,0.001221,-0.058643,-0.053756
2025-12-31T15:59:06.108073,9.705288,-3.125026,1.502692,-0.007330,-0.040317,-0.050090
2025-12-31T15:59:06.118073,9.690931,-3.086741,1.473978,-0.014660,-0.006108,-0.039095
2025-12-31T15:59:06.127073,9.623932,-3.096312,1.517049,-0.026878,0.031764,-0.026878
2025-12-31T15:59:06.137073,9.442077,-3.115455,1.531406,-0.051312,0.056199,-0.009773
2025-12-31T15:59:06.147073,9.308079,-3.134597,1.454836,-0.059864,0.059864,0.000000
2025-12-31T15:59:06.156073,9.198010,-3.158525,1.483550,-0.051312,0.051312,0.004886
2025-12-31T15:59:06.166073,9.073583,-3.120240,1.483550,-0.042760,0.037873,0.003665
2025-12-31T15:59:06.175073,9.107082,-3.120240,1.526620,-0.031764,0.009773,-0.001221
2025-12-31T15:59:06.185073,9.150153,-3.144168,1.507478,-0.020769,-0.013439,-0.008552
2025-12-31T15:59:06.195073,9.236295,-3.196810,1.555334,-0.009773,-0.026878,-0.017104
2025-12-31T15:59:06.204073,9.241080,-3.187239,1.550549,0.019547,-0.025656,-0.026878
2025-12-31T15:59:06.214073,9.236295,-3.192025,1.512263,0.047647,-0.008552,-0.034208
2025-12-31T15:59:06.223073,9.145367,-3.005385,1.627119,0.045204,0.003665,-0.043982
2025-12-31T15:59:06.233073,9.068797,-3.034099,1.627119,0.032986,0.003665,-0.052534
2025-12-31T15:59:06.243073,9.020941,-3.019742,1.564905,0.019547,-0.019547,-0.056199
2025-12-31T15:59:06.252073,9.140582,-3.105883,1.569691,0.003665,-0.053756,-0.065973
2025-12-31T15:59:06.262073,9.183653,-3.081955,1.521835,0.000000,-0.074525,-0.072082
2025-12-31T15:59:06.272073,9.293722,-3.158525,1.531406,0.006108,-0.069638,-0.069638
2025-12-31T15:59:06.281073,9.379864,-3.105883,1.526620,0.000000,-0.054977,-0.065973
2025-12-31T15:59:06.291073,9.288937,-3.115455,1.402194,-0.015882,-0.036651,-0.061086
2025-12-31T15:59:06.300073,9.288937,-3.163311,1.411765,-0.023212,-0.020769,-0.059864
2025-12-31T15:59:06.310073,9.269794,-3.244667,1.445264,-0.026878,-0.020769,-0.053756
2025-12-31T15:59:06.320073,9.241080,-3.220739,1.397408,-0.019547,-0.029321,-0.052534
2025-12-31T15:59:06.329073,9.293722,-3.187239,1.459621,-0.010995,-0.030543,-0.046425
2025-12-31T15:59:06.339073,9.245866,-3.144168,1.550549,-0.013439,-0.029321,-0.041538
2025-12-31T15:59:06.348073,9.236295,-3.225524,1.488335,-0.014660,-0.030543,-0.034208
2025-12-31T15:59:06.358073,9.245866,-3.172882,1.569691,-0.019547,-0.031764,-0.023212
2025-12-31T15:59:06.368073,9.346365,-3.148954,1.564905,-0.029321,-0.039095,-0.014660
2025-12-31T15:59:06.377073,9.351150,-3.125026,1.464407,-0.050090,-0.043982,-0.007330
2025-12-31T15:59:06.387073,9.370293,-3.153740,1.454836,-0.068416,-0.051312,-0.001221
2025-12-31T15:59:06.397073,9.432506,-3.249453,1.459621,-0.063529,-0.059864,0.003665
2025-12-31T15:59:06.406073,9.504291,-3.393022,1.493121,-0.046425,-0.061086,0.002443
2025-12-31T15:59:06.416073,9.513862,-3.311666,1.483550,-0.019547,-0.052534,-0.001221
2025-12-31T15:59:06.425073,9.518648,-3.249453,1.550549,0.006108,-0.029321,0.004886
2025-12-31T15:59:06.435073,9.494720,-3.086741,1.536192,0.000000,-0.014660,0.013439
2025-12-31T15:59:06.445073,9.389435,-3.110669,1.555334,-0.030543,-0.010995,0.028099
2025-12-31T15:59:06.454073,9.308079,-3.172882,1.497906,-0.052534,-0.015882,0.036651
2025-12-31T15:59:06.464073,9.427721,-3.196810,1.641476,-0.050090,-0.013439,0.043982
2025-12-31T15:59:06.473073,9.308079,-3.201596,1.493121,-0.040317,-0.008552,0.056199
2025-12-31T15:59:06.483073,9.332008,-3.201596,1.564905,-0.030543,0.000000,0.056199
2025-12-31T15:59:06.493073,9.164510,-3.148954,1.569691,-0.013439,0.014660,0.062308
2025-12-31T15:59:06.502073,9.116654,-3.014956,1.588834,-0.019547,0.015882,0.069638
2025-12-31T15:59:06.512073,9.154939,-3.010170,1.536192,-0.051312,0.006108,0.074525
2025-12-31T15:59:06.522073,9.087940,-3.115455,1.627119,-0.075747,-0.008552,0.079412
2025-12-31T15:59:06.531073,9.207581,-3.115455,1.560120,-0.083077,-0.024434,0.081855
2025-12-31T15:59:06.541073,9.303294,-3.196810,1.502692,-0.073303,-0.034208,0.076969
2025-12-31T15:59:06.550073,9.389435,-3.182454,1.531406,-0.059864,-0.024434,0.074525
2025-12-31T15:59:06.560073,9.413364,-3.192025,1.483550,-0.043982,-0.007330,0.072082
2025-12-31T15:59:06.570073,9.365507,-3.182454,1.598405,-0.030543,0.012217,0.069638
2025-12-31T15:59:06.579073,9.303294,-3.139383,1.579262,-0.026878,0.014660,0.065973
2025-12-31T15:59:06.589073,9.269794,-3.062812,1.584048,-0.026878,0.003665,0.068416
2025-12-31T15:59:06.598073,9.265009,-3.072384,1.555334,-0.035430,-0.012217,0.067195
2025-12-31T15:59:06.608073,9.360722,-3.034099,1.488335,-0.052534,-0.026878,0.068416
2025-12-31T15:59:06.618073,9.408578,-3.110669,1.488335,-0.073303,-0.025656,0.072082
2025-12-31T15:59:06.627073,9.394221,-3.187239,1.473978,-0.069638,-0.009773,0.067195
2025-12-31T15:59:06.637073,9.394221,-3.192025,1.588834,-0.047647,0.012217,0.068416
2025-12-31T15:59:06.647073,9.269794,-3.129811,1.545763,-0.036651,0.024434,0.069638
2025-12-31T15:59:06.656073,9.221938,-2.952743,1.564905,-0.043982,0.023212,0.072082
2025-12-31T15:59:06.666073,9.250652,-2.995813,1.569691,-0.068416,0.007330,0.074525
2025-12-31T15:59:06.675073,9.164510,-3.043670,1.512263,-0.102625,-0.015882,0.072082
2025-12-31T15:59:06.685073,9.226723,-3.153740,1.440479,-0.111177,-0.036651,0.070860
2025-12-31T15:59:06.695073,9.241080,-3.268595,1.406979,-0.086742,-0.041538,0.065973
2025-12-31T15:59:06.704073,9.303294,-3.278166,1.392622,-0.046425,-0.041538,0.056199
2025-12-31T15:59:06.714073,9.322436,-3.168097,1.450050,-0.012217,-0.037873,0.040317
2025-12-31T15:59:06.723073,9.322436,-3.144168,1.411765,0.004886,-0.040317,0.028099
2025-12-31T15:59:06.733073,9.308079,-3.225524,1.464407,0.019547,-0.042760,0.015882
2025-12-31T15:59:06.743073,9.327222,-3.139383,1.502692,0.037873,-0.048869,0.002443
2025-12-31T15:59:06.752073,9.288937,-3.139383,1.512263,0.050090,-0.056199,-0.009773
2025-12-31T15:59:06.762073,9.312865,-3.115455,1.631905,0.054977,-0.064751,-0.018325
2025-12-31T15:59:06.772073,9.312865,-3.043670,1.646261,0.045204,-0.069638,-0.028099
2025-12-31T15:59:06.781073,9.403792,-3.110669,1.607976,0.030543,-0.074525,-0.034208
2025-12-31T15:59:06.791073,9.418149,-3.105883,1.579262,0.017104,-0.069638,-0.032986
2025-12-31T15:59:06.800073,9.384650,-3.168097,1.545763,0.003665,-0.052534,-0.030543
2025-12-31T15:59:06.810073,9.351150,-3.182454,1.526620,0.001221,-0.040317,-0.024434
2025-12-31T15:59:06.820073,9.288937,-3.158525,1.560120,0.009773,-0.032986,-0.023212
2025-12-31T15:59:06.829073,9.255437,-3.168097,1.603191,0.010995,-0.029321,-0.018325
2025-12-31T15:59:06.839073,9.245866,-3.110669,1.627119,-0.003665,-0.032986,-0.008552
2025-12-31T15:59:06.848073,9.336793,-3.115455,1.655833,-0.026878,-0.036651,0.006108
2025-12-31T15:59:06.858073,9.317651,-3.115455,1.536192,-0.050090,-0.047647,0.018325
2025-12-31T15:59:06.868073,9.403792,-3.144168,1.445264,-0.072082,-0.048869,0.032986
2025-12-31T15:59:06.877073,9.394221,-3.192025,1.426122,-0.075747,-0.041538,0.042760
2025-12-31T15:59:06.887073,9.341579,-3.215953,1.363908,-0.068416,-0.024434,0.048869
2025-12-31T15:59:06.897073,9.193224,-3.220739,1.383051,-0.046425,-0.003665,0.046425
2025-12-31T15:59:06.906073,9.097511,-3.148954,1.349551,-0.025656,-0.004886,0.042760
2025-12-31T15:59:06.916073,9.078368,-3.081955,1.426122,-0.018325,-0.031764,0.029321
2025-12-31T15:59:06.925073,9.049655,-3.110669,1.344766,-0.018325,-0.075747,0.015882
2025-12-31T15:59:06.935073,9.241080,-3.153740,1.416550,-0.017104,-0.119729,-0.006108
2025-12-31T15:59:06.945073,9.403792,-3.244667,1.301695,-0.003665,-0.149051,-0.031764
2025-12-31T15:59:06.954073,9.542576,-3.354737,1.411765,0.032986,-0.155159,-0.061086
2025-12-31T15:59:06.964073,9.623932,-3.373879,1.387837,0.081855,-0.130725,-0.087964
2025-12-31T15:59:06.973073,9.489934,-3.268595,1.464407,0.135612,-0.097738,-0.108733
2025-12-31T15:59:06.983073,9.432506,-3.215953,1.545763,0.177150,-0.069638,-0.124616
2025-12-31T15:59:06.993073,9.260223,-3.053241,1.627119,0.173485,-0.069638,-0.133168
2025-12-31T15:59:07.002073,9.202795,-3.014956,1.612762,0.127059,-0.096516,-0.133168
2025-12-31T15:59:07.012073,9.284151,-3.043670,1.627119,0.083077,-0.123394,-0.118507
2025-12-31T15:59:07.022073,9.370293,-3.153740,1.622333,0.052534,-0.129503,-0.111177
2025-12-31T15:59:07.031073,9.432506,-3.163311,1.636690,0.039095,-0.109955,-0.087964
2025-12-31T15:59:07.041073,9.437292,-3.244667,1.660618,0.041538,-0.081855,-0.072082
2025-12-31T15:59:07.050073,9.355936,-3.220739,1.646261,0.050090,-0.043982,-0.050090
2025-12-31T15:59:07.060073,9.332008,-3.163311,1.670190,0.053756,-0.019547,-0.034208
2025-12-31T15:59:07.070073,9.260223,-3.139383,1.631905,0.037873,-0.020769,-0.024434
2025-12-31T15:59:07.079073,9.308079,-3.115455,1.603191,0.007330,-0.040317,-0.019547
2025-12-31T15:59:07.089073,9.389435,-3.196810,1.521835,-0.008552,-0.068416,-0.012217
2025-12-31T15:59:07.098073,9.542576,-3.235096,1.540977,-0.015882,-0.078190,-0.006108
2025-12-31T15:59:07.108073,9.604789,-3.263810,1.493121,-0.015882,-0.064751,0.000000
2025-12-31T15:59:07.118073,9.619146,-3.239881,1.421336,0.000000,-0.037873,0.001221
2025-12-31T15:59:07.127073,9.523433,-3.273381,1.454836,0.021991,0.000000,0.008552
2025-12-31T15:59:07.137073,9.375078,-3.220739,1.488335,0.031764,0.026878,0.012217
2025-12-31T15:59:07.147073,9.231509,-3.211167,1.478764,0.039095,0.036651,0.019547
2025-12-31T15:59:07.156073,9.145367,-3.187239,1.445264,0.045204,0.021991,0.026878
2025-12-31T15:59:07.166073,9.164510,-3.192025,1.497906,0.045204,-0.001221,0.032986
2025-12-31T15:59:07.175073,9.178867,-3.125026,1.574477,0.042760,-0.025656,0.040317
2025-12-31T15:59:07.185073,9.322436,-3.067598,1.507478,0.036651,-0.040317,0.053756
2025-12-31T15:59:07.195073,9.432506,-2.962314,1.339980,0.017104,-0.035430,0.075747
2025-12-31T15:59:07.204073,9.451649,-2.919243,1.349551,-0.017104,-0.010995,0.095294
2025-12-31T15:59:07.214073,9.403792,-2.971885,1.253839,-0.046425,0.019547,0.114842
2025-12-31T15:59:07.223073,9.288937,-3.105883,1.239482,-0.054977,0.043982,0.134390
2025-12-31T15:59:07.233073,9.140582,-3.053241,1.182054,-0.042760,0.046425,0.134390
2025-12-31T15:59:07.243073,9.097511,-3.153740,1.158126,-0.018325,0.024434,0.116064
2025-12-31T15:59:07.252073,9.068797,-3.110669,1.234696,0.004886,-0.013439,0.091629
2025-12-31T15:59:07.262073,9.126225,-3.163311,1.182054,0.040317,-0.048869,0.065973
2025-12-31T15:59:07.272073,9.183653,-3.134597,1.301695,0.073303,-0.073303,0.040317
2025-12-31T15:59:07.281073,9.317651,-3.086741,1.306481,0.096516,-0.090408,0.015882
2025-12-31T15:59:07.291073,9.403792,-3.024527,1.335195,0.098960,-0.098960,-0.007330
2025-12-31T15:59:07.300073,9.494720,-3.048455,1.354337,0.097738,-0.091629,-0.019547
2025-12-31T15:59:07.310073,9.513862,-2.976671,1.330409,0.098960,-0.075747,-0.021991
2025-12-31T15:59:07.320073,9.494720,-2.852244,1.363908,0.090408,-0.064751,-0.023212
2025-12-31T15:59:07.329073,9.451649,-2.794816,1.363908,0.063529,-0.059864,-0.020769
2025-12-31T15:59:07.339073,9.408578,-2.804388,1.383051,0.018325,-0.067195,-0.009773
2025-12-31T15:59:07.348073,9.470791,-2.890529,1.406979,-0.025656,-0.078190,0.004886
2025-12-31T15:59:07.358073,9.533005,-3.010170,1.344766,-0.045204,-0.084299,0.015882
2025-12-31T15:59:07.368073,9.604789,-3.077169,1.311266,-0.039095,-0.075747,0.023212
2025-12-31T15:59:07.377073,9.576076,-3.019742,1.306481,-0.015882,-0.064751,0.024434
2025-12-31T15:59:07.387073,9.504291,-3.072384,1.296909,0.007330,-0.048869,0.020769
2025-12-31T15:59:07.397073,9.461220,-2.919243,1.402194,0.029321,-0.045204,0.008552
2025-12-31T15:59:07.406073,9.403792,-2.847458,1.497906,0.039095,-0.053756,-0.002443
2025-12-31T15:59:07.416073,9.389435,-2.857030,1.531406,0.035430,-0.074525,-0.015882
2025-12-31T15:59:07.425073,9.394221,-2.775674,1.588834,0.023212,-0.081855,-0.018325
2025-12-31T15:59:07.435073,9.384650,-2.708675,1.502692,0.004886,-0.070860,-0.019547
2025-12-31T15:59:07.445073,9.245866,-2.589034,1.387837,-0.034208,-0.046425,-0.009773
2025-12-31T15:59:07.454073,9.221938,-2.603390,1.354337,-0.097738,-0.041538,0.006108
2025-12-31T15:59:07.464073,9.111868,-2.646461,1.292124,-0.160046,-0.068416,0.013439
2025-12-31T15:59:07.473073,9.135796,-2.861815,1.162911,-0.193033,-0.105068,0.012217
2025-12-31T15:59:07.483073,9.236295,-2.947957,1.167697,-0.189368,-0.124616,0.000000
2025-12-31T15:59:07.493073,9.288937,-3.081955,1.220339,-0.153938,-0.142942,-0.028099
2025-12-31T15:59:07.502073,9.322436,-3.139383,1.215553,-0.096516,-0.152716,-0.070860
2025-12-31T15:59:07.512073,9.303294,-3.120240,1.282552,-0.030543,-0.152716,-0.117286
2025-12-31T15:59:07.522073,9.250652,-3.058027,1.373480,0.018325,-0.151494,-0.153938
2025-12-31T15:59:07.531073,9.221938,-2.933600,1.531406,0.050090,-0.161268,-0.184481
2025-12-31T15:59:07.541073,9.207581,-2.847458,1.579262,0.054977,-0.188146,-0.206472
2025-12-31T15:59:07.550073,9.265009,-2.818745,1.564905,0.035430,-0.211359,-0.210137
2025-12-31T15:59:07.560073,9.365507,-2.756531,1.550549,-0.001221,-0.210137,-0.206472
2025-12-31T15:59:07.570073,9.427721,-2.780459,1.497906,-0.040317,-0.185702,-0.188146
2025-12-31T15:59:07.579073,9.427721,-2.732603,1.521835,-0.076969,-0.141720,-0.169820
2025-12-31T15:59:07.589073,9.312865,-2.612962,1.373480,-0.119729,-0.090408,-0.140498
2025-12-31T15:59:07.598073,9.154939,-2.545963,1.339980,-0.183259,-0.048869,-0.112399
2025-12-31T15:59:07.608073,8.949156,-2.603390,1.325623,-0.252898,-0.025656,-0.095294
2025-12-31T15:59:07.618073,8.834301,-2.665604,1.301695,-0.307876,-0.028099,-0.080634
2025-12-31T15:59:07.627073,8.733802,-2.713460,1.272981,-0.346971,-0.058643,-0.074525
2025-12-31T15:59:07.637073,8.752945,-2.713460,1.316052,-0.376292,-0.113620,-0.076969
2025-12-31T15:59:07.647073,8.992227,-2.742174,1.071984,-0.398284,-0.171042,-0.089186
2025-12-31T15:59:07.656073,9.145367,-2.799602,0.981057,-0.398284,-0.206472,-0.102625
2025-12-31T15:59:07.666073,9.265009,-2.833101,0.693918,-0.386066,-0.224798,-0.119729
2025-12-31T15:59:07.675073,9.427721,-2.971885,0.870987,-0.386066,-0.238237,-0.138055
2025-12-31T15:59:07.685073,9.595218,-3.201596,0.827916,-0.360410,-0.249232,-0.166155
2025-12-31T15:59:07.695073,9.667003,-3.292523,0.751346,-0.294436,-0.259006,-0.190589
2025-12-31T15:59:07.704073,9.748359,-3.268595,0.732203,-0.224798,-0.266337,-0.217467
2025-12-31T15:59:07.714073,9.705288,-3.225524,0.641276,-0.153938,-0.265115,-0.241902
2025-12-31T15:59:07.723073,9.748359,-3.077169,0.646062,-0.086742,-0.272445,-0.273667
2025-12-31T15:59:07.733073,9.753144,-3.081955,0.717846,-0.024434,-0.295658,-0.305432
2025-12-31T15:59:07.743073,9.858429,-3.019742,1.004985,0.028099,-0.322536,-0.326201
2025-12-31T15:59:07.752073,9.853643,-2.919243,1.028913,0.085521,-0.332310,-0.338419
2025-12-31T15:59:07.762073,9.949356,-2.732603,1.234696,0.101403,-0.328645,-0.337197
2025-12-31T15:59:07.772073,9.944570,-2.545963,1.339980,0.085521,-0.299323,-0.320093
2025-12-31T15:59:07.781073,9.868000,-2.263610,1.368694,0.063529,-0.241902,-0.289550
2025-12-31T15:59:07.791073,9.619146,-2.072184,1.411765,0.009773,-0.168598,-0.248011
2025-12-31T15:59:07.800073,9.274580,-1.880758,1.225125,-0.065973,-0.087964,-0.204028
2025-12-31T15:59:07.810073,8.786444,-1.703689,1.205982,-0.153938,-0.020769,-0.155159
2025-12-31T15:59:07.820073,8.370093,-1.617548,1.316052,-0.277332,0.023212,-0.095294
2025-12-31T15:59:07.829073,7.877171,-1.660618,1.201196,-0.419053,0.046425,-0.029321
2025-12-31T15:59:07.839073,7.508677,-1.775474,1.234696,-0.547335,0.040317,0.035430
2025-12-31T15:59:07.848073,7.130611,-2.048256,1.234696,-0.681725,0.007330,0.100181
2025-12-31T15:59:07.858073,6.876972,-2.550748,1.105484,-0.772133,-0.031764,0.152716
2025-12-31T15:59:07.868073,6.757331,-2.971885,1.024128,-0.757472,-0.053756,0.182037
2025-12-31T15:59:07.877073,6.546762,-3.292523,1.000199,-0.635299,-0.062308,0.184481
2025-12-31T15:59:07.887073,6.388836,-3.349951,1.292124,-0.438601,-0.047647,0.162490
2025-12-31T15:59:07.897073,6.211767,-2.900100,1.440479,-0.232128,-0.003665,0.129503
2025-12-31T15:59:07.906073,5.900700,-2.321037,1.454836,-0.105068,0.074525,0.113620
2025-12-31T15:59:07.916073,5.489135,-1.852044,1.416550,-0.103847,0.157603,0.108733
2025-12-31T15:59:07.925073,5.082355,-1.746760,1.306481,-0.177150,0.230907,0.111177
2025-12-31T15:59:07.935073,4.541577,-1.890329,1.359123,-0.244346,0.266337,0.106290
2025-12-31T15:59:07.945073,4.125226,-2.043470,1.272981,-0.276111,0.266337,0.086742
2025-12-31T15:59:07.954073,3.847658,-2.268395,1.368694,-0.243124,0.249232,0.064751
2025-12-31T15:59:07.964073,3.641875,-2.167897,1.574477,-0.172263,0.229685,0.041538
2025-12-31T15:59:07.973073,3.565305,-1.899901,1.765903,-0.128281,0.204028,0.017104
2025-12-31T15:59:07.983073,3.522234,-1.579262,1.895115,-0.155159,0.180816,0.004886
2025-12-31T15:59:07.993073,3.646661,-1.473978,1.722832,-0.248011,0.139277,-0.006108
2025-12-31T15:59:08.002073,3.761517,-1.464407,1.469193,-0.361632,0.081855,-0.014660
2025-12-31T15:59:08.012073,4.072584,-1.598405,1.234696,-0.467922,0.009773,-0.036651
2025-12-31T15:59:08.022073,4.484149,-1.866401,1.129412,-0.531452,-0.073303,-0.085521
2025-12-31T15:59:08.031073,4.996213,-2.053041,0.990628,-0.544891,-0.135612,-0.150272
2025-12-31T15:59:08.041073,5.536991,-2.120040,0.914058,-0.544891,-0.153938,-0.212581
2025-12-31T15:59:08.050073,5.915057,-2.301895,1.000199,-0.537561,-0.124616,-0.272445
2025-12-31T15:59:08.060073,6.178267,-2.378465,0.961914,-0.521678,-0.068416,-0.328645
2025-12-31T15:59:08.070073,6.336194,-2.565105,1.105484,-0.494800,-0.020769,-0.389731
2025-12-31T15:59:08.079073,6.412764,-2.713460,1.134197,-0.465479,0.002443,-0.441044
2025-12-31T15:59:08.089073,6.503691,-2.746960,1.158126,-0.425162,-0.004886,-0.487470
2025-12-31T15:59:08.098073,6.642475,-2.708675,1.057627,-0.382401,-0.019547,-0.527787
2025-12-31T15:59:08.108073,6.814758,-2.541177,0.909272,-0.384845,-0.028099,-0.546113
2025-12-31T15:59:08.118073,6.900900,-2.531606,0.861416,-0.454483,-0.040317,-0.551000
2025-12-31T15:59:08.127073,7.159325,-2.818745,0.842273,-0.540004,-0.084299,-0.560774
2025-12-31T15:59:08.137073,7.494320,-3.282952,0.827916,-0.574213,-0.185702,-0.582765
2025-12-31T15:59:08.147073,8.020741,-3.909872,0.861416,-0.514348,-0.313984,-0.625525
2025-12-31T15:59:08.156073,8.685946,-4.546362,0.981057,-0.344527,-0.417831,-0.689055
2025-12-31T15:59:08.166073,9.403792,-5.187639,1.272981,-0.063529,-0.454483,-0.757472
2025-12-31T15:59:08.175073,10.159924,-5.580062,1.722832,0.331088,-0.410501,-0.831998
2025-12-31T15:59:08.185073,10.681560,-5.709274,2.249253,0.791681,-0.310319,-0.897971
2025-12-31T15:59:08.195073,10.949556,-5.446064,2.536391,1.235169,-0.175929,-0.948062
2025-12-31T15:59:08.204073,11.160124,-5.096712,2.679961,1.590692,-0.039095,-0.951727
2025-12-31T15:59:08.214073,11.160124,-4.852644,2.761317,1.821599,0.096516,-0.885754
2025-12-31T15:59:08.223073,11.006983,-4.465006,2.526820,1.964542,0.219911,-0.767246
2025-12-31T15:59:08.233073,10.829915,-3.967299,2.215753,2.031737,0.316428,-0.601091
2025-12-31T15:59:08.243073,10.571490,-3.316452,1.842473,1.974316,0.375071,-0.403170
2025-12-31T15:59:08.252073,10.470991,-2.612962,1.564905,1.780060,0.408057,-0.186924
2025-12-31T15:59:08.262073,10.470991,-2.086541,1.435693,1.486845,0.415388,0.039095
2025-12-31T15:59:08.272073,10.466206,-1.942971,1.177268,1.133765,0.398284,0.276111
2025-12-31T15:59:08.281073,10.648060,-2.091326,1.019342,0.792902,0.362853,0.471587
2025-12-31T15:59:08.291073,10.858628,-2.411965,0.957129,0.535117,0.335975,0.613308
2025-12-31T15:59:08.300073,11.083554,-2.679961,0.928415,0.370184,0.354301,0.719599
2025-12-31T15:59:08.310073,11.184052,-3.196810,0.990628,0.266337,0.415388,0.797789
2025-12-31T15:59:08.320073,11.212766,-3.838087,0.880558,0.224798,0.499687,0.861319
2025-12-31T15:59:08.329073,11.121839,-4.331008,0.646062,0.267558,0.557108,0.911410
2025-12-31T15:59:08.339073,11.078768,-4.599005,0.531206,0.381179,0.548556,0.924849
2025-12-31T15:59:08.348073,11.198409,-4.694717,0.267996,0.520457,0.481361,0.915075
2025-12-31T15:59:08.358073,11.514262,-4.465006,0.033499,0.648738,0.395840,0.894306
2025-12-31T15:59:08.368073,11.858828,-3.929014,-0.105284,0.742811,0.345749,0.880867
2025-12-31T15:59:08.377073,12.189038,-3.560520,-0.009571,0.755029,0.356745,0.878424
2025-12-31T15:59:08.387073,12.528819,-3.503092,0.378065,0.657290,0.410501,0.902858
2025-12-31T15:59:08.397073,12.705888,-3.823730,0.593420,0.558330,0.467922,0.952949
2025-12-31T15:59:08.406073,12.820743,-4.096512,0.827916,0.538783,0.520457,1.007927
2025-12-31T15:59:08.416073,12.854243,-4.268795,1.095912,0.581543,0.571769,1.037248
2025-12-31T15:59:08.425073,12.844671,-4.244867,1.124626,0.642630,0.614530,1.061683
2025-12-31T15:59:08.435073,12.926027,-3.881158,0.985842,0.685390,0.651182,1.100778
2025-12-31T15:59:08.445073,12.844671,-3.479164,0.832702,0.653625,0.689055,1.148426
2025-12-31T15:59:08.454073,12.787243,-3.101098,0.861416,0.530230,0.740368,1.210734
2025-12-31T15:59:08.464073,12.461820,-2.962314,1.124626,0.345749,0.797789,1.274264
2025-12-31T15:59:08.473073,12.045468,-3.201596,1.095912,0.157603,0.829554,1.335351
2025-12-31T15:59:08.483073,11.700902,-3.732803,1.201196,0.048869,0.821002,1.373224
2025-12-31T15:59:08.493073,11.499905,-4.216153,1.536192,0.073303,0.774576,1.376889
2025-12-31T15:59:08.502073,11.504691,-4.474578,2.043470,0.168598,0.692721,1.369559
2025-12-31T15:59:08.512073,11.815757,-4.488935,2.464607,0.265115,0.590095,1.372003
2025-12-31T15:59:08.522073,12.241680,-4.110869,2.469392,0.305432,0.507018,1.386663
2025-12-31T15:59:08.531073,12.734601,-3.842873,2.426322,0.235793,0.496022,1.420872
2025-12-31T15:59:08.541073,12.964312,-3.751945,2.163111,0.080634,0.548556,1.474628
2025-12-31T15:59:08.550073,12.983455,-3.972085,2.096112,-0.100181,0.634077,1.546710
2025-12-31T15:59:08.560073,12.796815,-4.345365,2.560320,-0.267558,0.714712,1.617570
2025-12-31T15:59:08.570073,12.672388,-4.785645,2.880958,-0.409279,0.744033,1.663996
2025-12-31T15:59:08.579073,12.557533,-5.398207,3.278166,-0.498465,0.701273,1.690874
2025-12-31T15:59:08.589073,12.500105,-5.934200,3.742374,-0.486248,0.614530,1.725083
2025-12-31T15:59:08.598073,12.524033,-6.374479,4.010370,-0.394618,0.541226,1.729969
2025-12-31T15:59:08.608073,12.744173,-6.532405,3.914657,-0.267558,0.487470,1.717752
2025-12-31T15:59:08.618073,12.978669,-6.474977,3.713660,-0.141720,0.433714,1.709200
2025-12-31T15:59:08.627073,13.404592,-6.264409,3.531806,-0.062308,0.378736,1.715309
2025-12-31T15:59:08.637073,13.610374,-6.254838,3.259024,-0.067195,0.360410,1.711644
2025-12-31T15:59:08.647073,13.806586,-6.374479,2.804388,-0.107512,0.382401,1.698205
2025-12-31T15:59:08.656073,13.730016,-6.537191,2.373680,-0.124616,0.425162,1.674992
2025-12-31T15:59:08.666073,13.557732,-6.604190,2.009970,-0.109955,0.420275,1.613905
2025-12-31T15:59:08.675073,13.356735,-6.628118,1.732403,-0.075747,0.332310,1.519832
2025-12-31T15:59:08.685073,13.399806,-6.532405,1.746760,-0.037873,0.194255,1.403768
2025-12-31T15:59:08.695073,13.619946,-6.441478,1.962114,-0.029321,0.023212,1.243721
2025-12-31T15:59:08.704073,14.007583,-6.321837,1.971685,-0.025656,-0.113620,1.066570
2025-12-31T15:59:08.714073,14.333007,-6.072983,2.187039,0.012217,-0.152716,0.919962
2025-12-31T15:59:08.723073,14.275579,-5.766702,2.416750,0.019547,-0.144164,0.753807
2025-12-31T15:59:08.733073,14.294722,-5.541777,2.392822,-0.030543,-0.120951,0.577878
2025-12-31T15:59:08.743073,13.887942,-5.484349,2.651247,-0.106290,-0.111177,0.410501
2025-12-31T15:59:08.752073,13.457234,-5.761916,3.144168,-0.185702,-0.124616,0.252898
2025-12-31T15:59:08.762073,12.878171,-6.393621,3.684946,-0.216246,-0.160046,0.081855
2025-12-31T15:59:08.772073,12.356535,-7.307680,4.421936,-0.116064,-0.194255,-0.098960
2025-12-31T15:59:08.781073,11.921042,-7.838886,4.742574,0.125838,-0.239459,-0.263893
2025-12-31T15:59:08.791073,11.547761,-8.059026,4.886143,0.474031,-0.328645,-0.428827
2025-12-31T15:59:08.800073,11.346764,-7.714460,4.776073,0.896749,-0.442266,-0.580321
2025-12-31T15:59:08.810073,11.322836,-7.006184,4.675575,1.259603,-0.520457,-0.712268
2025-12-31T15:59:08.820073,11.351550,-6.388836,4.780859,1.469741,-0.547335,-0.829554
2025-12-31T15:59:08.829073,11.361121,-5.828915,4.938785,1.589471,-0.549778,-0.917519
2025-12-31T15:59:08.839073,11.361121,-5.422136,4.934000,1.653000,-0.529009,-0.966388
2025-12-31T15:59:08.848073,11.294122,-5.024927,4.900500,1.651779,-0.488692,-0.993266
2025-12-31T15:59:08.858073,11.270194,-4.618147,4.699503,1.598023,-0.442266,-1.012814
2025-12-31T15:59:08.868073,11.255837,-3.938585,4.536791,1.477071,-0.387288,-1.007927
2025-12-31T15:59:08.877073,11.279765,-3.244667,4.187439,1.252273,-0.345749,-0.970053
2025-12-31T15:59:08.887073,11.337193,-2.627319,3.756731,0.934623,-0.301767,-0.912632
2025-12-31T15:59:08.897073,11.251051,-2.110469,3.077169,0.560774,-0.241902,-0.864984
2025-12-31T15:59:08.906073,11.102696,-1.837687,2.201396,0.142942,-0.142942,-0.827111
2025-12-31T15:59:08.916073,10.719845,-2.129612,1.593619,-0.268780,-0.006108,-0.792902
2025-12-31T15:59:08.925073,10.102497,-2.876172,1.292124,-0.579100,0.109955,-0.768468
2025-12-31T15:59:08.935073,9.437292,-3.541377,1.124626,-0.734259,0.139277,-0.766024
2025-12-31T15:59:08.945073,8.934799,-4.216153,0.928415,-0.755029,0.074525,-0.785572
2025-12-31T15:59:08.954073,8.666803,-4.713860,0.746560,-0.665842,-0.061086,-0.816115
2025-12-31T15:59:08.964073,8.590233,-4.924428,0.263210,-0.536339,-0.235793,-0.816115
2025-12-31T15:59:08.973073,8.824729,-4.910071,0.583848,-0.354301,-0.392175,-0.816115
2025-12-31T15:59:08.983073,9.221938,-4.216153,0.579063,-0.174707,-0.499687,-0.836885
2025-12-31T15:59:08.993073,9.547362,-3.407379,0.306281,-0.136833,-0.564439,-0.830776
2025-12-31T15:59:09.002073,9.805787,-2.981456,0.373280,-0.208915,-0.594982,-0.802676
2025-12-31T15:59:09.012073,9.987641,-2.780459,0.306281,-0.302989,-0.587652,-0.769690
2025-12-31T15:59:09.022073,9.987641,-2.699103,0.191425,-0.381179,-0.575434,-0.747698
2025-12-31T15:59:09.031073,9.839286,-2.852244,0.172283,-0.425162,-0.572991,-0.744033
2025-12-31T15:59:09.041073,9.652646,-3.067598,0.507278,-0.398284,-0.571769,-0.756251
2025-12-31T15:59:09.050073,9.451649,-3.335594,0.890130,-0.289550,-0.583987,-0.794124
2025-12-31T15:59:09.060073,9.245866,-3.326023,1.019342,-0.138055,-0.630412,-0.855211
2025-12-31T15:59:09.070073,9.183653,-3.081955,1.196411,0.002443,-0.713490,-0.915075
2025-12-31T15:59:09.079073,9.250652,-2.727817,1.397408,0.090408,-0.821002,-0.966388
2025-12-31T15:59:09.089073,9.442077,-2.340180,1.354337,0.109955,-0.911410,-0.995710
2025-12-31T15:59:09.098073,9.590432,-1.986042,1.182054,0.061086,-0.977384,-1.004262
2025-12-31T15:59:09.108073,9.853643,-1.694118,0.894915,-0.043982,-1.029918,-0.996931
2025-12-31T15:59:09.118073,9.982855,-1.627119,0.765703,-0.185702,-1.055574,-0.981049
2025-12-31T15:59:09.127073,10.030712,-1.746760,0.660419,-0.326201,-1.045801,-0.962723
2025-12-31T15:59:09.137073,10.030712,-2.029113,0.602991,-0.461814,-1.010370,-0.945619
2025-12-31T15:59:09.147073,9.791430,-2.459821,0.612562,-0.552222,-0.960279,-0.933401
2025-12-31T15:59:09.156073,9.475577,-2.809173,0.650847,-0.575434,-0.897971,-0.922406
2025-12-31T15:59:09.166073,9.145367,-3.034099,0.646062,-0.551000,-0.866206,-0.921184
2025-12-31T15:59:09.175073,8.949156,-3.077169,1.071984,-0.520457,-0.873537,-0.930958
2025-12-31T15:59:09.185073,8.992227,-2.924029,1.071984,-0.505796,-0.917519,-0.944397
2025-12-31T15:59:09.195073,9.083154,-2.703889,0.803988,-0.514348,-0.961501,-0.935845
2025-12-31T15:59:09.204073,9.293722,-2.373680,0.760917,-0.582765,-0.955393,-0.911410
2025-12-31T15:59:09.214073,9.456434,-2.067398,0.650847,-0.693942,-0.867428,-0.883310
2025-12-31T15:59:09.223073,9.317651,-1.856830,0.473778,-0.828333,-0.712268,-0.841772
2025-12-31T15:59:09.233073,8.949156,-1.880758,0.263210,-0.990823,-0.571769,-0.799011
2025-12-31T15:59:09.243073,8.499305,-1.981257,0.320638,-1.149648,-0.471587,-0.763581
2025-12-31T15:59:09.252073,8.020741,-2.206182,0.382851,-1.259603,-0.406836,-0.730594
2025-12-31T15:59:09.262073,7.661817,-2.258824,0.430708,-1.331685,-0.383623,-0.709825
2025-12-31T15:59:09.272073,7.336394,-2.388036,0.535992,-1.390328,-0.379958,-0.686612
2025-12-31T15:59:09.281073,7.111468,-2.335394,0.703489,-1.435533,-0.392175,-0.664621
2025-12-31T15:59:09.291073,6.987041,-2.373680,0.923629,-1.474628,-0.406836,-0.657290
2025-12-31T15:59:09.300073,6.972685,-2.474178,1.067198,-1.500284,-0.410501,-0.662177
2025-12-31T15:59:09.310073,6.943971,-2.665604,0.995414,-1.499062,-0.394618,-0.662177
2025-12-31T15:59:09.320073,6.781259,-2.823530,1.057627,-1.475850,-0.351858,-0.651182
2025-12-31T15:59:09.329073,6.652046,-3.000599,1.172483,-1.455080,-0.277332,-0.631634
2025-12-31T15:59:09.339073,6.460621,-3.163311,1.316052,-1.412320,-0.193033,-0.607199
2025-12-31T15:59:09.348073,6.173482,-3.282952,1.665404,-1.350011,-0.096516,-0.575434
2025-12-31T15:59:09.358073,5.814558,-3.201596,2.029113,-1.265712,0.006108,-0.532674
2025-12-31T15:59:09.368073,5.412564,-2.880958,2.277967,-1.187521,0.120951,-0.482583
2025-12-31T15:59:09.377073,4.972285,-2.512463,2.579462,-1.155756,0.232128,-0.421496
2025-12-31T15:59:09.387073,4.488935,-2.172682,2.871387,-1.163087,0.324980,-0.355523
2025-12-31T15:59:09.397073,4.005585,-1.780260,2.766102,-1.208291,0.377514,-0.279776
2025-12-31T15:59:09.406073,3.570091,-1.579262,2.603390,-1.299920,0.379958,-0.199142
2025-12-31T15:59:09.416073,3.273381,-1.521835,2.498106,-1.423315,0.334754,-0.124616
2025-12-31T15:59:09.425073,3.153740,-1.823330,2.344966,-1.541823,0.245567,-0.061086
2025-12-31T15:59:09.435073,3.349951,-2.177468,2.297109,-1.611462,0.127059,0.001221
2025-12-31T15:59:09.445073,3.651447,-2.531606,2.019542,-1.612683,-0.002443,0.043982
2025-12-31T15:59:09.454073,4.197010,-2.804388,1.914258,-1.551597,-0.113620,0.058643
2025-12-31T15:59:09.464073,4.862215,-3.101098,1.785045,-1.455080,-0.173485,0.058643
2025-12-31T15:59:09.473073,5.489135,-3.316452,1.919043,-1.342681,-0.193033,0.050090
2025-12-31T15:59:09.483073,6.096911,-3.498306,1.952543,-1.198517,-0.202807,0.025656
2025-12-31T15:59:09.493073,6.728617,-3.445664,1.923829,-1.036027,-0.221133,-0.006108
2025-12-31T15:59:09.502073,7.293323,-3.330809,1.890329,-0.885754,-0.235793,-0.051312
2025-12-31T15:59:09.512073,7.843672,-3.182454,1.847259,-0.768468,-0.222354,-0.092851
2025-12-31T15:59:09.522073,8.307880,-3.014956,1.780260,-0.681725,-0.158824,-0.120951
2025-12-31T15:59:09.531073,8.657232,-2.761317,1.722832,-0.645073,-0.051312,-0.127059
2025-12-31T15:59:09.541073,8.824729,-2.756531,1.694118,-0.660956,0.067195,-0.118507
2025-12-31T15:59:09.550073,8.810372,-2.804388,1.598405,-0.671951,0.149051,-0.122173
2025-12-31T15:59:09.560073,8.800801,-2.938386,1.459621,-0.676838,0.142942,-0.152716
2025-12-31T15:59:09.570073,9.126225,-3.215953,1.397408,-0.673173,0.020769,-0.200363
2025-12-31T15:59:09.579073,9.738787,-3.412165,1.182054,-0.631634,-0.202807,-0.278554
2025-12-31T15:59:09.589073,10.825129,-3.574876,0.971485,-0.566882,-0.489913,-0.400727
2025-12-31T15:59:09.598073,12.351750,-3.689732,0.674775,-0.492357,-0.735481,-0.525343
2025-12-31T15:59:09.608073,13.897513,-3.751945,0.430708,-0.390953,-0.768468,-0.599869
2025-12-31T15:59:09.618073,14.955141,-3.608376,0.196211,-0.289550,-0.525343,-0.610865
2025-12-31T15:59:09.627073,14.993426,-3.479164,0.062213,-0.223576,-0.041538,-0.569326
2025-12-31T15:59:09.637073,13.959727,-3.364308,0.157926,-0.182037,0.547335,-0.472809
2025-12-31T15:59:09.647073,11.897113,-3.397808,0.282353,-0.164933,1.029918,-0.333532
2025-12-31T15:59:09.656073,9.844072,-3.388236,0.540777,-0.160046,1.257160,-0.212581
2025-12-31T15:59:09.666073,8.102097,-3.287738,0.851844,-0.127059,1.221730,-0.116064
2025-12-31T15:59:09.675073,6.848258,-3.153740,1.105484,-0.076969,1.016479,-0.054977
2025-12-31T15:59:09.685073,6.197410,-2.967100,1.239482,-0.020769,0.724486,-0.008552
2025-12-31T15:59:09.695073,6.240481,-2.780459,1.454836,0.031764,0.397062,0.031764
2025-12-31T15:59:09.704073,6.771687,-2.541177,1.383051,0.065973,0.080634,0.075747
2025-12-31T15:59:09.714073,7.728816,-2.344966,1.225125,0.070860,-0.149051,0.114842
2025-12-31T15:59:09.723073,8.863014,-2.196611,1.038485,0.030543,-0.226020,0.161268
2025-12-31T15:59:09.733073,9.810572,-2.249253,0.880558,-0.061086,-0.164933,0.222354
2025-12-31T15:59:09.743073,10.399207,-2.421536,0.622133,-0.151494,-0.010995,0.295658
2025-12-31T15:59:09.752073,10.667203,-2.636890,0.406779,-0.208915,0.158824,0.357966
2025-12-31T15:59:09.762073,10.715059,-2.684746,0.167497,-0.256563,0.290771,0.403170
2025-12-31T15:59:09.772073,10.595418,-2.622533,-0.033499,-0.309097,0.359188,0.420275
2025-12-31T15:59:09.781073,10.504491,-2.627319,-0.157926,-0.367740,0.364075,0.431270
2025-12-31T15:59:09.791073,10.561918,-2.641676,-0.234496,-0.431270,0.317649,0.432492
2025-12-31T15:59:09.800073,10.691131,-2.632104,-0.148355,-0.476474,0.260228,0.423940
2025-12-31T15:59:09.810073,10.868200,-2.617747,-0.277567,-0.504574,0.229685,0.416610
2025-12-31T15:59:09.820073,10.892128,-2.699103,-0.239282,-0.529009,0.234572,0.421496
2025-12-31T15:59:09.829073,10.705488,-2.794816,-0.124426,-0.537561,0.283441,0.426383
2025-12-31T15:59:09.839073,10.183852,-2.976671,-0.086141,-0.509461,0.350636,0.437379
2025-12-31T15:59:09.848073,9.580861,-3.125026,0.186640,-0.450818,0.394618,0.443488
2025-12-31T15:59:09.858073,8.920442,-3.254238,0.387637,-0.366519,0.395840,0.439822
2025-12-31T15:59:09.868073,8.322237,-3.407379,0.435493,-0.250454,0.338419,0.415388
2025-12-31T15:59:09.877073,7.905885,-3.445664,0.521635,-0.103847,0.239459,0.379958
2025-12-31T15:59:09.887073,7.561319,-3.579662,0.622133,0.069638,0.118507,0.332310
2025-12-31T15:59:09.897073,7.350751,-3.584448,0.579063,0.271224,-0.007330,0.276111
2025-12-31T15:59:09.906073,7.317251,-3.393022,0.593420,0.461814,-0.128281,0.221133
2025-12-31T15:59:09.916073,7.331608,-3.168097,0.282353,0.599869,-0.234572,0.174707
2025-12-31T15:59:09.925073,7.475177,-3.177668,0.081355,0.670729,-0.312762,0.136833
2025-12-31T15:59:09.935073,7.594818,-3.393022,0.114855,0.719599,-0.348193,0.096516
2025-12-31T15:59:09.945073,7.733602,-3.895515,0.205782,0.805120,-0.350636,0.029321
2025-12-31T15:59:09.954073,7.881957,-4.311866,0.488135,0.996931,-0.339641,-0.063529
2025-12-31T15:59:09.964073,7.958527,-4.302295,0.478564,1.302364,-0.315206,-0.171042
2025-12-31T15:59:09.973073,7.992027,-3.555734,0.598205,1.613905,-0.295658,-0.272445
2025-12-31T15:59:09.983073,8.049455,-2.459821,0.693918,1.756848,-0.273667,-0.353080
2025-12-31T15:59:09.993073,8.030312,-1.440479,0.784845,1.640783,-0.241902,-0.364075
2025-12-31T15:59:10.002073,7.853243,-1.086341,0.875773,1.302364,-0.206472,-0.299323
2025-12-31T15:59:10.012073,7.628318,-1.268195,0.937986,0.910189,-0.172263,-0.215024
2025-12-31T15:59:10.022073,7.302894,-1.703689,1.004985,0.599869,-0.136833,-0.113620
2025-12-31T15:59:10.031073,6.963113,-2.258824,0.890130,0.382401,-0.103847,-0.008552
2025-12-31T15:59:10.041073,6.532405,-2.818745,0.976271,0.270002,-0.078190,0.089186
2025-12-31T15:59:10.050073,6.173482,-2.971885,1.167697,0.324980,-0.063529,0.156381
2025-12-31T15:59:10.060073,5.785845,-2.541177,1.177268,0.471587,-0.037873,0.193033
2025-12-31T15:59:10.070073,5.379065,-1.923829,1.129412,0.542448,0.002443,0.222354
2025-12-31T15:59:10.079073,4.905286,-1.531406,1.196411,0.569326,0.064751,0.243124
2025-12-31T15:59:10.089073,4.359722,-1.167697,1.363908,0.610865,0.128281,0.232128
2025-12-31T15:59:10.098073,3.790230,-0.870987,1.316052,0.651182,0.166155,0.207694
2025-12-31T15:59:10.108073,3.192025,-0.751346,1.397408,0.698829,0.142942,0.153938
2025-12-31T15:59:10.118073,2.804388,-0.727418,1.493121,0.746477,0.043982,0.073303
2025-12-31T15:59:10.127073,2.847458,-0.952343,1.593619,0.774576,-0.111177,-0.008552
2025-12-31T15:59:10.137073,3.182454,-1.306481,1.737189,0.830776,-0.291993,-0.089186
2025-12-31T15:59:10.147073,4.120440,-1.674975,1.852044,0.948062,-0.478918,-0.183259
2025-12-31T15:59:10.156073,5.268995,-1.454836,2.014756,1.061683,-0.623082,-0.291993
2025-12-31T15:59:10.166073,6.460621,-1.009771,2.019542,1.078787,-0.660956,-0.375071
2025-12-31T15:59:10.175073,7.441678,-0.516849,1.823330,0.939510,-0.596204,-0.399505
2025-12-31T15:59:10.185073,8.178667,-0.172283,1.564905,0.671951,-0.433714,-0.366519
2025-12-31T15:59:10.195073,8.523234,-0.066999,1.306481,0.331088,-0.199142,-0.299323
2025-12-31T15:59:10.204073,8.532805,-0.234496,1.148554,-0.053756,0.058643,-0.197920
2025-12-31T15:59:10.214073,8.164310,-0.574277,1.239482,-0.393397,0.280997,-0.059864
2025-12-31T15:59:10.223073,7.590033,-0.952343,1.009771,-0.604756,0.428827,0.073303
2025-12-31T15:59:10.233073,7.025327,-1.220339,1.086341,-0.712268,0.482583,0.180816
2025-12-31T15:59:10.243073,6.690331,-1.378265,1.172483,-0.766024,0.466700,0.268780
2025-12-31T15:59:10.252073,6.470192,-1.464407,1.071984,-0.772133,0.404392,0.357966
2025-12-31T15:59:10.262073,6.537191,-1.684547,1.067198,-0.748920,0.306654,0.442266
2025-12-31T15:59:10.272073,6.699903,-1.895115,0.995414,-0.718377,0.199142,0.526565
2025-12-31T15:59:10.281073,7.097111,-2.273181,0.957129,-0.664621,0.097738,0.614530
2025-12-31T15:59:10.291073,7.494320,-2.603390,0.890130,-0.560774,0.013439,0.689055
2025-12-31T15:59:10.300073,7.992027,-2.871387,0.717846,-0.419053,-0.035430,0.755029
2025-12-31T15:59:10.310073,8.312665,-3.139383,0.751346,-0.254119,-0.026878,0.800233
2025-12-31T15:59:10.320073,8.599804,-3.359522,0.847059,-0.053756,0.056199,0.821002
2025-12-31T15:59:10.329073,8.575876,-3.493520,0.655633,0.195476,0.158824,0.834441
2025-12-31T15:59:10.339073,8.446663,-3.263810,0.569491,0.467922,0.250454,0.833220
2025-12-31T15:59:10.348073,8.140382,-2.857030,0.746560,0.695164,0.327423,0.829554
2025-12-31T15:59:10.358073,7.920242,-2.459821,0.885344,0.830776,0.350636,0.833220
2025-12-31T15:59:10.368073,7.843672,-2.124826,0.937986,0.861319,0.278554,0.841772
2025-12-31T15:59:10.377073,8.059026,-2.029113,0.866201,0.811228,0.150272,0.872315
2025-12-31T15:59:10.387073,8.499305,-2.043470,0.799202,0.715933,0.009773,0.935845
2025-12-31T15:59:10.397073,9.016155,-2.191825,0.497707,0.594982,-0.109955,1.001818
2025-12-31T15:59:10.406073,9.576076,-2.354537,0.387637,0.477696,-0.168598,1.027475
2025-12-31T15:59:10.416073,10.126425,-2.703889,0.267996,0.377514,-0.158824,1.037248
2025-12-31T15:59:10.425073,10.561918,-2.981456,0.224925,0.333532,-0.090408,1.033583
2025-12-31T15:59:10.435073,10.715059,-3.115455,0.272781,0.360410,0.048869,1.018923
2025-12-31T15:59:10.445073,10.494919,-3.168097,0.368494,0.416610,0.261450,1.001818
2025-12-31T15:59:10.454073,9.954142,-3.077169,0.454636,0.445931,0.454483,0.981049
2025-12-31T15:59:10.464073,9.284151,-2.900100,0.684347,0.409279,0.543669,0.979827
2025-12-31T15:59:10.473073,8.882157,-2.861815,1.033699,0.267558,0.488692,0.990823
2025-12-31T15:59:10.483073,8.920442,-3.139383,1.335195,0.059864,0.309097,1.014036
2025-12-31T15:59:10.493073,9.360722,-3.483949,1.406979,-0.106290,0.084299,1.034805
2025-12-31T15:59:10.502073,10.135996,-3.646661,1.071984,-0.241902,-0.094073,1.077566
2025-12-31T15:59:10.512073,11.011769,-3.962514,0.961914,-0.404392,-0.166155,1.130100
2025-12-31T15:59:10.522073,11.576475,-4.307080,0.703489,-0.508239,-0.095294,1.174082
2025-12-31T15:59:10.531073,11.964113,-4.398007,0.961914,-0.536339,0.102625,1.210734
2025-12-31T15:59:10.541073,11.944970,-4.460221,1.277767,-0.629191,0.362853,1.258382
2025-12-31T15:59:10.550073,11.471191,-4.622933,1.134197,-0.778242,0.590095,1.331685
2025-12-31T15:59:10.560073,10.782058,-4.790430,0.875773,-0.883310,0.687834,1.402546
2025-12-31T15:59:10.570073,10.298708,-5.029713,0.789631,-0.938288,0.619417,1.440419
2025-12-31T15:59:10.579073,10.174281,-5.273781,0.813559,-0.956614,0.403170,1.426980
2025-12-31T15:59:10.589073,10.643274,-5.627918,0.454636,-0.922406,0.108733,1.381776
2025-12-31T15:59:10.598073,11.466405,-5.881557,0.210568,-0.840550,-0.120951,1.354898
2025-12-31T15:59:10.608073,12.246466,-6.053841,-0.239282,-0.712268,-0.184481,1.315803
2025-12-31T15:59:10.618073,12.926027,-6.202196,-0.435493,-0.591317,-0.080634,1.271821
2025-12-31T15:59:10.627073,13.131810,-6.503691,-0.320638,-0.488692,0.120951,1.269377
2025-12-31T15:59:10.637073,12.993026,-6.470192,-0.516849,-0.345749,0.291993,1.273042
2025-12-31T15:59:10.647073,12.653245,-6.082555,-0.770488,-0.202807,0.335975,1.265712
2025-12-31T15:59:10.656073,12.629317,-5.565705,-0.689132,-0.168598,0.222354,1.219286
2025-12-31T15:59:10.666073,13.016954,-5.125426,-0.483350,-0.245567,-0.003665,1.176526
2025-12-31T15:59:10.675073,13.777872,-4.790430,-0.512064,-0.387288,-0.217467,1.161865
2025-12-31T15:59:10.685073,14.696716,-4.575076,-0.880558,-0.620638,-0.381179,1.131322
2025-12-31T15:59:10.695073,15.620345,-4.656432,-1.282552,-0.918741,-0.483805,1.109331
2025-12-31T15:59:10.704073,16.443476,-4.996213,-1.679761,-1.225395,-0.504574,1.109331
2025-12-31T15:59:10.714073,16.936398,-5.551348,-2.225325,-1.521054,-0.503352,1.105665
2025-12-31T15:59:10.723073,17.635101,-6.264409,-2.196611,-1.696983,-0.546113,1.014036
2025-12-31T15:59:10.733073,18.486946,-6.661618,-1.765903,-1.695761,-0.692721,0.821002
2025-12-31T15:59:10.743073,19.386648,-6.709474,-1.071984,-1.674992,-0.847880,0.645073
2025-12-31T15:59:10.752073,19.889141,-7.111468,-0.028713,-1.781282,-0.907745,0.554665
2025-12-31T15:59:10.762073,19.850857,-7.944171,0.411565,-1.882686,-0.884532,0.504574
2025-12-31T15:59:10.772073,19.228722,-8.757730,0.043070,-1.815491,-0.796568,0.464257
2025-12-31T15:59:10.781073,18.305092,-9.408578,-0.382851,-1.610240,-0.725707,0.387288
2025-12-31T15:59:10.791073,17.563316,-9.690931,-1.406979,-1.280373,-0.797789,0.224798
2025-12-31T15:59:10.800073,17.386250,-9.135796,-1.617548,-0.784350,-0.857654,-0.043982
2025-12-31T15:59:10.810073,17.414963,-7.920242,-1.761117,-0.447153,-0.756251,-0.337197
2025-12-31T15:59:10.820073,17.170895,-7.202396,-1.914258,-0.406836,-0.508239,-0.583987
2025-12-31T15:59:10.829073,16.419548,-7.006184,-1.426122,-0.474031,-0.233350,-0.748920
2025-12-31T15:59:10.839073,15.424134,-7.044469,-0.765703,-0.601091,-0.002443,-0.878424
2025-12-31T15:59:10.848073,14.242080,-7.546962,-0.574277,-0.761137,0.113620,-1.040914
2025-12-31T15:59:10.858073,13.371092,-8.484948,-0.756131,-0.788015,0.095294,-1.238834
2025-12-31T15:59:10.868073,12.911670,-9.131011,-0.856630,-0.532674,-0.095294,-1.426980
2025-12-31T15:59:10.877073,13.146167,-8.987441,-0.579063,-0.057421,-0.282219,-1.600466
2025-12-31T15:59:10.887073,13.457234,-7.972884,-0.301495,0.445931,-0.265115,-1.734856
2025-12-31T15:59:10.897073,13.414163,-6.876972,-0.291924,0.728151,-0.142942,-1.772730
2025-12-31T15:59:10.906073,13.146167,-6.412764,0.153140,0.802676,-0.073303,-1.860695
2025-12-31T15:59:10.916073,12.930813,-6.312266,0.512064,0.864984,-0.010995,-1.969429
2025-12-31T15:59:10.925073,12.605389,-5.742774,0.569491,0.992044,0.013439,-1.970650
2025-12-31T15:59:10.935073,12.667602,-4.857429,1.153340,0.951727,-0.111177,-1.910786
2025-12-31T15:59:10.945073,12.624532,-5.039284,0.186640,0.569326,-0.180816,-1.903455
2025-12-31T15:59:10.954073,12.638888,-5.804987,-0.311066,0.387288,-0.081855,-1.855808
2025-12-31T15:59:10.964073,12.399606,-5.402993,-0.928415,0.680503,-0.037873,-1.759291
2025-12-31T15:59:10.973073,12.442677,-4.259224,-0.775274,0.825889,-0.304210,-1.673770
2025-12-31T15:59:10.983073,13.213166,-4.364508,-1.708475,0.533896,-0.262671,-1.832595
2025-12-31T15:59:10.993073,12.983455,-4.666004,-1.919043,0.682947,0.100181,-1.985311
2025-12-31T15:59:11.002073,11.509476,-4.168296,-0.277567,0.816115,0.290771,-1.606575
2025-12-31T15:59:11.012073,10.327422,-4.048655,-0.765703,0.746477,0.259006,-1.521054
2025-12-31T15:59:11.022073,9.954142,-3.924229,-1.129412,0.785572,0.076969,-1.661553
2025-12-31T15:59:11.031073,10.088140,-3.584448,-0.430708,0.829554,-0.120951,-1.610240
2025-12-31T15:59:11.041073,10.332207,-3.172882,-0.545563,0.735481,-0.287106,-1.462411
2025-12-31T15:59:11.050073,10.724630,-3.053241,-0.713061,0.630412,-0.371405,-1.363450
2025-12-31T15:59:11.060073,11.145767,-2.866601,-0.468993,0.543669,-0.368962,-1.270599
2025-12-31T15:59:11.070073,11.361121,-2.794816,-0.267996,0.439822,-0.328645,-1.165530
2025-12-31T15:59:11.079073,11.322836,-2.813959,-0.291924,0.317649,-0.265115,-1.071457
2025-12-31T15:59:11.089073,11.131410,-2.933600,-0.239282,0.211359,-0.191811,-0.981049
2025-12-31T15:59:11.098073,10.849057,-3.105883,-0.220139,0.146607,-0.144164,-0.902858
2025-12-31T15:59:11.108073,10.466206,-3.282952,-0.177068,0.107512,-0.138055,-0.845437
2025-12-31T15:59:11.118073,10.336993,-3.431307,-0.263210,0.092851,-0.172263,-0.801455
2025-12-31T15:59:11.127073,10.183852,-3.450450,-0.291924,0.112399,-0.221133,-0.762359
2025-12-31T15:59:11.137073,10.150353,-3.421736,-0.325423,0.135612,-0.259006,-0.730594
2025-12-31T15:59:11.147073,10.183852,-3.345165,-0.392422,0.145385,-0.280997,-0.695164
2025-12-31T15:59:11.156073,10.126425,-3.235096,-0.382851,0.153938,-0.272445,-0.660956
2025-12-31T15:59:11.166073,9.982855,-3.000599,-0.339780,0.153938,-0.228463,-0.625525
2025-12-31T15:59:11.175073,9.686145,-2.861815,-0.330209,0.127059,-0.180816,-0.586430
2025-12-31T15:59:11.185073,9.355936,-2.775674,-0.191425,0.087964,-0.157603,-0.558330
2025-12-31T15:59:11.195073,9.044869,-2.746960,-0.047856,0.047647,-0.168598,-0.540004
2025-12-31T15:59:11.204073,8.791230,-2.713460,-0.057427,0.012217,-0.196698,-0.524122
2025-12-31T15:59:11.214073,8.604590,-2.679961,-0.095712,-0.012217,-0.208915,-0.510683
2025-12-31T15:59:11.223073,8.370093,-2.603390,0.019142,-0.034208,-0.191811,-0.502131
2025-12-31T15:59:11.233073,8.140382,-2.565105,0.066999,-0.051312,-0.166155,-0.498465
2025-12-31T15:59:11.243073,7.810172,-2.603390,-0.019142,-0.074525,-0.130725,-0.491135
2025-12-31T15:59:11.252073,7.369893,-2.718246,0.081355,-0.086742,-0.101403,-0.489913
2025-12-31T15:59:11.262073,7.087540,-2.914457,0.052642,-0.062308,-0.080634,-0.498465
2025-12-31T15:59:11.272073,6.699903,-2.924029,0.038285,0.029321,-0.053756,-0.520457
2025-12-31T15:59:11.281073,6.317051,-2.742174,0.205782,0.140498,-0.008552,-0.544891
2025-12-31T15:59:11.291073,5.871986,-2.478964,0.354137,0.224798,0.034208,-0.570548
2025-12-31T15:59:11.300073,5.441278,-2.268395,0.478564,0.261450,0.073303,-0.580321
2025-12-31T15:59:11.310073,5.005784,-2.139183,0.488135,0.262671,0.095294,-0.574213
2025-12-31T15:59:11.320073,4.527220,-2.182254,0.622133,0.246789,0.106290,-0.565661
2025-12-31T15:59:11.329073,4.240081,-2.182254,0.818345,0.246789,0.095294,-0.548556
2025-12-31T15:59:11.339073,3.909872,-2.297109,0.866201,0.268780,0.056199,-0.532674
2025-12-31T15:59:11.348073,3.737588,-2.301895,0.942772,0.304210,0.004886,-0.504574
2025-12-31T15:59:11.358073,3.718446,-2.354537,1.110269,0.346971,-0.040317,-0.472809
2025-12-31T15:59:11.368073,3.804587,-2.364108,1.225125,0.399505,-0.057421,-0.442266
2025-12-31T15:59:11.377073,3.818944,-2.383251,1.287338,0.461814,-0.050090,-0.409279
2025-12-31T15:59:11.387073,3.871586,-2.440679,1.526620,0.538783,-0.026878,-0.377514
2025-12-31T15:59:11.397073,3.981656,-2.493321,1.804188,0.634077,-0.009773,-0.349414
2025-12-31T15:59:11.406073,4.120440,-2.354537,1.871187,0.720820,-0.013439,-0.307876
2025-12-31T15:59:11.416073,4.450650,-2.048256,1.986042,0.790459,-0.020769,-0.263893
2025-12-31T15:59:11.425073,4.776073,-1.579262,2.081755,0.821002,-0.002443,-0.228463
2025-12-31T15:59:11.435073,5.197210,-0.966700,1.981257,0.742811,0.048869,-0.169820
2025-12-31T15:59:11.445073,5.422136,-0.411565,1.579262,0.544891,0.128281,-0.084299
2025-12-31T15:59:11.454073,5.632704,0.014356,1.115055,0.254119,0.254119,0.019547
2025-12-31T15:59:11.464073,5.503491,0.138783,0.698704,-0.106290,0.411723,0.128281
2025-12-31T15:59:11.473073,5.206781,-0.062213,0.287138,-0.463035,0.537561,0.230907
2025-12-31T15:59:11.483073,4.838287,-0.593420,0.066999,-0.783129,0.582765,0.321315
2025-12-31T15:59:11.493073,4.689932,-1.517049,0.014356,-0.993266,0.525343,0.381179
2025-12-31T15:59:11.502073,5.077569,-2.129612,0.133998,-1.010370,0.397062,0.408057
2025-12-31T15:59:11.512073,5.881557,-2.234896,0.124426,-0.899193,0.226020,0.416610
2025-12-31T15:59:11.522073,6.896114,-1.607976,-0.177068,-0.805120,0.076969,0.410501
2025-12-31T15:59:11.531073,8.054240,-0.746560,-0.559920,-0.814894,0.006108,0.404392
2025-12-31T15:59:11.541073,9.111868,0.062213,-1.100698,-0.934623,0.039095,0.406836
2025-12-31T15:59:11.550073,9.810572,0.516849,-1.469193,-1.137430,0.180816,0.434935
2025-12-31T15:59:11.560073,10.140782,0.507278,-1.560120,-1.374446,0.416610,0.488692
2025-12-31T15:59:11.570073,9.906285,0.296710,-1.612762,-1.576031,0.685390,0.532674
2025-12-31T15:59:11.579073,9.087940,-0.028713,-1.732403,-1.696983,0.897971,0.557108
2025-12-31T15:59:11.589073,8.226524,-0.306281,-1.775474,-1.748295,0.972497,0.540004
2025-12-31T15:59:11.598073,7.599604,-0.502492,-1.651047,-1.781282,0.878424,0.485026
2025-12-31T15:59:11.608073,7.465606,-0.665204,-1.698904,-1.800830,0.651182,0.410501
2025-12-31T15:59:11.618073,7.853243,-0.799202,-1.823330,-1.797165,0.388510,0.327423
2025-12-31T15:59:11.627073,8.518448,-1.086341,-1.952543,-1.791056,0.141720,0.243124
2025-12-31T15:59:11.637073,9.375078,-1.440479,-1.938186,-1.760513,-0.051312,0.164933
2025-12-31T15:59:11.647073,10.351350,-1.904686,-1.737189,-1.698205,-0.180816,0.076969
2025-12-31T15:59:11.656073,11.207981,-2.325823,-1.545763,-1.599244,-0.227241,-0.015882
2025-12-31T15:59:11.666073,11.801401,-2.713460,-1.253839,-1.456302,-0.191811,-0.107512
2025-12-31T15:59:11.675073,12.102896,-2.924029,-0.995414,-1.280373,-0.063529,-0.179594
2025-12-31T15:59:11.685073,11.834900,-2.909672,-0.765703,-1.088561,0.105068,-0.215024
2025-12-31T15:59:11.695073,10.997412,-2.914457,-0.598205,-0.924849,0.277332,-0.228463
2025-12-31T15:59:11.704073,9.949356,-2.938386,-0.301495,-0.806341,0.378736,-0.230907
2025-12-31T15:59:11.714073,8.843872,-3.120240,-0.153140,-0.696386,0.370184,-0.218689
2025-12-31T15:59:11.723073,7.996813,-3.421736,0.038285,-0.547335,0.260228,-0.205250
2025-12-31T15:59:11.733073,7.436892,-3.617947,0.205782,-0.324980,0.107512,-0.199142
2025-12-31T15:59:11.743073,7.130611,-3.665804,0.291924,-0.059864,-0.058643,-0.185702
2025-12-31T15:59:11.752073,7.173682,-3.536591,0.468993,0.189368,-0.230907,-0.161268
2025-12-31T15:59:11.762073,7.542176,-3.397808,0.684347,0.384845,-0.398284,-0.124616
2025-12-31T15:59:11.772073,8.145168,-3.115455,0.756131,0.540004,-0.536339,-0.086742
2025-12-31T15:59:11.781073,8.915657,-2.660818,0.674775,0.626747,-0.625525,-0.051312
2025-12-31T15:59:11.791073,9.700502,-2.498106,0.794417,0.642630,-0.651182,-0.007330
2025-12-31T15:59:11.800073,10.327422,-2.445464,0.808774,0.604756,-0.602312,0.032986
2025-12-31T15:59:11.810073,10.743773,-2.445464,0.751346,0.568104,-0.508239,0.054977
2025-12-31T15:59:11.820073,10.963913,-2.526820,0.703489,0.548556,-0.405614,0.058643
2025-12-31T15:59:11.829073,10.920842,-2.694318,0.641276,0.535117,-0.306654,0.061086
2025-12-31T15:59:11.839073,10.810772,-2.742174,0.512064,0.519235,-0.227241,0.053756
2025-12-31T15:59:11.848073,10.585847,-2.775674,0.406779,0.496022,-0.157603,0.036651
2025-12-31T15:59:11.858073,10.265208,-2.909672,0.349352,0.469144,-0.101403,0.021991
2025-12-31T15:59:11.868073,9.925428,-3.034099,0.339780,0.448374,-0.069638,0.013439
2025-12-31T15:59:11.877073,9.662217,-3.091526,0.425922,0.449596,-0.073303,0.000000
2025-12-31T15:59:11.887073,9.556933,-3.019742,0.421136,0.471587,-0.100181,-0.010995
2025-12-31T15:59:11.897073,9.470791,-2.799602,0.483350,0.505796,-0.109955,-0.018325
2025-12-31T15:59:11.906073,9.394221,-2.617747,0.622133,0.515570,-0.085521,-0.012217
2025-12-31T15:59:11.916073,9.174081,-2.502892,0.531206,0.491135,-0.048869,0.001221
2025-12-31T15:59:11.925073,8.930013,-2.550748,0.564706,0.471587,-0.002443,0.021991
2025-12-31T15:59:11.935073,8.595018,-2.675175,0.555134,0.485026,0.046425,0.040317
2025-12-31T15:59:11.945073,8.226524,-2.775674,0.516849,0.536339,0.078190,0.053756
2025-12-31T15:59:11.954073,7.805387,-2.727817,0.531206,0.605978,0.098960,0.065973
2025-12-31T15:59:11.964073,7.456035,-2.622533,0.579063,0.669508,0.087964,0.070860
2025-12-31T15:59:11.973073,7.245466,-2.579462,0.583848,0.714712,0.051312,0.075747
2025-12-31T15:59:11.983073,6.996613,-2.493321,0.483350,0.759916,0.026878,0.086742
2025-12-31T15:59:11.993073,6.814758,-2.378465,0.512064,0.814894,0.034208,0.108733
2025-12-31T15:59:12.002073,6.618547,-2.292324,0.555134,0.853989,0.047647,0.129503
2025-12-31T15:59:12.012073,6.307480,-2.076970,0.473778,0.879645,0.068416,0.152716
2025-12-31T15:59:12.022073,6.039484,-1.813759,0.468993,0.893084,0.116064,0.196698
2025-12-31T15:59:12.031073,5.694917,-1.588834,0.555134,0.852767,0.162490,0.237015
2025-12-31T15:59:12.041073,5.240281,-1.435693,0.598205,0.784350,0.226020,0.273667
2025-12-31T15:59:12.050073,4.670789,-1.282552,0.669990,0.725707,0.318871,0.317649
2025-12-31T15:59:12.060073,3.948157,-0.990628,0.646062,0.667064,0.400727,0.348193
2025-12-31T15:59:12.070073,3.273381,-0.890130,0.669990,0.588873,0.422718,0.356745
2025-12-31T15:59:12.079073,2.632104,-0.827916,0.612562,0.519235,0.370184,0.356745
2025-12-31T15:59:12.089073,2.191825,-1.009771,0.564706,0.471587,0.257785,0.353080
2025-12-31T15:59:12.098073,2.038684,-1.268195,0.502492,0.475253,0.111177,0.332310
2025-12-31T15:59:12.108073,2.340180,-1.406979,0.512064,0.548556,-0.047647,0.287106
2025-12-31T15:59:12.118073,2.794816,-1.488335,0.588634,0.642630,-0.191811,0.226020
2025-12-31T15:59:12.127073,3.646661,-1.689332,0.655633,0.702494,-0.289550,0.162490
2025-12-31T15:59:12.137073,4.421936,-1.986042,0.559920,0.741590,-0.320093,0.102625
2025-12-31T15:59:12.147073,5.130211,-2.311466,0.445065,0.828333,-0.272445,0.045204
2025-12-31T15:59:12.156073,5.551348,-2.383251,0.392422,0.938288,-0.167377,-0.015882
2025-12-31T15:59:12.166073,5.747559,-2.225325,0.468993,1.037248,-0.031764,-0.056199
2025-12-31T15:59:12.175073,5.728417,-1.842473,0.435493,1.077566,0.089186,-0.075747
2025-12-31T15:59:12.185073,5.651846,-1.392622,0.387637,1.025031,0.171042,-0.057421
2025-12-31T15:59:12.195073,5.642275,-0.937986,0.535992,0.873537,0.219911,-0.002443
2025-12-31T15:59:12.204073,5.642275,-0.689132,0.736989,0.649960,0.248011,0.072082
2025-12-31T15:59:12.214073,5.704489,-0.689132,0.684347,0.397062,0.276111,0.163711
2025-12-31T15:59:12.223073,5.891129,-0.880558,0.631705,0.155159,0.274889,0.257785
2025-12-31T15:59:12.233073,6.139982,-1.292124,0.425922,-0.051312,0.228463,0.334754
2025-12-31T15:59:12.243073,6.575476,-1.770688,0.320638,-0.195476,0.135612,0.394618
2025-12-31T15:59:12.252073,7.202396,-2.254038,0.373280,-0.260228,0.018325,0.438601
2025-12-31T15:59:12.262073,7.877171,-2.775674,0.401994,-0.262671,-0.067195,0.471587
2025-12-31T15:59:12.272073,8.623732,-3.067598,0.157926,-0.232128,-0.094073,0.499687
2025-12-31T15:59:12.281073,9.231509,-3.187239,-0.047856,-0.172263,-0.056199,0.522900
2025-12-31T15:59:12.291073,9.619146,-3.129811,0.028713,-0.085521,0.061086,0.541226
2025-12-31T15:59:12.300073,9.633503,-2.847458,0.028713,0.007330,0.246789,0.576656
2025-12-31T15:59:12.310073,9.279366,-2.612962,0.378065,0.018325,0.408057,0.652403
2025-12-31T15:59:12.320073,8.886943,-2.799602,0.990628,-0.079412,0.465479,0.747698
2025-12-31T15:59:12.329073,8.647660,-3.412165,1.344766,-0.222354,0.382401,0.821002
2025-12-31T15:59:12.339073,8.920442,-4.307080,1.880758,-0.267558,0.211359,0.873537
2025-12-31T15:59:12.348073,9.623932,-4.785645,2.057827,-0.162490,0.003665,0.904080
2025-12-31T15:59:12.358073,10.624132,-4.771288,1.828116,-0.030543,-0.180816,0.910189
2025-12-31T15:59:12.368073,11.648260,-4.479363,1.665404,0.021991,-0.295658,0.949284
2025-12-31T15:59:12.377073,12.610175,-4.225724,1.335195,-0.003665,-0.293215,1.005483
2025-12-31T15:59:12.387073,13.222737,-4.139583,1.354337,-0.136833,-0.180816,1.084896
2025-12-31T15:59:12.397073,13.438091,-4.613361,1.091127,-0.354301,0.031764,1.188743
2025-12-31T15:59:12.406073,13.198809,-5.369493,0.559920,-0.502131,0.267558,1.296255
2025-12-31T15:59:12.416073,12.619746,-6.317051,-0.157926,-0.548556,0.390953,1.403768
2025-12-31T15:59:12.425073,12.299108,-7.446463,-0.306281,-0.497244,0.342084,1.500284
2025-12-31T15:59:12.435073,12.303893,-8.164310,-0.210568,-0.248011,0.215024,1.567479
2025-12-31T15:59:12.445073,12.658031,-8.264809,0.124426,0.114842,0.122173,1.628566
2025-12-31T15:59:12.454073,13.088739,-7.891528,0.411565,0.383623,0.139277,1.731191
2025-12-31T15:59:12.464073,13.366307,-7.374679,0.435493,0.504574,0.235793,1.888794
2025-12-31T15:59:12.473073,13.318450,-7.006184,0.315852,0.515570,0.327423,2.056171
2025-12-31T15:59:12.483073,13.227523,-6.819544,0.421136,0.470366,0.381179,2.189340
2025-12-31T15:59:12.493073,13.227523,-6.824330,0.435493,0.430049,0.409279,2.287078
2025-12-31T15:59:12.502073,13.060025,-6.814758,0.406779,0.411723,0.422718,2.361604
2025-12-31T15:59:12.512073,12.954741,-7.006184,0.650847,0.437379,0.437379,2.401921
2025-12-31T15:59:12.522073,12.830314,-7.168896,0.909272,0.494800,0.460592,2.398256
2025-12-31T15:59:12.531073,12.705888,-7.331608,1.028913,0.605978,0.500909,2.377487
2025-12-31T15:59:12.541073,12.399606,-7.331608,1.115055,0.752585,0.515570,2.343278
2025-12-31T15:59:12.550073,12.308679,-7.211967,1.105484,0.895528,0.485026,2.298074
2025-12-31T15:59:12.560073,12.337393,-6.843472,1.105484,0.987158,0.415388,2.257757
2025-12-31T15:59:12.570073,12.571889,-6.709474,1.201196,0.976162,0.348193,2.222327
2025-12-31T15:59:12.579073,12.978669,-6.776473,1.124626,0.824667,0.283441,2.208888
2025-12-31T15:59:12.589073,13.505090,-7.216752,0.794417,0.668286,0.230907,2.206444
2025-12-31T15:59:12.598073,13.954941,-7.661817,0.693918,0.619417,0.205250,2.182010
2025-12-31T15:59:12.608073,14.304293,-7.781459,0.598205,0.610865,0.211359,2.129475
2025-12-31T15:59:12.618073,14.548361,-7.896314,0.516849,0.597426,0.239459,2.051285
2025-12-31T15:59:12.627073,14.749358,-7.891528,0.488135,0.612086,0.263893,1.942551
2025-12-31T15:59:12.637073,14.912070,-7.834101,0.435493,0.627969,0.250454,1.814269
2025-12-31T15:59:12.647073,15.122638,-7.532605,0.000000,0.614530,0.179594,1.671326
2025-12-31T15:59:12.656073,15.467205,-7.168896,-0.516849,0.549778,0.074525,1.510058
2025-12-31T15:59:12.666073,15.806986,-6.843472,-0.952343,0.423940,-0.046425,1.318246
2025-12-31T15:59:12.675073,16.204193,-6.618547,-1.378265,0.245567,-0.153938,1.116661
2025-12-31T15:59:12.685073,16.539188,-6.384050,-1.737189,0.061086,-0.227241,0.911410
2025-12-31T15:59:12.695073,16.754543,-6.245266,-1.808973,-0.127059,-0.259006,0.698829
2025-12-31T15:59:12.704073,16.735401,-6.192624,-1.655833,-0.334754,-0.263893,0.476474
2025-12-31T15:59:12.714073,16.572689,-6.360122,-1.316052,-0.547335,-0.266337,0.246789
2025-12-31T15:59:12.723073,16.247265,-6.685546,-0.732203,-0.720820,-0.284663,0.004886
2025-12-31T15:59:12.733073,15.754343,-7.020541,-0.023928,-0.822224,-0.294436,-0.227241
2025-12-31T15:59:12.743073,14.979069,-7.312465,0.583848,-0.844215,-0.289550,-0.452040
2025-12-31T15:59:12.752073,14.165509,-7.537391,0.842273,-0.786794,-0.282219,-0.673173
2025-12-31T15:59:12.762073,13.308879,-7.767102,1.004985,-0.664621,-0.300545,-0.902858
2025-12-31T15:59:12.772073,12.504890,-7.972884,1.268195,-0.507018,-0.381179,-1.123991
2025-12-31T15:59:12.781073,12.026326,-8.350950,1.555334,-0.301767,-0.521678,-1.342681
2025-12-31T15:59:12.791073,11.791829,-8.872586,1.411765,-0.014660,-0.709825,-1.554040
2025-12-31T15:59:12.800073,11.925827,-9.322436,1.636690,0.410501,-0.893084,-1.767843
2025-12-31T15:59:12.810073,12.179467,-8.987441,1.746760,0.954171,-1.007927,-1.993863
2025-12-31T15:59:12.820073,12.552747,-8.035098,1.454836,1.478293,-1.040914,-2.183231
2025-12-31T15:59:12.829073,12.715459,-6.618547,1.043270,1.870468,-0.993266,-2.321287
2025-12-31T15:59:12.839073,12.667602,-5.072783,0.784845,2.042732,-0.872315,-2.412917
2025-12-31T15:59:12.848073,12.294322,-3.742374,0.459421,1.973094,-0.729372,-2.441016
2025-12-31T15:59:12.858073,11.748758,-2.914457,-0.047856,1.744630,-0.627969,-2.410473
2025-12-31T15:59:12.868073,11.241480,-2.431107,-0.478564,1.455080,-0.602312,-2.350608
2025-12-31T15:59:12.877073,10.738987,-2.292324,-0.760917,1.153313,-0.678060,-2.287078
2025-12-31T15:59:12.887073,10.557133,-2.526820,-0.837487,0.885754,-0.834441,-2.234544
2025-12-31T15:59:12.897073,10.662417,-2.919243,-0.636490,0.700051,-1.027475,-2.208888
2025-12-31T15:59:12.906073,11.097911,-3.479164,-0.296710,0.637743,-1.205847,-2.204001
2025-12-31T15:59:12.916073,11.696116,-3.991228,-0.038285,0.711046,-1.313359,-2.200336
2025-12-31T15:59:12.925073,12.270394,-4.220939,0.157926,0.873537,-1.324355,-2.193005
2025-12-31T15:59:12.935073,12.662817,-3.991228,0.325423,1.062905,-1.233947,-2.171014
2025-12-31T15:59:12.945073,12.744173,-3.598805,0.421136,1.208291,-1.078787,-2.130697
2025-12-31T15:59:12.954073,12.619746,-3.105883,0.454636,1.269377,-0.902858,-2.057393
2025-12-31T15:59:12.964073,12.198609,-2.416750,0.626919,1.229060,-0.772133,-1.948659
2025-12-31T15:59:12.973073,11.763115,-1.545763,0.669990,1.064127,-0.704938,-1.809382
2025-12-31T15:59:12.983073,11.480762,-0.961914,0.641276,0.740368,-0.701273,-1.653000
2025-12-31T15:59:12.993073,11.303693,-0.789631,0.555134,0.317649,-0.752585,-1.507615
2025-12-31T15:59:13.002073,11.308479,-0.885344,0.382851,-0.061086,-0.838106,-1.373224
2025-12-31T15:59:13.012073,11.413763,-0.918843,0.196211,-0.373849,-0.907745,-1.240056
2025-12-31T15:59:13.022073,11.590832,-1.009771,0.028713,-0.678060,-0.939510,-1.147204
2025-12-31T15:59:13.031073,11.729616,-1.469193,-0.028713,-0.941954,-0.934623,-1.087339
2025-12-31T15:59:13.041073,11.916256,-1.718046,-0.200997,-1.133765,-0.899193,-1.043357
2025-12-31T15:59:13.050073,11.964113,-2.096112,-0.277567,-1.266934,-0.834441,-1.018923
2025-12-31T15:59:13.060073,11.877971,-2.493321,-0.272781,-1.353677,-0.751364,-1.011592
2025-12-31T15:59:13.070073,11.700902,-2.703889,-0.244067,-1.389107,-0.675616,-1.031140
2025-12-31T15:59:13.079073,11.375478,-2.981456,-0.344566,-1.392772,-0.616973,-1.054353
2025-12-31T15:59:13.089073,11.093125,-3.096312,-0.411565,-1.391550,-0.576656,-1.088561
2025-12-31T15:59:13.098073,10.762916,-3.206382,-0.454636,-1.379333,-0.558330,-1.128878
2025-12-31T15:59:13.108073,10.561918,-3.421736,-0.435493,-1.340238,-0.552222,-1.172861
2025-12-31T15:59:13.118073,10.365707,-3.536591,-0.344566,-1.275486,-0.560774,-1.220508
2025-12-31T15:59:13.127073,10.341779,-3.416950,-0.435493,-1.178969,-0.558330,-1.264490
2025-12-31T15:59:13.137073,10.164710,-3.239881,-0.263210,-1.088561,-0.519235,-1.292590
2025-12-31T15:59:13.147073,9.877571,-3.129811,-0.210568,-1.029918,-0.448374,-1.304807
2025-12-31T15:59:13.156073,9.456434,-2.957528,-0.100498,-0.995710,-0.377514,-1.307251
2025-12-31T15:59:13.166073,9.040083,-2.876172,0.023928,-0.971275,-0.324980,-1.291368
2025-12-31T15:59:13.175073,8.561519,-2.746960,0.086141,-0.959058,-0.284663,-1.257160
2025-12-31T15:59:13.185073,8.092526,-2.584248,0.205782,-0.965166,-0.249232,-1.211956
2025-12-31T15:59:13.195073,7.594818,-2.493321,0.239282,-0.994488,-0.204028,-1.154535
2025-12-31T15:59:13.204073,7.197610,-2.335394,0.349352,-1.069013,-0.153938,-1.078787
2025-12-31T15:59:13.214073,6.695117,-1.263410,-0.646062,-1.286481,-0.101403,-0.873537
2025-12-31T15:59:13.223073,6.446264,0.277567,1.627119,-1.435533,0.162490,-0.637743
2025-12-31T15:59:13.233073,5.393422,-2.100898,1.335195,-2.263866,0.356745,-0.557108
2025-12-31T15:59:13.243073,4.857429,-5.881557,0.358923,-2.605950,0.168598,-0.531452
2025-12-31T15:59:13.252073,4.608576,-5.335994,1.770688,-1.530827,0.249232,-0.496022
2025-12-31T15:59:13.262073,3.900300,-2.842673,2.603390,-0.970053,0.466700,-0.505796
2025-12-31T15:59:13.272073,3.244667,-3.440878,2.067398,-1.462411,0.467922,-0.470366
2025-12-31T15:59:13.281073,2.589034,-5.383850,1.091127,-1.334129,0.342084,-0.436157
2025-12-31T15:59:13.291073,2.268395,-3.684946,2.612962,-0.557108,0.179594,-0.519235
2025-12-31T15:59:13.300073,2.431107,-0.952343,2.880958,-0.289550,0.095294,-0.625525
2025-12-31T15:59:13.310073,2.732603,0.081355,1.919043,-0.681725,-0.010995,-0.515570
2025-12-31T15:59:13.320073,3.048455,-0.727418,1.981257,-1.183856,-0.075747,-0.300545
2025-12-31T15:59:13.329073,3.297309,-2.335394,1.928615,-1.453858,-0.080634,-0.168598
2025-12-31T15:59:13.339073,3.522234,-3.708875,1.339980,-1.374446,-0.075747,-0.108733
2025-12-31T15:59:13.348073,3.799802,-4.067798,1.296909,-1.021366,-0.039095,-0.096516
2025-12-31T15:59:13.358073,4.130011,-3.479164,1.454836,-0.646295,0.039095,-0.134390
2025-12-31T15:59:13.368073,4.369294,-2.565105,1.330409,-0.438601,0.116064,-0.157603
2025-12-31T15:59:13.377073,4.575076,-1.718046,0.990628,-0.422718,0.157603,-0.146607
2025-12-31T15:59:13.387073,4.800002,-1.378265,0.708275,-0.540004,0.186924,-0.116064
2025-12-31T15:59:13.397073,4.996213,-1.373480,0.349352,-0.700051,0.205250,-0.081855
2025-12-31T15:59:13.406073,5.245067,-1.507478,0.148355,-0.831998,0.184481,-0.041538
2025-12-31T15:59:13.416073,5.723631,-1.473978,-0.028713,-0.907745,0.114842,-0.017104
2025-12-31T15:59:13.425073,6.379265,-1.277767,-0.392422,-0.976162,0.002443,-0.015882
2025-12-31T15:59:13.435073,7.149753,-1.134197,-0.612562,-1.080009,-0.105068,-0.007330
2025-12-31T15:59:13.445073,8.044669,-1.038485,-0.789631,-1.200960,-0.163711,-0.001221
2025-12-31T15:59:13.454073,8.901300,-0.985842,-0.985842,-1.345124,-0.158824,0.009773
2025-12-31T15:59:13.464073,9.628718,-1.067198,-1.076770,-1.507615,-0.090408,0.048869
2025-12-31T15:59:13.473073,10.226923,-1.311266,-1.158126,-1.638340,0.029321,0.094073
2025-12-31T15:59:13.483073,10.461420,-1.607976,-1.191625,-1.707978,0.196698,0.147829
2025-12-31T15:59:13.493073,10.341779,-1.842473,-1.129412,-1.725083,0.367740,0.199142
2025-12-31T15:59:13.502073,9.968498,-1.909472,-0.928415,-1.700648,0.493579,0.227241
2025-12-31T15:59:13.512073,9.509077,-2.062613,-0.703489,-1.634675,0.540004,0.241902
2025-12-31T15:59:13.522073,9.121439,-2.172682,-0.373280,-1.541823,0.500909,0.245567
2025-12-31T15:59:13.531073,8.997012,-2.273181,-0.086141,-1.429424,0.365297,0.244346
2025-12-31T15:59:13.541073,9.250652,-2.426322,0.138783,-1.277929,0.151494,0.226020
2025-12-31T15:59:13.550073,9.973284,-2.416750,0.181854,-1.073900,-0.074525,0.196698
2025-12-31T15:59:13.560073,10.815558,-2.306680,0.167497,-0.851545,-0.213802,0.172263
2025-12-31T15:59:13.570073,11.629117,-2.033899,0.196211,-0.646295,-0.235793,0.157603
2025-12-31T15:59:13.579073,12.145967,-1.933400,0.162711,-0.471587,-0.168598,0.160046
2025-12-31T15:59:13.589073,12.390035,-1.708475,0.066999,-0.312762,-0.048869,0.177150
2025-12-31T15:59:13.598073,12.131610,-1.402194,0.000000,-0.172263,0.102625,0.211359
2025-12-31T15:59:13.608073,11.566904,-1.138983,0.057427,-0.061086,0.251676,0.255341
2025-12-31T15:59:13.618073,10.705488,-0.823130,0.129212,0.009773,0.371405,0.302989
2025-12-31T15:59:13.627073,9.786644,-0.669990,0.200997,0.046425,0.430049,0.351858
2025-12-31T15:59:13.637073,8.891728,-0.497707,0.301495,0.065973,0.417831,0.390953
2025-12-31T15:59:13.647073,8.264809,-0.445065,0.349352,0.075747,0.340862,0.430049
2025-12-31T15:59:13.656073,7.920242,-0.306281,0.358923,0.075747,0.224798,0.450818
2025-12-31T15:59:13.666073,7.743173,-0.368494,0.406779,0.061086,0.094073,0.458148
2025-12-31T15:59:13.675073,7.886743,-0.540777,0.406779,0.056199,-0.035430,0.448374
2025-12-31T15:59:13.685073,8.288737,-0.646062,0.397208,0.080634,-0.149051,0.420275
2025-12-31T15:59:13.695073,8.891728,-0.789631,0.401994,0.133168,-0.229685,0.392175
2025-12-31T15:59:13.704073,9.461220,-0.703489,0.430708,0.194255,-0.274889,0.356745
2025-12-31T15:59:13.714073,10.159924,-0.574277,0.430708,0.235793,-0.267558,0.322536
2025-12-31T15:59:13.723073,10.490134,-0.401994,0.258424,0.246789,-0.213802,0.289550
2025-12-31T15:59:13.733073,10.710273,-0.263210,0.215354,0.228463,-0.125838,0.266337
2025-12-31T15:59:13.743073,10.657631,-0.296710,0.157926,0.186924,-0.034208,0.245567
2025-12-31T15:59:13.752073,10.456634,-0.392422,0.129212,0.151494,0.035430,0.228463
2025-12-31T15:59:13.762073,10.135996,-0.564706,0.119641,0.142942,0.069638,0.207694
2025-12-31T15:59:13.772073,9.796215,-0.789631,0.177068,0.169820,0.069638,0.177150
2025-12-31T15:59:13.781073,9.480363,-0.837487,0.358923,0.212581,0.050090,0.141720
2025-12-31T15:59:13.791073,9.174081,-1.100698,0.387637,0.268780,0.021991,0.109955
2025-12-31T15:59:13.800073,8.843872,-1.335195,0.521635,0.360410,-0.009773,0.078190
2025-12-31T15:59:13.810073,8.614161,-1.497906,0.660419,0.456927,-0.045204,0.039095
2025-12-31T15:59:13.820073,8.408378,-1.765903,0.708275,0.552222,-0.086742,-0.001221
2025-12-31T15:59:13.829073,8.226524,-1.952543,0.655633,0.653625,-0.136833,-0.040317
2025-12-31T15:59:13.839073,8.116454,-2.196611,0.617348,0.764803,-0.196698,-0.081855
2025-12-31T15:59:13.848073,8.149953,-2.488535,0.665204,0.896749,-0.260228,-0.123394
2025-12-31T15:59:13.858073,8.279166,-2.598605,0.569491,1.065348,-0.318871,-0.169820
2025-12-31T15:59:13.868073,8.465806,-2.526820,0.607776,1.251051,-0.331088,-0.211359
2025-12-31T15:59:13.877073,8.489734,-2.301895,0.559920,1.379333,-0.295658,-0.241902
2025-12-31T15:59:13.887073,8.288737,-2.268395,0.435493,1.459967,-0.244346,-0.259006
2025-12-31T15:59:13.897073,8.059026,-2.000399,0.449850,1.527162,-0.205250,-0.257785
2025-12-31T15:59:13.906073,7.767102,-1.660618,0.464207,1.561371,-0.160046,-0.240680
2025-12-31T15:59:13.916073,7.345965,-1.363908,0.516849,1.536936,-0.116064,-0.211359
2025-12-31T15:59:13.925073,6.843472,-1.205982,0.674775,1.488067,-0.064751,-0.172263
2025-12-31T15:59:13.935073,6.470192,-0.976271,0.756131,1.423315,-0.003665,-0.113620
2025-12-31T15:59:13.945073,5.967699,-0.770488,1.062413,1.325577,0.083077,-0.030543
2025-12-31T15:59:13.954073,5.460421,-0.789631,1.411765,1.167974,0.180816,0.057421
2025-12-31T15:59:13.964073,4.785645,-1.344766,0.799202,0.974940,0.237015,0.163711
2025-12-31T15:59:13.973073,4.211367,-1.823330,0.842273,0.979827,0.260228,0.240680
2025-12-31T15:59:13.983073,3.560520,-1.536192,1.086341,1.143539,0.295658,0.251676
2025-12-31T15:59:13.993073,2.919243,-1.143769,1.009771,1.181413,0.288328,0.254119
2025-12-31T15:59:14.002073,2.574677,-1.335195,1.062413,1.144761,0.208915,0.272445
2025-12-31T15:59:14.012073,2.541177,-1.708475,1.306481,1.171639,0.052534,0.277332
2025-12-31T15:59:14.022073,2.914457,-2.134397,1.430907,1.211956,-0.136833,0.262671
2025-12-31T15:59:14.031073,3.718446,-2.579462,1.239482,1.270599,-0.328645,0.239459
2025-12-31T15:59:14.041073,4.881358,-2.756531,1.316052,1.397659,-0.453261,0.196698
2025-12-31T15:59:14.050073,6.154339,-2.584248,1.612762,1.490510,-0.474031,0.135612
2025-12-31T15:59:14.060073,7.173682,-2.373680,1.770688,1.486845,-0.389731,0.091629
2025-12-31T15:59:14.070073,7.996813,-2.091326,1.454836,1.455080,-0.210137,0.083077
2025-12-31T15:59:14.079073,8.461020,-1.488335,1.148554,1.359785,0.035430,0.114842
2025-12-31T15:59:14.089073,8.494520,-0.957129,0.957129,1.111774,0.289550,0.174707
2025-12-31T15:59:14.098073,8.264809,-0.550349,0.593420,0.739146,0.502131,0.272445
2025-12-31T15:59:14.108073,7.838886,-0.579063,0.531206,0.306654,0.631634,0.410501
2025-12-31T15:59:14.118073,7.369893,-1.014556,0.593420,-0.129503,0.689055,0.563217
2025-12-31T15:59:14.127073,7.006184,-1.737189,0.397208,-0.477696,0.708603,0.715933
2025-12-31T15:59:14.137073,6.757331,-2.340180,0.789631,-0.668286,0.712268,0.858876
2025-12-31T15:59:14.147073,6.546762,-2.761317,0.899701,-0.746477,0.696386,0.988379
2025-12-31T15:59:14.156073,6.465406,-2.847458,0.636490,-0.774576,0.654847,1.108109
2025-12-31T15:59:14.166073,6.532405,-2.837887,0.382851,-0.791681,0.593760,1.214399
2025-12-31T15:59:14.175073,6.608976,-2.991028,0.344566,-0.788015,0.522900,1.293812
2025-12-31T15:59:14.185073,6.809973,-3.316452,0.363709,-0.729372,0.454483,1.352455
2025-12-31T15:59:14.195073,7.010970,-3.665804,0.296710,-0.601091,0.410501,1.391550
2025-12-31T15:59:14.204073,7.030112,-3.675375,0.105284,-0.395840,0.388510,1.408654
2025-12-31T15:59:14.214073,7.039684,-3.536591,0.081355,-0.164933,0.354301,1.401324
2025-12-31T15:59:14.223073,7.221538,-3.488735,0.200997,0.021991,0.262671,1.372003
2025-12-31T15:59:14.233073,7.527819,-3.723231,0.713061,0.174707,0.111177,1.336572
2025-12-31T15:59:14.243073,8.135596,-3.895515,0.756131,0.331088,-0.075747,1.297477
2025-12-31T15:59:14.252073,8.992227,-3.972085,0.837487,0.515570,-0.232128,1.258382
2025-12-31T15:59:14.262073,9.868000,-3.823730,0.756131,0.736703,-0.291993,1.194852
2025-12-31T15:59:14.272073,10.518848,-3.613162,0.689132,0.927293,-0.252898,1.123991
2025-12-31T15:59:14.281073,11.011769,-3.263810,0.669990,1.011592,-0.138055,1.109331
2025-12-31T15:59:14.291073,11.126625,-3.292523,0.626919,0.970053,-0.014660,1.145982
2025-12-31T15:59:14.300073,11.160124,-3.689732,0.713061,0.856432,0.019547,1.188743
2025-12-31T15:59:14.310073,11.428120,-4.378865,0.722632,0.805120,-0.051312,1.213178
2025-12-31T15:59:14.320073,12.026326,-4.852644,0.765703,0.851545,-0.167377,1.224173
2025-12-31T15:59:14.329073,12.772887,-4.996213,0.703489,0.945619,-0.216246,1.240056
2025-12-31T15:59:14.339073,13.342378,-4.780859,0.497707,1.097113,-0.096516,1.262047
2025-12-31T15:59:14.348073,13.347164,-4.297509,0.564706,1.224173,0.219911,1.306029
2025-12-31T15:59:14.358073,12.643674,-3.862015,0.703489,1.197295,0.591317,1.400102
2025-12-31T15:59:14.368073,11.619546,-3.833301,0.813559,1.051909,0.810007,1.523497
2025-12-31T15:59:14.377073,10.710273,-4.187439,1.119840,0.888197,0.767246,1.631009
2025-12-31T15:59:14.387073,10.681560,-4.493720,1.660618,0.722042,0.493579,1.690874
2025-12-31T15:59:14.397073,11.562118,-4.977071,1.684547,0.583987,0.103847,1.736078
2025-12-31T15:59:14.406073,12.887742,-5.072783,1.148554,0.537561,-0.191811,1.806938
2025-12-31T15:59:14.416073,14.165509,-4.938785,0.717846,0.576656,-0.259006,1.888794
2025-12-31T15:59:14.425073,14.955141,-4.551148,0.512064,0.634077,-0.036651,1.929112
2025-12-31T15:59:14.435073,15.017354,-4.292723,0.492921,0.649960,0.401949,1.957211
2025-12-31T15:59:14.445073,14.222937,-4.374079,1.009771,0.587652,0.846659,2.031737
2025-12-31T15:59:14.454073,12.978669,-4.718646,1.330409,0.443488,1.069013,2.134362
2025-12-31T15:59:14.464073,12.131610,-5.259424,1.536192,0.226020,0.996931,2.211331
2025-12-31T15:59:14.473073,11.887542,-6.010770,1.540977,0.041538,0.740368,2.250427
2025-12-31T15:59:14.483073,12.174681,-6.709474,1.737189,-0.017104,0.466700,2.256535
2025-12-31T15:59:14.493073,12.854243,-7.235895,2.062613,0.004886,0.290771,2.262644
2025-12-31T15:59:14.502073,13.509876,-7.556533,2.081755,0.089186,0.248011,2.278526
2025-12-31T15:59:14.512073,13.916656,-7.594818,2.038684,0.238237,0.321315,2.279748
2025-12-31T15:59:14.522073,14.021940,-7.393821,1.938186,0.378736,0.458148,2.262644
2025-12-31T15:59:14.531073,14.055439,-7.034898,2.081755,0.437379,0.564439,2.252870
2025-12-31T15:59:14.541073,13.935798,-6.939185,2.340180,0.372627,0.593760,2.240653
2025-12-31T15:59:14.550073,13.854442,-7.149753,2.325823,0.224798,0.560774,2.202779
2025-12-31T15:59:14.560073,13.835300,-7.604390,2.344966,0.100181,0.508239,2.144136
2025-12-31T15:59:14.570073,13.844871,-8.126025,2.206182,0.058643,0.461814,2.067167
2025-12-31T15:59:14.579073,13.902299,-8.398807,1.928615,0.119729,0.388510,1.954768
2025-12-31T15:59:14.589073,14.151152,-8.379664,1.952543,0.224798,0.266337,1.776395
2025-12-31T15:59:14.598073,14.653645,-8.183453,1.981257,0.291993,0.125838,1.566258
2025-12-31T15:59:14.608073,15.117853,-7.886743,1.722832,0.310319,0.037873,1.363450
2025-12-31T15:59:14.618073,15.438491,-7.475177,1.287338,0.293215,0.026878,1.177747
2025-12-31T15:59:14.627073,15.548561,-7.015755,1.153340,0.238237,0.073303,0.996931
2025-12-31T15:59:14.637073,15.309278,-6.364908,1.043270,0.112399,0.168598,0.805120
2025-12-31T15:59:14.647073,14.888142,-5.857629,0.856630,-0.108733,0.234572,0.621860
2025-12-31T15:59:14.656073,14.294722,-5.560919,0.784845,-0.410501,0.213802,0.434935
2025-12-31T15:59:14.666073,13.849657,-5.580062,0.894915,-0.726929,0.122173,0.249232
2025-12-31T15:59:14.675073,13.414163,-5.800201,1.038485,-0.999375,0.017104,0.037873
2025-12-31T15:59:14.685073,13.093525,-6.125625,1.062413,-1.199739,-0.081855,-0.202807
2025-12-31T15:59:14.695073,12.830314,-6.513263,1.019342,-1.318246,-0.175929,-0.454483
2025-12-31T15:59:14.704073,12.658031,-6.819544,0.985842,-1.359785,-0.259006,-0.719599
2025-12-31T15:59:14.714073,12.370892,-7.211967,0.923629,-1.341459,-0.316428,-0.989601
2025-12-31T15:59:14.723073,12.069397,-7.523034,0.803988,-1.220508,-0.328645,-1.252273
2025-12-31T15:59:14.733073,11.643474,-7.843672,0.569491,-1.006705,-0.337197,-1.494176
2025-12-31T15:59:14.743073,11.332407,-7.896314,0.722632,-0.702494,-0.377514,-1.743409
2025-12-31T15:59:14.752073,11.260623,-7.733602,0.746560,-0.350636,-0.474031,-2.008524
2025-12-31T15:59:14.762073,11.461620,-7.255038,0.512064,0.014660,-0.585208,-2.265087
2025-12-31T15:59:14.772073,11.753544,-6.637689,0.205782,0.349414,-0.670729,-2.504546
2025-12-31T15:59:14.781073,12.189038,-5.996413,-0.200997,0.608421,-0.698829,-2.717128
2025-12-31T15:59:14.791073,12.370892,-5.326423,-0.669990,0.779463,-0.660956,-2.885726
2025-12-31T15:59:14.800073,12.318250,-4.780859,-1.014556,0.846659,-0.586430,-2.994460
2025-12-31T15:59:14.810073,11.992826,-4.527220,-1.282552,0.813672,-0.531452,-3.055547
2025-12-31T15:59:14.820073,11.552547,-4.575076,-1.239482,0.723264,-0.538783,-3.088534
2025-12-31T15:59:14.829073,11.184052,-4.905286,-1.129412,0.642630,-0.621860,-3.095864
2025-12-31T15:59:14.839073,11.078768,-5.398207,-0.698704,0.619417,-0.764803,-3.088534
2025-12-31T15:59:14.848073,11.255837,-5.857629,-0.095712,0.662177,-0.913854,-3.068986
2025-12-31T15:59:14.858073,11.447263,-6.178267,0.105284,0.755029,-1.033583,-3.016451
2025-12-31T15:59:14.868073,11.686545,-6.154339,0.129212,0.890641,-1.110552,-2.919935
2025-12-31T15:59:14.877073,11.863614,-5.824130,0.124426,1.038470,-1.133765,-2.798983
2025-12-31T15:59:14.887073,11.897113,-5.187639,-0.119641,1.156978,-1.094670,-2.659706
2025-12-31T15:59:14.897073,11.720045,-4.536791,-0.253639,1.236390,-1.028696,-2.528981
2025-12-31T15:59:14.906073,11.461620,-3.771088,-0.540777,1.268155,-0.967610,-2.410473
2025-12-31T15:59:14.916073,11.136196,-3.058027,-0.736989,1.254716,-0.954171,-2.290744
2025-12-31T15:59:14.925073,10.872985,-2.445464,-0.947557,1.237612,-1.005483,-2.177123
2025-12-31T15:59:14.935073,10.738987,-1.990828,-1.095912,1.196073,-1.109331,-2.089158
2025-12-31T15:59:14.945073,10.858628,-1.555334,-0.976271,1.095892,-1.229060,-2.015854
2025-12-31T15:59:14.954073,11.217552,-1.225125,-0.803988,0.955393,-1.336572,-1.930333
2025-12-31T15:59:14.964073,11.590832,-0.780060,-0.756131,0.767246,-1.414763,-1.817934
2025-12-31T15:59:14.973073,12.165110,-0.531206,-0.665204,0.470366,-1.474628,-1.685987
2025-12-31T15:59:14.983073,12.705888,-0.612562,-0.397208,0.068416,-1.508836,-1.535714
2025-12-31T15:59:14.993073,13.150953,-1.124626,-0.334995,-0.389731,-1.501506,-1.362229
2025-12-31T15:59:15.002073,13.524233,-1.938186,-0.497707,-0.774576,-1.447750,-1.202182
2025-12-31T15:59:15.012073,13.653445,-2.751745,-0.646062,-0.976162,-1.328020,-1.066570
2025-12-31T15:59:15.022073,13.471591,-3.019742,-0.751346,-1.028696,-1.159421,-0.956614
2025-12-31T15:59:15.031073,12.906885,-3.014956,-0.574277,-1.039692,-0.979827,-0.863763
2025-12-31T15:59:15.041073,12.241680,-2.852244,-0.478564,-1.070235,-0.850324,-0.797789
2025-12-31T15:59:15.050073,11.542976,-2.751745,-0.277567,-1.111774,-0.803898,-0.757472
2025-12-31T15:59:15.060073,11.050054,-2.713460,0.038285,-1.138652,-0.819780,-0.734259
2025-12-31T15:59:15.070073,10.868200,-2.498106,0.181854,-1.154535,-0.879645,-0.717155
2025-12-31T15:59:15.079073,10.849057,-2.277967,0.239282,-1.188743,-0.932180,-0.700051
2025-12-31T15:59:15.089073,10.877771,-2.167897,0.253639,-1.254716,-0.908967,-0.671951
2025-12-31T15:59:15.098073,10.748559,-2.110469,0.267996,-1.310916,-0.816115,-0.656069
2025-12-31T15:59:15.108073,10.394421,-2.172682,0.244067,-1.321912,-0.697607,-0.659734
2025-12-31T15:59:15.118073,9.906285,-2.100898,0.387637,-1.337794,-0.561995,-0.667064
2025-12-31T15:59:15.127073,9.332008,-2.100898,0.344566,-1.345124,-0.423940,-0.685390
2025-12-31T15:59:15.137073,8.571090,-2.081755,0.272781,-1.317025,-0.313984,-0.703716
2025-12-31T15:59:15.147073,7.824529,-1.832902,0.488135,-1.253495,-0.238237,-0.725707
2025-12-31T15:59:15.156073,7.188039,-1.483550,0.602991,-1.191186,-0.202807,-0.762359
2025-12-31T15:59:15.166073,6.618547,-1.019342,0.612562,-1.167974,-0.184481,-0.802676
2025-12-31T15:59:15.175073,6.111268,-0.579063,0.631705,-1.209512,-0.166155,-0.825889
2025-12-31T15:59:15.185073,5.656632,-0.311066,0.588634,-1.346346,-0.127059,-0.806341
2025-12-31T15:59:15.195073,5.077569,-0.287138,0.784845,-1.395215,-0.057421,-0.833220
2025-12-31T15:59:15.204073,4.972285,0.028713,1.832902,-1.527162,-0.037873,-0.847880
2025-12-31T15:59:15.214073,4.728217,-0.311066,2.177468,-1.769065,0.068416,-0.805120
2025-12-31T15:59:15.223073,4.206582,-2.167897,1.473978,-1.904677,0.065973,-0.779463
2025-12-31T15:59:15.233073,3.909872,-3.445664,2.263610,-1.747074,-0.087964,-0.779463
2025-12-31T15:59:15.243073,4.211367,-2.723032,3.043670,-1.200960,-0.168598,-0.897971
2025-12-31T15:59:15.252073,4.876572,-0.780060,2.206182,-0.873537,-0.265115,-0.989601
2025-12-31T15:59:15.262073,5.465206,0.200997,1.579262,-1.012814,-0.280997,-0.959058
2025-12-31T15:59:15.272073,5.776273,0.478564,1.641476,-1.291368,-0.189368,-0.879645
2025-12-31T15:59:15.281073,5.785845,0.378065,1.411765,-1.594357,-0.043982,-0.781907
2025-12-31T15:59:15.291073,5.637490,-0.741775,1.296909,-1.931555,0.072082,-0.663399
2025-12-31T15:59:15.300073,5.383850,-2.421536,1.067198,-2.019520,0.118507,-0.553443
2025-12-31T15:59:15.310073,5.326423,-3.474378,0.880558,-1.737300,0.096516,-0.498465
2025-12-31T15:59:15.320073,5.541777,-3.397808,0.698704,-1.290147,0.070860,-0.492357
2025-12-31T15:59:15.329073,5.862415,-2.383251,0.512064,-0.900415,0.113620,-0.481361
2025-12-31T15:59:15.339073,5.991627,-1.091127,0.296710,-0.678060,0.200363,-0.438601
2025-12-31T15:59:15.348073,5.967699,0.004785,0.244067,-0.708603,0.291993,-0.361632
2025-12-31T15:59:15.358073,5.819344,0.287138,-0.066999,-0.929736,0.366519,-0.254119
2025-12-31T15:59:15.368073,5.670989,-0.138783,-0.220139,-1.145982,0.403170,-0.150272
2025-12-31T15:59:15.377073,5.551348,-0.746560,-0.114855,-1.237612,0.393397,-0.062308
2025-12-31T15:59:15.387073,5.575276,-1.148554,-0.081355,-1.205847,0.326201,-0.007330
2025-12-31T15:59:15.397073,5.986842,-1.182054,0.014356,-1.127656,0.240680,0.037873
2025-12-31T15:59:15.406073,6.518048,-0.909272,0.129212,-1.067792,0.174707,0.081855
2025-12-31T15:59:15.416073,7.097111,-0.473778,0.043070,-1.062905,0.160046,0.120951
2025-12-31T15:59:15.425073,7.451249,-0.191425,-0.153140,-1.105665,0.189368,0.153938
2025-12-31T15:59:15.435073,7.858029,-0.105284,-0.311066,-1.176526,0.246789,0.191811
2025-12-31T15:59:15.445073,8.030312,-0.258424,-0.516849,-1.232725,0.290771,0.219911
2025-12-31T15:59:15.454073,8.236095,-0.334995,-0.598205,-1.242499,0.294436,0.234572
2025-12-31T15:59:15.464073,8.456235,-0.315852,-0.899701,-1.230282,0.233350,0.229685
2025-12-31T15:59:15.473073,9.001798,-0.210568,-1.095912,-1.215621,0.114842,0.206472
2025-12-31T15:59:15.483073,9.786644,-0.153140,-1.311266,-1.238834,-0.057421,0.190589
2025-12-31T15:59:15.493073,10.949556,-0.033499,-1.765903,-1.307251,-0.265115,0.175929
2025-12-31T15:59:15.502073,12.390035,-0.081355,-2.172682,-1.392772,-0.442266,0.158824
2025-12-31T15:59:15.512073,13.868799,-0.253639,-2.464607,-1.495397,-0.469144,0.174707
2025-12-31T15:59:15.522073,14.811571,-0.722632,-2.388036,-1.525941,-0.285884,0.219911
2025-12-31T15:59:15.531073,14.749358,-1.301695,-2.115255,-1.423315,0.097738,0.287106
2025-12-31T15:59:15.541073,13.395020,-1.588834,-1.689332,-1.183856,0.590095,0.335975
2025-12-31T15:59:15.550073,11.212766,-1.493121,-1.052841,-0.842993,0.998153,0.351858
2025-12-31T15:59:15.560073,8.834301,-1.057627,-0.315852,-0.552222,1.166752,0.320093
2025-12-31T15:59:15.570073,7.001398,-0.765703,0.296710,-0.393397,1.060461,0.266337
2025-12-31T15:59:15.579073,5.627918,-0.861416,0.713061,-0.255341,0.759916,0.195476
2025-12-31T15:59:15.589073,5.106283,-1.014556,0.780060,-0.074525,0.357966,0.111177
2025-12-31T15:59:15.598073,5.331208,-1.320838,0.842273,0.149051,-0.032986,0.048869
2025-12-31T15:59:15.608073,6.111268,-1.301695,0.861416,0.436157,-0.327423,-0.006108
2025-12-31T15:59:15.618073,7.192824,-0.842273,0.832702,0.733038,-0.478918,-0.056199
2025-12-31T15:59:15.627073,8.130811,0.071784,0.674775,0.938288,-0.496022,-0.094073
2025-12-31T15:59:15.637073,8.805587,0.875773,0.660419,1.005483,-0.411723,-0.108733
2025-12-31T15:59:15.647073,9.164510,1.497906,0.588634,0.923628,-0.270002,-0.092851
2025-12-31T15:59:15.656073,9.394221,1.799402,0.569491,0.723264,-0.144164,-0.043982
2025-12-31T15:59:15.666073,9.456434,1.909472,0.401994,0.470366,-0.101403,0.028099
2025-12-31T15:59:15.675073,9.853643,1.789831,0.086141,0.222354,-0.163711,0.091629
2025-12-31T15:59:15.685073,10.537990,1.622333,-0.258424,-0.007330,-0.263893,0.162490
2025-12-31T15:59:15.695073,11.308479,1.421336,-0.607776,-0.191811,-0.333532,0.227241
2025-12-31T15:59:15.704073,12.050254,1.320838,-0.736989,-0.316428,-0.311541,0.290771
2025-12-31T15:59:15.714073,12.437891,1.124626,-0.684347,-0.390953,-0.166155,0.351858
2025-12-31T15:59:15.723073,12.203395,0.799202,-0.588634,-0.430049,0.050090,0.412944
2025-12-31T15:59:15.733073,11.399406,0.468993,-0.363709,-0.411723,0.240680,0.448374
2025-12-31T15:59:15.743073,10.356136,0.248853,0.004785,-0.342084,0.332310,0.447153
2025-12-31T15:59:15.752073,9.375078,0.014356,0.440279,-0.268780,0.317649,0.417831
2025-12-31T15:59:15.762073,8.657232,-0.306281,0.765703,-0.215024,0.232128,0.366519
2025-12-31T15:59:15.772073,8.121239,-0.899701,0.928415,-0.151494,0.129503,0.302989
2025-12-31T15:59:15.781073,7.891528,-1.478764,0.981057,-0.058643,0.034208,0.241902
2025-12-31T15:59:15.791073,7.642675,-2.163111,0.880558,0.101403,-0.047647,0.175929
2025-12-31T15:59:15.800073,7.532605,-2.569891,0.918843,0.360410,-0.116064,0.091629
2025-12-31T15:59:15.810073,7.666603,-2.560320,0.847059,0.689055,-0.200363,-0.004886
2025-12-31T15:59:15.820073,8.111668,-1.966900,0.636490,1.010370,-0.327423,-0.086742
2025-12-31T15:59:15.829073,8.819944,-1.153340,0.593420,1.211956,-0.432492,-0.142942
2025-12-31T15:59:15.839073,9.561719,-0.449850,0.492921,1.231504,-0.434935,-0.152716
2025-12-31T15:59:15.848073,9.815358,-0.057427,0.425922,1.130100,-0.321315,-0.129503
2025-12-31T15:59:15.858073,9.724431,-0.138783,0.387637,0.966388,-0.138055,-0.075747
2025-12-31T15:59:15.868073,9.097511,-0.636490,0.301495,0.796568,0.018325,-0.015882
2025-12-31T15:59:15.877073,8.413164,-1.344766,0.200997,0.690277,0.061086,0.023212
2025-12-31T15:59:15.887073,7.920242,-2.000399,0.215354,0.680503,0.002443,0.040317
2025-12-31T15:59:15.897073,7.829315,-2.536391,0.229710,0.742811,-0.106290,0.045204
2025-12-31T15:59:15.906073,7.982456,-2.833101,0.100498,0.858876,-0.210137,0.041538
2025-12-31T15:59:15.916073,8.336593,-2.852244,0.057427,1.023809,-0.256563,0.034208
2025-12-31T15:59:15.925073,8.542376,-2.584248,0.028713,1.187521,-0.206472,0.040317
2025-12-31T15:59:15.935073,8.408378,-2.273181,0.014356,1.293812,-0.086742,0.068416
2025-12-31T15:59:15.945073,7.886743,-2.105683,0.086141,1.348790,0.052534,0.114842
2025-12-31T15:59:15.954073,7.164110,-1.871187,0.043070,1.413541,0.180816,0.171042
2025-12-31T15:59:15.964073,6.388836,-1.560120,0.062213,1.458745,0.283441,0.226020
2025-12-31T15:59:15.973073,5.575276,-1.411765,0.167497,1.439198,0.348193,0.283441
2025-12-31T15:59:15.983073,4.790430,-1.383051,0.267996,1.411098,0.355523,0.326201
2025-12-31T15:59:15.993073,4.120440,-1.464407,0.387637,1.391550,0.298102,0.362853
2025-12-31T15:59:16.002073,3.761517,-1.588834,0.526420,1.395215,0.221133,0.406836
2025-12-31T15:59:16.012073,3.565305,-1.746760,0.516849,1.445306,0.127059,0.436157
2025-12-31T15:59:16.022073,3.574876,-1.703689,0.602991,1.514945,0.037873,0.447153
2025-12-31T15:59:16.031073,3.680161,-1.636690,0.617348,1.573588,-0.025656,0.454483
2025-12-31T15:59:16.041073,4.000799,-1.598405,0.555134,1.631009,-0.046425,0.469144
2025-12-31T15:59:16.050073,4.187439,-1.402194,0.497707,1.681100,-0.029321,0.475253
2025-12-31T15:59:16.060073,4.345365,-1.129412,0.526420,1.677435,0.014660,0.480139
2025-12-31T15:59:16.070073,4.541577,-1.086341,0.468993,1.618792,0.052534,0.486248
2025-12-31T15:59:16.079073,4.814359,-1.201196,0.531206,1.547932,0.068416,0.505796
2025-12-31T15:59:16.089073,5.297709,-1.359123,0.540777,1.488067,0.054977,0.537561
2025-12-31T15:59:16.098073,5.900700,-1.316052,0.406779,1.445306,0.035430,0.570548
2025-12-31T15:59:16.108073,6.642475,-1.076770,0.224925,1.370781,0.040317,0.612086
2025-12-31T15:59:16.118073,7.312465,-0.885344,0.047856,1.218065,0.078190,0.669508
2025-12-31T15:59:16.127073,7.977670,-1.014556,-0.009571,1.009149,0.136833,0.746477
2025-12-31T15:59:16.137073,8.547162,-1.272981,-0.210568,0.813672,0.194255,0.822224
2025-12-31T15:59:16.147073,9.025726,-1.598405,-0.531206,0.696386,0.233350,0.878424
2025-12-31T15:59:16.156073,9.523433,-1.713260,-0.646062,0.653625,0.252898,0.908967
2025-12-31T15:59:16.166073,10.088140,-1.770688,-0.727418,0.637743,0.265115,0.939510
2025-12-31T15:59:16.175073,10.604989,-1.540977,-0.904486,0.612086,0.282219,0.992044
2025-12-31T15:59:16.185073,11.164910,-1.272981,-1.186840,0.548556,0.324980,1.066570
2025-12-31T15:59:16.195073,11.380264,-1.071984,-1.373480,0.456927,0.428827,1.155756
2025-12-31T15:59:16.204073,11.337193,-0.976271,-1.411765,0.364075,0.571769,1.248608
2025-12-31T15:59:16.214073,10.791629,-1.033699,-1.450050,0.311541,0.726929,1.347568
2025-12-31T15:59:16.223073,10.030712,-1.182054,-1.368694,0.279776,0.811228,1.412320
2025-12-31T15:59:16.233073,9.159724,-1.416550,-1.292124,0.255341,0.808785,1.469741
2025-12-31T15:59:16.243073,8.633303,-1.732403,-1.076770,0.277332,0.717155,1.516167
2025-12-31T15:59:16.252073,8.437092,-2.014756,-0.933200,0.360410,0.557108,1.532049
2025-12-31T15:59:16.262073,8.566304,-2.139183,-0.890130,0.505796,0.372627,1.523497
2025-12-31T15:59:16.272073,8.944370,-2.057827,-0.818345,0.680503,0.218689,1.511280
2025-12-31T15:59:16.281073,9.609575,-1.808973,-0.885344,0.813672,0.109955,1.500284
2025-12-31T15:59:16.291073,10.116853,-1.780260,-1.019342,0.883310,0.047647,1.473406
2025-12-31T15:59:16.300073,10.604989,-1.813759,-1.071984,0.948062,0.034208,1.445306
2025-12-31T15:59:16.310073,11.164910,-1.914258,-0.890130,0.994488,0.032986,1.420872
2025-12-31T15:59:16.320073,11.629117,-2.105683,-0.631705,0.982271,0.003665,1.402546
2025-12-31T15:59:16.329073,12.093325,-2.335394,-0.344566,0.960279,-0.013439,1.390328
2025-12-31T15:59:16.339073,12.495319,-2.440679,-0.162711,0.989601,0.009773,1.369559
2025-12-31T15:59:16.348073,12.619746,-1.981257,-0.220139,1.065348,0.120951,1.342681
2025-12-31T15:59:16.358073,12.576675,-1.330409,-0.339780,1.086118,0.295658,1.319468
2025-12-31T15:59:16.368073,12.342178,-0.703489,0.057427,0.977384,0.486248,1.304807
2025-12-31T15:59:16.377073,11.796615,-0.674775,0.689132,0.722042,0.599869,1.372003
2025-12-31T15:59:16.387073,11.322836,-1.153340,1.598405,0.388510,0.614530,1.470963
2025-12-31T15:59:16.397073,11.006983,-2.014756,2.196611,0.102625,0.554665,1.549153
2025-12-31T15:59:16.406073,10.916056,-2.689532,2.143969,-0.062308,0.454483,1.616349
2025-12-31T15:59:16.416073,10.949556,-3.048455,2.038684,-0.175929,0.359188,1.695761
2025-12-31T15:59:16.425073,11.140982,-3.225524,1.895115,-0.334754,0.260228,1.784947
2025-12-31T15:59:16.435073,11.605189,-3.407379,1.584048,-0.583987,0.147829,1.890016
2025-12-31T15:59:16.445073,12.050254,-3.933800,1.521835,-0.877202,0.062308,2.008524
2025-12-31T15:59:16.454073,12.466605,-4.651647,0.851844,-1.134987,0.047647,2.127032
2025-12-31T15:59:16.464073,12.734601,-5.570491,0.387637,-1.303586,0.092851,2.255313
2025-12-31T15:59:16.473073,12.729816,-6.747759,0.478564,-1.340238,0.179594,2.335948
2025-12-31T15:59:16.483073,12.614960,-7.570890,0.717846,-1.210734,0.304210,2.343278
2025-12-31T15:59:16.493073,12.342178,-8.030312,0.550349,-0.962723,0.421496,2.332282
2025-12-31T15:59:16.502073,11.834900,-8.169096,0.473778,-0.669508,0.493579,2.310291
2025-12-31T15:59:16.512073,11.471191,-8.039883,0.401994,-0.324980,0.498465,2.240653
2025-12-31T15:59:16.522073,11.222337,-7.412964,0.344566,0.019547,0.459370,2.136806
2025-12-31T15:59:16.531073,11.078768,-6.781259,0.435493,0.238237,0.392175,2.036624
2025-12-31T15:59:16.541073,11.198409,-6.455835,0.890130,0.342084,0.310319,1.958433
2025-12-31T15:59:16.550073,11.356336,-6.293123,1.225125,0.383623,0.229685,1.880242
2025-12-31T15:59:16.560073,11.576475,-6.240481,1.406979,0.387288,0.189368,1.821599
2025-12-31T15:59:16.570073,11.734402,-6.264409,1.584048,0.386066,0.210137,1.773952
2025-12-31T15:59:16.579073,11.863614,-6.317051,1.617548,0.384845,0.246789,1.706757
2025-12-31T15:59:16.589073,11.882757,-6.379265,1.359123,0.344527,0.232128,1.633453
2025-12-31T15:59:16.598073,12.107682,-6.503691,0.885344,0.287106,0.144164,1.551597
2025-12-31T15:59:16.608073,12.528819,-6.613761,0.406779,0.268780,0.026878,1.446528
2025-12-31T15:59:16.618073,13.155738,-6.704688,0.244067,0.285884,-0.073303,1.320690
2025-12-31T15:59:16.627073,13.806586,-6.900900,0.253639,0.289550,-0.086742,1.203404
2025-12-31T15:59:16.637073,14.203794,-7.235895,0.579063,0.301767,0.015882,1.092226
2025-12-31T15:59:16.647073,14.371292,-7.594818,1.009771,0.312762,0.156381,1.003040
2025-12-31T15:59:16.656073,14.256437,-7.867600,1.071984,0.316428,0.246789,0.926071
2025-12-31T15:59:16.666073,14.021940,-8.015955,1.110269,0.328645,0.252898,0.827111
2025-12-31T15:59:16.675073,13.859228,-7.982456,1.387837,0.355523,0.196698,0.712268
2025-12-31T15:59:16.685073,13.830514,-7.858029,1.545763,0.354301,0.125838,0.580321
2025-12-31T15:59:16.695073,13.758729,-7.570890,1.282552,0.310319,0.081855,0.452040
2025-12-31T15:59:16.704073,13.792229,-7.269395,1.000199,0.249232,0.048869,0.331088
2025-12-31T15:59:16.714073,13.931013,-6.709474,0.803988,0.156381,0.003665,0.190589
2025-12-31T15:59:16.723073,14.074582,-6.460621,0.325423,-0.001221,-0.040317,0.024434
2025-12-31T15:59:16.733073,14.347364,-6.226124,-0.157926,-0.167377,-0.064751,-0.133168
2025-12-31T15:59:16.743073,14.304293,-5.915057,-0.267996,-0.306654,-0.003665,-0.254119
2025-12-31T15:59:16.752073,13.849657,-5.761916,0.172283,-0.485026,0.133168,-0.375071
2025-12-31T15:59:16.762073,12.945170,-5.900700,0.617348,-0.741590,0.256563,-0.504574
2025-12-31T15:59:16.772073,12.007183,-6.264409,0.760917,-0.976162,0.285884,-0.634077
2025-12-31T15:59:16.781073,11.188838,-6.642475,1.048056,-1.089783,0.208915,-0.784350
2025-12-31T15:59:16.791073,10.700702,-7.063612,1.067198,-1.156978,0.032986,-0.932180
2025-12-31T15:59:16.800073,10.528419,-7.647461,0.923629,-1.160643,-0.189368,-1.081231
2025-12-31T15:59:16.810073,10.791629,-7.901100,0.478564,-0.999375,-0.392175,-1.249830
2025-12-31T15:59:16.820073,11.361121,-7.724031,0.090927,-0.755029,-0.542448,-1.425759
2025-12-31T15:59:16.829073,11.892328,-7.288537,-0.186640,-0.544891,-0.605978,-1.584584
2025-12-31T15:59:16.839073,12.346964,-6.728617,-0.430708,-0.403170,-0.576656,-1.737300
2025-12-31T15:59:16.848073,12.653245,-6.393621,-0.713061,-0.333532,-0.487470,-1.859473
2025-12-31T15:59:16.858073,12.720244,-6.139982,-0.966700,-0.270002,-0.373849,-1.949881
2025-12-31T15:59:16.868073,12.500105,-5.771488,-1.119840,-0.172263,-0.233350,-2.041511
2025-12-31T15:59:16.877073,12.136396,-5.379065,-1.110269,-0.081855,-0.089186,-2.140471
2025-12-31T15:59:16.887073,11.566904,-4.871786,-1.138983,-0.048869,0.015882,-2.218662
2025-12-31T15:59:16.897073,11.045269,-4.378865,-1.249053,-0.083077,0.026878,-2.269974
2025-12-31T15:59:16.906073,10.643274,-3.976871,-1.306481,-0.202807,-0.054977,-2.312735
2025-12-31T15:59:16.916073,10.571490,-3.852444,-1.220339,-0.390953,-0.201585,-2.342056
2025-12-31T15:59:16.925073,10.738987,-3.996013,-1.311266,-0.571769,-0.365297,-2.350608
2025-12-31T15:59:16.935073,11.011769,-4.287938,-1.517049,-0.679282,-0.499687,-2.349387
2025-12-31T15:59:16.945073,11.437692,-4.503292,-1.598405,-0.711046,-0.581543,-2.372600
2025-12-31T15:59:16.954073,11.753544,-4.713860,-1.708475,-0.680503,-0.603534,-2.400699
2025-12-31T15:59:16.964073,11.988041,-4.814359,-1.741974,-0.587652,-0.593760,-2.431243
2025-12-31T15:59:16.973073,12.165110,-4.790430,-1.631905,-0.455705,-0.569326,-2.463008
2025-12-31T15:59:16.983073,12.217752,-4.785645,-1.665404,-0.315206,-0.549778,-2.491107
2025-12-31T15:59:16.993073,12.203395,-4.924428,-1.670190,-0.142942,-0.535117,-2.524094
2025-12-31T15:59:17.002073,12.169895,-4.747360,-1.464407,0.064751,-0.548556,-2.552194
2025-12-31T15:59:17.012073,12.251251,-4.388436,-1.344766,0.263893,-0.580321,-2.546085
2025-12-31T15:59:17.022073,12.299108,-3.814159,-1.201196,0.382401,-0.627969,-2.509433
2025-12-31T15:59:17.031073,12.394821,-3.311666,-1.191625,0.392175,-0.664621,-2.456899
2025-12-31T15:59:17.041073,12.476177,-3.072384,-1.134197,0.337197,-0.715933,-2.360382
2025-12-31T15:59:17.050073,12.495319,-2.933600,-1.172483,0.246789,-0.767246,-2.235766
2025-12-31T15:59:17.060073,12.600603,-2.928814,-1.119840,0.153938,-0.816115,-2.083050
2025-12-31T15:59:17.070073,12.681959,-2.924029,-1.263410,0.081855,-0.839328,-1.943772
2025-12-31T15:59:17.079073,12.686745,-2.847458,-1.363908,0.045204,-0.844215,-1.815491
2025-12-31T15:59:17.089073,12.634103,-2.761317,-1.282552,0.019547,-0.808785,-1.684765
2025-12-31T15:59:17.098073,12.409178,-2.593819,-1.263410,-0.017104,-0.762359,-1.556484
2025-12-31T15:59:17.108073,12.141181,-2.464607,-1.172483,-0.069638,-0.733038,-1.437976
2025-12-31T15:59:17.118073,11.791829,-2.411965,-0.957129,-0.166155,-0.715933,-1.318246
2025-12-31T15:59:17.127073,11.437692,-2.565105,-0.827916,-0.293215,-0.724486,-1.197295
2025-12-31T15:59:17.137073,11.093125,-2.785245,-0.813559,-0.390953,-0.731816,-1.088561
2025-12-31T15:59:17.147073,10.724630,-2.986242,-0.679561,-0.464257,-0.712268,-0.992044
2025-12-31T15:59:17.156073,10.360921,-3.220739,-0.545563,-0.525343,-0.696386,-0.918741
2025-12-31T15:59:17.166073,10.116853,-3.426521,-0.507278,-0.557108,-0.707381,-0.858876
2025-12-31T15:59:17.175073,9.944570,-3.503092,-0.569491,-0.555887,-0.740368,-0.806341
2025-12-31T15:59:17.185073,9.767501,-3.555734,-0.669990,-0.515570,-0.747698,-0.768468
2025-12-31T15:59:17.195073,9.614361,-3.536591,-0.607776,-0.432492,-0.696386,-0.740368
2025-12-31T15:59:17.204073,9.265009,-3.349951,-0.488135,-0.332310,-0.601091,-0.713490
2025-12-31T15:59:17.214073,8.709874,-3.019742,-0.430708,-0.239459,-0.480139,-0.682947
2025-12-31T15:59:17.223073,8.068597,-2.589034,-0.325423,-0.166155,-0.351858,-0.653625
2025-12-31T15:59:17.233073,7.379464,-2.306680,-0.100498,-0.139277,-0.245567,-0.626747
2025-12-31T15:59:17.243073,6.675975,-1.938186,0.047856,-0.162490,-0.195476,-0.608421
2025-12-31T15:59:17.252073,6.058626,-1.871187,0.277567,-0.208915,-0.194255,-0.593760
2025-12-31T15:59:17.262073,5.618347,-1.875972,0.492921,-0.248011,-0.243124,-0.597426
2025-12-31T15:59:17.272073,5.584847,-1.842473,0.641276,-0.337197,-0.357966,-0.597426
2025-12-31T15:59:17.281073,5.307280,-1.756331,0.205782,-0.344527,-0.357966,-0.581543
2025-12-31T15:59:17.291073,5.163711,-1.177268,0.837487,-0.199142,-0.343306,-0.653625
2025-12-31T15:59:17.300073,5.465206,-1.464407,2.139183,-0.333532,-0.312762,-0.714712
2025-12-31T15:59:17.310073,5.398207,-2.120040,1.081555,-0.367740,-0.283441,-0.790459
2025-12-31T15:59:17.320073,5.297709,-1.507478,1.316052,0.009773,-0.113620,-0.827111
2025-12-31T15:59:17.329073,4.804787,-0.071784,2.258824,0.089186,0.101403,-0.846659
2025-12-31T15:59:17.339073,4.321437,1.028913,1.789831,-0.250454,0.229685,-0.790459
2025-12-31T15:59:17.348073,3.665804,1.512263,1.588834,-0.660956,0.290771,-0.684168
2025-12-31T15:59:17.358073,3.072384,1.426122,1.186840,-1.098335,0.273667,-0.610865
2025-12-31T15:59:17.368073,2.842673,0.732203,0.732203,-1.522275,0.193033,-0.548556
2025-12-31T15:59:17.377073,2.761317,-0.291924,0.727418,-1.777617,0.098960,-0.492357
2025-12-31T15:59:17.387073,2.790031,-1.359123,0.612562,-1.833817,0.019547,-0.450818
2025-12-31T15:59:17.397073,2.962314,-2.402393,0.512064,-1.714087,-0.058643,-0.443488
2025-12-31T15:59:17.406073,3.340380,-2.895315,0.631705,-1.462411,-0.131946,-0.450818
2025-12-31T15:59:17.416073,3.924229,-2.943171,0.631705,-1.147204,-0.216246,-0.454483
2025-12-31T15:59:17.425073,4.685146,-2.579462,0.502492,-0.838106,-0.291993,-0.444709
2025-12-31T15:59:17.435073,5.460421,-1.832902,0.349352,-0.627969,-0.324980,-0.425162
2025-12-31T15:59:17.445073,6.293123,-0.985842,-0.038285,-0.563217,-0.282219,-0.368962
2025-12-31T15:59:17.454073,6.685546,-0.277567,-0.311066,-0.594982,-0.157603,-0.279776
2025-12-31T15:59:17.464073,7.010970,0.124426,-0.411565,-0.729372,0.007330,-0.167377
2025-12-31T15:59:17.473073,7.087540,0.172283,-0.478564,-0.937067,0.141720,-0.042760
2025-12-31T15:59:17.483073,7.015755,-0.191425,-0.449850,-1.132543,0.217467,0.078190
2025-12-31T15:59:17.493073,7.006184,-0.516849,-0.516849,-1.238834,0.211359,0.166155
2025-12-31T15:59:17.502073,7.293323,-0.851844,-0.574277,-1.264490,0.149051,0.217467
2025-12-31T15:59:17.512073,7.618747,-0.837487,-0.617348,-1.265712,0.050090,0.251676
2025-12-31T15:59:17.522073,8.231309,-0.765703,-0.823130,-1.252273,-0.056199,0.277332
2025-12-31T15:59:17.531073,8.987441,-0.574277,-1.158126,-1.241277,-0.135612,0.307876
2025-12-31T15:59:17.541073,9.757930,-0.445065,-1.387837,-1.255938,-0.186924,0.332310
2025-12-31T15:59:17.550073,10.537990,-0.143569,-1.684547,-1.291368,-0.207694,0.343306
2025-12-31T15:59:17.560073,11.160124,-0.019142,-1.847259,-1.317025,-0.171042,0.356745
2025-12-31T15:59:17.570073,11.653046,-0.110069,-2.081755,-1.351233,-0.125838,0.381179
2025-12-31T15:59:17.579073,12.083754,-0.200997,-2.301895,-1.372003,-0.124616,0.368962
2025-12-31T15:59:17.589073,12.485748,-0.464207,-2.230110,-1.367116,-0.111177,0.350636
2025-12-31T15:59:17.598073,12.600603,-1.004985,-1.813759,-1.298699,-0.056199,0.342084
2025-12-31T15:59:17.608073,12.519247,-1.536192,-1.469193,-1.143539,0.037873,0.310319
2025-12-31T15:59:17.618073,11.959327,-1.856830,-1.100698,-0.899193,0.183259,0.270002
2025-12-31T15:59:17.627073,10.983055,-1.875972,-0.689132,-0.558330,0.355523,0.230907
2025-12-31T15:59:17.637073,9.777073,-1.411765,-0.186640,-0.226020,0.502131,0.195476
2025-12-31T15:59:17.647073,8.532805,-0.823130,0.014356,-0.009773,0.553443,0.167377
2025-12-31T15:59:17.656073,7.542176,-0.574277,0.220139,0.108733,0.505796,0.160046
2025-12-31T15:59:17.666073,6.781259,-0.387637,0.468993,0.196698,0.367740,0.168598
2025-12-31T15:59:17.675073,6.407978,-0.354137,0.555134,0.259006,0.173485,0.180816
2025-12-31T15:59:17.685073,6.556333,-0.421136,0.626919,0.313984,-0.042760,0.193033
2025-12-31T15:59:17.695073,7.125825,-0.306281,0.713061,0.393397,-0.250454,0.184481
2025-12-31T15:59:17.704073,7.977670,-0.095712,0.646062,0.461814,-0.393397,0.179594
2025-12-31T15:59:17.714073,9.001798,0.263210,0.555134,0.477696,-0.442266,0.195476
2025-12-31T15:59:17.723073,9.829715,0.669990,0.239282,0.405614,-0.415388,0.223576
2025-12-31T15:59:17.733073,10.590632,0.976271,-0.138783,0.251676,-0.329867,0.268780
2025-12-31T15:59:17.743073,10.978270,1.105484,-0.507278,0.048869,-0.200363,0.321315
2025-12-31T15:59:17.752073,11.193624,0.899701,-0.717846,-0.193033,-0.062308,0.376292
2025-12-31T15:59:17.762073,11.231909,0.598205,-1.062413,-0.416610,0.048869,0.430049
2025-12-31T15:59:17.772073,11.241480,0.143569,-1.402194,-0.579100,0.112399,0.475253
2025-12-31T15:59:17.781073,11.155338,-0.124426,-1.497906,-0.657290,0.155159,0.513126
2025-12-31T15:59:17.791073,10.930413,-0.354137,-1.607976,-0.680503,0.197920,0.540004
2025-12-31T15:59:17.800073,10.719845,-0.421136,-1.512263,-0.676838,0.235793,0.547335
2025-12-31T15:59:17.810073,10.298708,-0.430708,-1.359123,-0.613308,0.280997,0.531452
2025-12-31T15:59:17.820073,9.920642,-0.320638,-1.057627,-0.510683,0.329867,0.491135
2025-12-31T15:59:17.829073,9.317651,-0.263210,-0.856630,-0.449596,0.346971,0.444709
2025-12-31T15:59:17.839073,8.872586,-0.492921,-0.636490,-0.393397,0.315206,0.384845
2025-12-31T15:59:17.848073,8.575876,-0.870987,-0.392422,-0.311541,0.234572,0.320093
2025-12-31T15:59:17.858073,8.518448,-1.430907,-0.081355,-0.196698,0.112399,0.244346
2025-12-31T15:59:17.868073,8.729016,-1.746760,-0.004785,0.018325,-0.031764,0.150272
2025-12-31T15:59:17.877073,9.169296,-1.718046,-0.143569,0.290771,-0.131946,0.058643
2025-12-31T15:59:17.887073,9.360722,-1.445264,-0.057427,0.513126,-0.109955,-0.006108
2025-12-31T15:59:17.897073,9.178867,-1.191625,-0.086141,0.660956,0.004886,-0.046425
2025-12-31T15:59:17.906073,8.685946,-1.095912,-0.138783,0.758694,0.106290,-0.064751
2025-12-31T15:59:17.916073,8.145168,-1.287338,-0.172283,0.851545,0.130725,-0.070860
2025-12-31T15:59:17.925073,7.738388,-1.421336,-0.095712,0.990823,0.100181,-0.070860
2025-12-31T15:59:17.935073,7.542176,-1.339980,0.004785,1.161865,0.025656,-0.067195
2025-12-31T15:59:17.945073,7.791030,-0.928415,-0.248853,1.312138,-0.084299,-0.061086
2025-12-31T15:59:17.954073,8.116454,-0.263210,-0.579063,1.413541,-0.150272,-0.042760
2025-12-31T15:59:17.964073,8.580661,0.531206,-0.717846,1.428202,-0.118507,-0.002443
2025-12-31T15:59:17.973073,8.690731,1.220339,-0.947557,1.315803,-0.021991,0.068416
2025-12-31T15:59:17.983073,8.580661,1.598405,-1.095912,1.077566,0.095294,0.163711
2025-12-31T15:59:17.993073,8.212167,1.473978,-1.167697,0.774576,0.190589,0.255341
2025-12-31T15:59:18.002073,7.704888,1.086341,-1.215553,0.530230,0.265115,0.310319
2025-12-31T15:59:18.012073,7.216752,0.775274,-1.100698,0.384845,0.337197,0.322536
2025-12-31T15:59:18.022073,6.594619,0.306281,-0.909272,0.276111,0.390953,0.313984
2025-12-31T15:59:18.031073,6.077769,-0.334995,-0.660419,0.234572,0.357966,0.278554
2025-12-31T15:59:18.041073,5.824130,-0.736989,-0.497707,0.309097,0.227241,0.208915
2025-12-31T15:59:18.050073,5.819344,-0.914058,-0.215354,0.422718,0.058643,0.131946
2025-12-31T15:59:18.060073,6.173482,-0.827916,-0.076570,0.548556,-0.111177,0.061086
2025-12-31T15:59:18.070073,6.699903,-0.306281,-0.311066,0.686612,-0.235793,0.004886
2025-12-31T15:59:18.079073,7.082754,0.358923,-0.483350,0.733038,-0.200363,-0.024434
2025-12-31T15:59:18.089073,6.872186,0.583848,-0.397208,0.669508,0.006108,-0.024434
2025-12-31T15:59:18.098073,6.154339,0.382851,-0.291924,0.572991,0.254119,-0.025656
