Timestamp,Acceleration_X,Acceleration_Y,Acceleration_Z,Gyro_X,Gyro_Y,Gyro_Z
2025-12-31T16:07:47.300271,9.681360,-2.330609,2.502892,-0.151494,-0.150272,0.025656
2025-12-31T16:07:47.310271,9.753144,-2.603390,2.522035,-0.155159,-0.120951,0.025656
2025-12-31T16:07:47.319271,9.757930,-2.703889,2.455035,-0.091629,-0.074525,0.020769
2025-12-31T16:07:47.329271,9.609575,-2.727817,2.344966,0.006108,-0.028099,0.014660
2025-12-31T16:07:47.338271,9.504291,-2.608176,2.368894,0.061086,-0.004886,0.015882
2025-12-31T16:07:47.348271,9.322436,-2.593819,2.426322,0.087964,-0.003665,0.023212
2025-12-31T16:07:47.358271,9.298508,-2.641676,2.455035,0.140498,-0.014660,0.029321
2025-12-31T16:07:47.367271,9.231509,-2.483749,2.445464,0.224798,-0.028099,0.035430
2025-12-31T16:07:47.377271,9.260223,-2.311466,2.445464,0.293215,-0.036651,0.040317
2025-12-31T16:07:47.387271,9.245866,-2.105683,2.340180,0.310319,-0.045204,0.045204
2025-12-31T16:07:47.396271,9.245866,-1.976471,2.311466,0.291993,-0.054977,0.051312
2025-12-31T16:07:47.406271,9.284151,-1.885544,2.459821,0.249232,-0.075747,0.054977
2025-12-31T16:07:47.415271,9.284151,-1.938186,2.517249,0.199142,-0.100181,0.051312
2025-12-31T16:07:47.425271,9.370293,-1.957328,2.455035,0.166155,-0.116064,0.050090
2025-12-31T16:07:47.435271,9.379864,-1.957328,2.526820,0.146607,-0.122173,0.046425
2025-12-31T16:07:47.444271,9.427721,-2.043470,2.545963,0.124616,-0.120951,0.041538
2025-12-31T16:07:47.454271,9.451649,-2.048256,2.445464,0.118507,-0.113620,0.036651
2025-12-31T16:07:47.463271,9.418149,-2.000399,2.397608,0.119729,-0.105068,0.031764
2025-12-31T16:07:47.473271,9.422935,-1.938186,2.220539,0.102625,-0.102625,0.036651
2025-12-31T16:07:47.483271,9.332008,-1.990828,2.273181,0.069638,-0.112399,0.036651
2025-12-31T16:07:47.492271,9.346365,-2.076970,2.297109,0.046425,-0.127059,0.041538
2025-12-31T16:07:47.502271,9.384650,-2.172682,2.239681,0.036651,-0.141720,0.048869
2025-12-31T16:07:47.512271,9.461220,-2.191825,2.196611,0.042760,-0.145385,0.052534
2025-12-31T16:07:47.521271,9.422935,-2.244467,2.263610,0.059864,-0.149051,0.045204
2025-12-31T16:07:47.531271,9.494720,-2.254038,2.435893,0.092851,-0.157603,0.035430
2025-12-31T16:07:47.540271,9.595218,-2.139183,2.321037,0.120951,-0.147829,0.035430
2025-12-31T16:07:47.550271,9.566504,-2.067398,2.249253,0.114842,-0.118507,0.041538
2025-12-31T16:07:47.560271,9.494720,-2.029113,2.297109,0.086742,-0.096516,0.035430
2025-12-31T16:07:47.569271,9.427721,-2.177468,2.210968,0.078190,-0.081855,0.030543
2025-12-31T16:07:47.579271,9.332008,-2.134397,2.215753,0.095294,-0.074525,0.025656
2025-12-31T16:07:47.588271,9.269794,-2.062613,2.378465,0.134390,-0.095294,0.008552
2025-12-31T16:07:47.598271,9.360722,-1.914258,2.421536,0.166155,-0.128281,-0.001221
2025-12-31T16:07:47.608271,9.470791,-1.765903,2.397608,0.135612,-0.152716,0.013439
2025-12-31T16:07:47.617271,9.528219,-1.847259,2.397608,0.051312,-0.162490,0.029321
2025-12-31T16:07:47.627271,9.547362,-2.096112,2.287538,-0.007330,-0.160046,0.012217
2025-12-31T16:07:47.637271,9.614361,-2.292324,2.431107,0.043982,-0.146607,-0.018325
2025-12-31T16:07:47.646271,9.662217,-2.081755,2.469392,0.108733,-0.119729,-0.010995
2025-12-31T16:07:47.656271,9.657432,-2.110469,2.368894,0.087964,-0.091629,0.008552
2025-12-31T16:07:47.665271,9.623932,-2.210968,2.306680,0.039095,-0.081855,0.001221
2025-12-31T16:07:47.675271,9.533005,-2.292324,2.282752,0.048869,-0.085521,-0.006108
2025-12-31T16:07:47.685271,9.580861,-2.354537,2.383251,0.087964,-0.085521,0.001221
2025-12-31T16:07:47.694271,9.499505,-2.373680,2.215753,0.123394,-0.076969,0.013439
2025-12-31T16:07:47.704271,9.456434,-2.330609,2.210968,0.162490,-0.068416,0.013439
2025-12-31T16:07:47.713271,9.389435,-2.268395,2.249253,0.216246,-0.070860,0.012217
2025-12-31T16:07:47.723271,9.384650,-2.091326,2.230110,0.254119,-0.086742,0.012217
2025-12-31T16:07:47.733271,9.480363,-1.847259,2.158325,0.250454,-0.107512,0.017104
2025-12-31T16:07:47.742271,9.662217,-1.828116,2.297109,0.202807,-0.122173,0.017104
2025-12-31T16:07:47.752271,9.714859,-1.971685,2.378465,0.147829,-0.112399,0.017104
2025-12-31T16:07:47.762271,9.710074,-2.014756,2.411965,0.133168,-0.085521,0.015882
2025-12-31T16:07:47.771271,9.657432,-2.014756,2.445464,0.149051,-0.047647,0.017104
2025-12-31T16:07:47.781271,9.590432,-1.885544,2.397608,0.128281,-0.012217,0.031764
2025-12-31T16:07:47.790271,9.485148,-1.875972,2.254038,0.078190,0.006108,0.042760
2025-12-31T16:07:47.800271,9.389435,-1.909472,2.282752,0.031764,0.004886,0.053756
2025-12-31T16:07:47.810271,9.284151,-1.928615,2.139183,0.000000,-0.013439,0.058643
2025-12-31T16:07:47.819271,9.202795,-2.014756,2.086541,-0.007330,-0.041538,0.053756
2025-12-31T16:07:47.829271,9.269794,-2.062613,2.167897,0.017104,-0.068416,0.047647
2025-12-31T16:07:47.838271,9.403792,-2.019542,2.182254,0.040317,-0.076969,0.052534
2025-12-31T16:07:47.848271,9.528219,-2.096112,2.086541,0.043982,-0.075747,0.053756
2025-12-31T16:07:47.858271,9.576076,-2.081755,2.029113,0.047647,-0.064751,0.057421
2025-12-31T16:07:47.867271,9.638289,-2.105683,2.172682,0.054977,-0.046425,0.048869
2025-12-31T16:07:47.877271,9.647860,-1.976471,2.187039,0.064751,-0.024434,0.043982
2025-12-31T16:07:47.887271,9.595218,-1.895115,2.234896,0.045204,0.001221,0.050090
2025-12-31T16:07:47.896271,9.552147,-1.938186,2.153540,0.003665,0.013439,0.054977
2025-12-31T16:07:47.906271,9.485148,-2.033899,2.225325,-0.034208,0.030543,0.064751
2025-12-31T16:07:47.915271,9.513862,-2.072184,2.225325,-0.037873,0.034208,0.072082
2025-12-31T16:07:47.925271,9.446863,-2.115255,2.167897,-0.025656,0.031764,0.079412
2025-12-31T16:07:47.935271,9.485148,-2.105683,2.244467,-0.017104,0.024434,0.080634
2025-12-31T16:07:47.944271,9.437292,-2.105683,2.215753,-0.015882,0.012217,0.083077
2025-12-31T16:07:47.954271,9.466006,-2.191825,2.220539,-0.006108,0.001221,0.078190
2025-12-31T16:07:47.963271,9.485148,-2.215753,2.191825,0.025656,-0.008552,0.067195
2025-12-31T16:07:47.973271,9.480363,-2.220539,2.225325,0.078190,-0.004886,0.053756
2025-12-31T16:07:47.983271,9.446863,-2.024327,2.062613,0.140498,-0.004886,0.030543
2025-12-31T16:07:47.992271,9.408578,-1.765903,2.105683,0.166155,-0.008552,0.015882
2025-12-31T16:07:48.002271,9.370293,-1.598405,2.177468,0.122173,-0.014660,0.018325
2025-12-31T16:07:48.012271,9.422935,-1.584048,2.325823,0.046425,-0.023212,0.026878
2025-12-31T16:07:48.021271,9.375078,-1.607976,2.297109,-0.020769,-0.035430,0.034208
2025-12-31T16:07:48.031271,9.408578,-1.631905,2.163111,-0.076969,-0.047647,0.036651
2025-12-31T16:07:48.040271,9.489934,-1.737189,2.225325,-0.135612,-0.061086,0.039095
2025-12-31T16:07:48.050271,9.513862,-1.866401,2.225325,-0.182037,-0.068416,0.037873
2025-12-31T16:07:48.060271,9.580861,-2.019542,2.201396,-0.202807,-0.068416,0.029321
2025-12-31T16:07:48.069271,9.652646,-2.124826,2.167897,-0.200363,-0.054977,0.026878
2025-12-31T16:07:48.079271,9.580861,-2.148754,2.148754,-0.195476,-0.025656,0.021991
2025-12-31T16:07:48.088271,9.422935,-2.167897,2.254038,-0.191811,-0.003665,0.019547
2025-12-31T16:07:48.098271,9.384650,-2.100898,2.239681,-0.185702,0.007330,0.024434
2025-12-31T16:07:48.108271,9.341579,-2.091326,2.263610,-0.190589,-0.003665,0.026878
2025-12-31T16:07:48.117271,9.327222,-2.115255,2.277967,-0.219911,-0.035430,0.026878
2025-12-31T16:07:48.127271,9.403792,-2.230110,2.263610,-0.243124,-0.086742,0.015882
2025-12-31T16:07:48.137271,9.523433,-2.254038,2.378465,-0.229685,-0.130725,0.004886
2025-12-31T16:07:48.146271,9.657432,-2.215753,2.368894,-0.223576,-0.129503,0.007330
2025-12-31T16:07:48.156271,9.863214,-2.402393,2.321037,-0.234572,-0.085521,0.018325
2025-12-31T16:07:48.165271,9.734002,-2.584248,2.316252,-0.219911,-0.024434,0.024434
2025-12-31T16:07:48.175271,9.619146,-2.593819,2.220539,-0.171042,0.025656,0.030543
2025-12-31T16:07:48.185271,9.485148,-2.646461,2.139183,-0.112399,0.042760,0.032986
2025-12-31T16:07:48.194271,9.327222,-2.660818,2.129612,-0.052534,0.031764,0.035430
2025-12-31T16:07:48.204271,9.298508,-2.555534,2.292324,0.004886,0.007330,0.036651
2025-12-31T16:07:48.213271,9.327222,-2.522035,2.287538,0.056199,-0.012217,0.035430
2025-12-31T16:07:48.223271,9.322436,-2.392822,2.234896,0.097738,-0.023212,0.034208
2025-12-31T16:07:48.233271,9.375078,-2.301895,2.172682,0.109955,-0.028099,0.037873
2025-12-31T16:07:48.242271,9.418149,-2.287538,2.297109,0.102625,-0.036651,0.035430
2025-12-31T16:07:48.252271,9.509077,-2.325823,2.182254,0.107512,-0.047647,0.032986
2025-12-31T16:07:48.262271,9.518648,-2.258824,2.167897,0.129503,-0.050090,0.036651
2025-12-31T16:07:48.271271,9.466006,-2.206182,2.225325,0.142942,-0.047647,0.035430
2025-12-31T16:07:48.281271,9.470791,-2.153540,2.177468,0.140498,-0.042760,0.037873
2025-12-31T16:07:48.290271,9.518648,-2.139183,2.124826,0.129503,-0.030543,0.039095
2025-12-31T16:07:48.300271,9.537790,-2.230110,2.172682,0.138055,-0.017104,0.042760
2025-12-31T16:07:48.310271,9.556933,-2.091326,2.258824,0.153938,-0.002443,0.040317
2025-12-31T16:07:48.319271,9.470791,-2.057827,2.201396,0.161268,0.008552,0.037873
2025-12-31T16:07:48.329271,9.413364,-2.009970,2.167897,0.151494,0.009773,0.037873
2025-12-31T16:07:48.338271,9.360722,-1.938186,2.210968,0.127059,0.008552,0.039095
2025-12-31T16:07:48.348271,9.351150,-1.880758,2.191825,0.094073,0.000000,0.040317
2025-12-31T16:07:48.358271,9.355936,-1.904686,2.249253,0.064751,-0.014660,0.042760
2025-12-31T16:07:48.367271,9.470791,-1.942971,2.287538,0.036651,-0.035430,0.040317
2025-12-31T16:07:48.377271,9.437292,-1.976471,2.244467,-0.004886,-0.058643,0.039095
2025-12-31T16:07:48.387271,9.547362,-2.110469,2.187039,-0.028099,-0.078190,0.025656
2025-12-31T16:07:48.396271,9.619146,-2.177468,2.143969,-0.013439,-0.079412,0.020769
2025-12-31T16:07:48.406271,9.604789,-2.096112,2.163111,0.000000,-0.058643,0.017104
2025-12-31T16:07:48.415271,9.600004,-2.067398,2.134397,-0.003665,-0.031764,0.018325
2025-12-31T16:07:48.425271,9.537790,-2.096112,2.153540,-0.012217,-0.006108,0.020769
2025-12-31T16:07:48.435271,9.470791,-2.115255,2.163111,-0.021991,0.010995,0.026878
2025-12-31T16:07:48.444271,9.422935,-2.139183,2.167897,-0.034208,0.014660,0.030543
2025-12-31T16:07:48.454271,9.375078,-2.196611,2.210968,-0.039095,0.004886,0.031764
2025-12-31T16:07:48.463271,9.332008,-2.210968,2.139183,-0.039095,-0.010995,0.035430
2025-12-31T16:07:48.473271,9.355936,-2.172682,2.120040,-0.034208,-0.028099,0.036651
2025-12-31T16:07:48.483271,9.394221,-2.148754,2.225325,-0.030543,-0.037873,0.034208
2025-12-31T16:07:48.492271,9.456434,-2.239681,2.201396,-0.021991,-0.041538,0.030543
2025-12-31T16:07:48.502271,9.470791,-2.143969,2.196611,-0.017104,-0.037873,0.031764
2025-12-31T16:07:48.512271,9.442077,-2.100898,2.153540,-0.018325,-0.037873,0.024434
2025-12-31T16:07:48.521271,9.513862,-2.182254,2.177468,-0.018325,-0.034208,0.018325
2025-12-31T16:07:48.531271,9.442077,-2.139183,2.321037,-0.015882,-0.036651,0.020769
2025-12-31T16:07:48.540271,9.399007,-2.187039,2.335394,-0.018325,-0.039095,0.021991
2025-12-31T16:07:48.550271,9.427721,-2.110469,2.292324,-0.029321,-0.047647,0.026878
2025-12-31T16:07:48.560271,9.461220,-2.081755,2.206182,-0.052534,-0.061086,0.025656
2025-12-31T16:07:48.569271,9.518648,-2.148754,2.215753,-0.076969,-0.069638,0.023212
2025-12-31T16:07:48.579271,9.571290,-2.182254,2.215753,-0.095294,-0.075747,0.015882
2025-12-31T16:07:48.588271,9.643075,-2.206182,2.330609,-0.108733,-0.074525,0.014660
2025-12-31T16:07:48.598271,9.647860,-2.321037,2.297109,-0.113620,-0.051312,0.015882
2025-12-31T16:07:48.608271,9.638289,-2.364108,2.220539,-0.105068,-0.012217,0.015882
2025-12-31T16:07:48.617271,9.489934,-2.435893,2.134397,-0.075747,0.026878,0.021991
2025-12-31T16:07:48.627271,9.317651,-2.421536,2.143969,-0.035430,0.043982,0.026878
2025-12-31T16:07:48.637271,9.202795,-2.335394,2.120040,-0.002443,0.030543,0.026878
2025-12-31T16:07:48.646271,9.150153,-2.268395,2.129612,0.015882,-0.010995,0.021991
2025-12-31T16:07:48.656271,9.274580,-2.210968,2.191825,0.025656,-0.058643,0.014660
2025-12-31T16:07:48.665271,9.389435,-2.143969,2.282752,0.020769,-0.090408,0.015882
2025-12-31T16:07:48.675271,9.504291,-2.076970,2.282752,0.001221,-0.101403,0.017104
2025-12-31T16:07:48.685271,9.566504,-2.081755,2.225325,-0.031764,-0.090408,0.015882
2025-12-31T16:07:48.694271,9.561719,-2.110469,2.239681,-0.074525,-0.075747,0.013439
2025-12-31T16:07:48.704271,9.509077,-2.206182,2.254038,-0.106290,-0.064751,0.013439
2025-12-31T16:07:48.713271,9.537790,-2.297109,2.158325,-0.124616,-0.057421,0.012217
2025-12-31T16:07:48.723271,9.480363,-2.373680,2.234896,-0.111177,-0.056199,0.003665
2025-12-31T16:07:48.733271,9.494720,-2.359323,2.196611,-0.074525,-0.051312,0.006108
2025-12-31T16:07:48.742271,9.480363,-2.325823,2.254038,-0.047647,-0.040317,0.012217
2025-12-31T16:07:48.752271,9.384650,-2.306680,2.153540,-0.041538,-0.025656,0.008552
2025-12-31T16:07:48.762271,9.442077,-2.392822,2.210968,0.004886,-0.023212,-0.009773
2025-12-31T16:07:48.771271,9.379864,-2.230110,2.120040,0.034208,-0.023212,-0.001221
2025-12-31T16:07:48.781271,9.370293,-2.148754,2.254038,0.026878,-0.030543,0.015882
2025-12-31T16:07:48.790271,9.413364,-2.086541,2.354537,-0.012217,-0.043982,0.021991
2025-12-31T16:07:48.800271,9.384650,-2.091326,2.354537,-0.072082,-0.046425,0.034208
2025-12-31T16:07:48.810271,9.446863,-2.225325,2.349751,-0.113620,-0.050090,0.036651
2025-12-31T16:07:48.819271,9.413364,-2.426322,2.230110,-0.118507,-0.048869,0.031764
2025-12-31T16:07:48.829271,9.418149,-2.512463,2.244467,-0.079412,-0.045204,0.023212
2025-12-31T16:07:48.838271,9.489934,-2.378465,2.225325,-0.026878,-0.035430,0.014660
2025-12-31T16:07:48.848271,9.394221,-2.311466,2.258824,0.002443,-0.029321,0.010995
2025-12-31T16:07:48.858271,9.403792,-2.273181,2.254038,0.004886,-0.035430,0.012217
2025-12-31T16:07:48.867271,9.442077,-2.239681,2.335394,-0.001221,-0.042760,0.014660
2025-12-31T16:07:48.877271,9.504291,-2.225325,2.301895,-0.013439,-0.042760,0.024434
2025-12-31T16:07:48.887271,9.451649,-2.268395,2.301895,-0.028099,-0.040317,0.026878
2025-12-31T16:07:48.896271,9.533005,-2.292324,2.340180,-0.039095,-0.040317,0.028099
2025-12-31T16:07:48.906271,9.437292,-2.330609,2.220539,-0.046425,-0.031764,0.026878
2025-12-31T16:07:48.915271,9.442077,-2.364108,2.177468,-0.047647,-0.018325,0.029321
2025-12-31T16:07:48.925271,9.470791,-2.407179,2.254038,-0.031764,-0.001221,0.034208
2025-12-31T16:07:48.935271,9.365507,-2.426322,2.273181,-0.006108,0.009773,0.031764
2025-12-31T16:07:48.944271,9.341579,-2.402393,2.268395,0.026878,0.007330,0.028099
2025-12-31T16:07:48.954271,9.346365,-2.330609,2.249253,0.051312,-0.008552,0.029321
2025-12-31T16:07:48.963271,9.384650,-2.340180,2.301895,0.045204,-0.028099,0.028099
2025-12-31T16:07:48.973271,9.442077,-2.311466,2.282752,0.035430,-0.042760,0.028099
2025-12-31T16:07:48.983271,9.513862,-2.392822,2.277967,0.036651,-0.048869,0.030543
2025-12-31T16:07:48.992271,9.542576,-2.388036,2.234896,0.048869,-0.040317,0.031764
2025-12-31T16:07:49.002271,9.509077,-2.359323,2.263610,0.072082,-0.023212,0.028099
2025-12-31T16:07:49.012271,9.504291,-2.349751,2.268395,0.089186,-0.002443,0.026878
2025-12-31T16:07:49.021271,9.461220,-2.220539,2.273181,0.084299,0.015882,0.032986
2025-12-31T16:07:49.031271,9.408578,-2.210968,2.187039,0.085521,0.019547,0.034208
2025-12-31T16:07:49.040271,9.260223,-2.129612,2.187039,0.084299,0.000000,0.031764
2025-12-31T16:07:49.050271,9.355936,-2.053041,2.263610,0.065973,-0.025656,0.029321
2025-12-31T16:07:49.060271,9.389435,-2.115255,2.282752,0.035430,-0.037873,0.026878
2025-12-31T16:07:49.069271,9.466006,-2.196611,2.187039,0.019547,-0.036651,0.030543
2025-12-31T16:07:49.079271,9.442077,-2.244467,2.143969,0.019547,-0.025656,0.037873
2025-12-31T16:07:49.088271,9.437292,-2.239681,2.081755,0.019547,-0.019547,0.041538
2025-12-31T16:07:49.098271,9.394221,-2.230110,2.124826,0.014660,-0.029321,0.037873
2025-12-31T16:07:49.108271,9.533005,-2.268395,2.120040,0.012217,-0.045204,0.029321
2025-12-31T16:07:49.117271,9.556933,-2.306680,2.230110,0.013439,-0.053756,0.026878
2025-12-31T16:07:49.127271,9.547362,-2.416750,2.210968,0.025656,-0.043982,0.028099
2025-12-31T16:07:49.137271,9.604789,-2.340180,2.167897,0.048869,-0.025656,0.025656
2025-12-31T16:07:49.146271,9.542576,-2.344966,2.306680,0.064751,-0.003665,0.023212
2025-12-31T16:07:49.156271,9.461220,-2.306680,2.139183,0.070860,0.007330,0.026878
2025-12-31T16:07:49.165271,9.379864,-2.349751,2.206182,0.075747,0.001221,0.023212
2025-12-31T16:07:49.175271,9.346365,-2.311466,2.100898,0.085521,-0.019547,0.025656
2025-12-31T16:07:49.185271,9.355936,-2.287538,2.187039,0.101403,-0.041538,0.025656
2025-12-31T16:07:49.194271,9.427721,-2.268395,2.196611,0.112399,-0.052534,0.024434
2025-12-31T16:07:49.204271,9.552147,-2.182254,2.201396,0.113620,-0.053756,0.023212
2025-12-31T16:07:49.213271,9.619146,-2.177468,2.225325,0.109955,-0.037873,0.020769
2025-12-31T16:07:49.223271,9.628718,-2.158325,2.187039,0.097738,-0.010995,0.030543
2025-12-31T16:07:49.233271,9.537790,-2.139183,2.177468,0.079412,0.009773,0.036651
2025-12-31T16:07:49.242271,9.432506,-2.172682,2.254038,0.067195,0.024434,0.041538
2025-12-31T16:07:49.252271,9.375078,-2.172682,2.201396,0.068416,0.030543,0.045204
2025-12-31T16:07:49.262271,9.308079,-2.187039,2.115255,0.073303,0.020769,0.046425
2025-12-31T16:07:49.271271,9.221938,-2.158325,2.172682,0.070860,-0.001221,0.045204
2025-12-31T16:07:49.281271,9.241080,-2.196611,2.096112,0.051312,-0.031764,0.047647
2025-12-31T16:07:49.290271,9.346365,-2.273181,2.038684,0.035430,-0.062308,0.042760
2025-12-31T16:07:49.300271,9.470791,-2.316252,2.124826,0.039095,-0.081855,0.037873
2025-12-31T16:07:49.310271,9.590432,-2.388036,2.100898,0.053756,-0.081855,0.031764
2025-12-31T16:07:49.319271,9.643075,-2.378465,2.048256,0.090408,-0.059864,0.028099
2025-12-31T16:07:49.329271,9.518648,-2.301895,2.124826,0.128281,-0.034208,0.024434
2025-12-31T16:07:49.338271,9.537790,-2.129612,2.139183,0.131946,-0.020769,0.023212
2025-12-31T16:07:49.348271,9.408578,-2.081755,2.129612,0.116064,-0.018325,0.023212
2025-12-31T16:07:49.358271,9.360722,-2.048256,2.139183,0.094073,-0.025656,0.028099
2025-12-31T16:07:49.367271,9.346365,-2.067398,2.086541,0.065973,-0.041538,0.030543
2025-12-31T16:07:49.377271,9.384650,-2.124826,2.072184,0.047647,-0.054977,0.028099
2025-12-31T16:07:49.387271,9.389435,-2.153540,2.076970,0.039095,-0.063529,0.026878
2025-12-31T16:07:49.396271,9.413364,-2.134397,2.158325,0.037873,-0.064751,0.025656
2025-12-31T16:07:49.406271,9.466006,-2.201396,2.177468,0.032986,-0.061086,0.021991
2025-12-31T16:07:49.415271,9.489934,-2.215753,2.196611,0.031764,-0.054977,0.024434
2025-12-31T16:07:49.425271,9.432506,-2.182254,2.201396,0.034208,-0.054977,0.021991
2025-12-31T16:07:49.435271,9.399007,-2.153540,2.148754,0.030543,-0.058643,0.019547
2025-12-31T16:07:49.444271,9.446863,-2.182254,2.163111,0.024434,-0.065973,0.017104
2025-12-31T16:07:49.454271,9.365507,-2.096112,2.268395,0.024434,-0.075747,0.014660
2025-12-31T16:07:49.463271,9.480363,-2.081755,2.292324,0.009773,-0.081855,0.014660
2025-12-31T16:07:49.473271,9.504291,-2.167897,2.206182,-0.012217,-0.080634,0.021991
2025-12-31T16:07:49.483271,9.480363,-2.187039,2.158325,-0.039095,-0.076969,0.021991
2025-12-31T16:07:49.492271,9.547362,-2.340180,2.187039,-0.042760,-0.079412,0.019547
2025-12-31T16:07:49.502271,9.571290,-2.368894,2.249253,-0.023212,-0.075747,0.021991
2025-12-31T16:07:49.512271,9.600004,-2.316252,2.210968,-0.002443,-0.067195,0.017104
2025-12-31T16:07:49.521271,9.604789,-2.311466,2.268395,0.013439,-0.051312,0.015882
2025-12-31T16:07:49.531271,9.461220,-2.421536,2.091326,0.029321,-0.024434,0.019547
2025-12-31T16:07:49.540271,9.432506,-2.407179,2.129612,0.048869,-0.002443,0.024434
2025-12-31T16:07:49.550271,9.332008,-2.163111,2.143969,0.074525,-0.004886,0.025656
2025-12-31T16:07:49.560271,9.279366,-2.076970,2.086541,0.073303,-0.031764,0.024434
2025-12-31T16:07:49.569271,9.379864,-2.067398,2.172682,0.034208,-0.067195,0.023212
2025-12-31T16:07:49.579271,9.499505,-2.172682,2.187039,-0.015882,-0.091629,0.028099
2025-12-31T16:07:49.588271,9.561719,-2.297109,2.225325,-0.029321,-0.094073,0.028099
2025-12-31T16:07:49.598271,9.652646,-2.340180,2.187039,0.002443,-0.067195,0.025656
2025-12-31T16:07:49.608271,9.542576,-2.277967,2.239681,0.030543,-0.040317,0.020769
2025-12-31T16:07:49.617271,9.389435,-2.196611,2.129612,0.030543,-0.021991,0.018325
2025-12-31T16:07:49.627271,9.322436,-2.187039,2.100898,0.017104,-0.028099,0.017104
2025-12-31T16:07:49.637271,9.265009,-2.230110,2.153540,0.006108,-0.051312,0.019547
2025-12-31T16:07:49.646271,9.365507,-2.258824,2.129612,0.006108,-0.075747,0.025656
2025-12-31T16:07:49.656271,9.418149,-2.273181,2.153540,0.006108,-0.094073,0.028099
2025-12-31T16:07:49.665271,9.571290,-2.249253,2.167897,0.021991,-0.094073,0.026878
2025-12-31T16:07:49.675271,9.633503,-2.244467,2.163111,0.047647,-0.073303,0.028099
2025-12-31T16:07:49.685271,9.619146,-2.196611,2.163111,0.061086,-0.045204,0.029321
2025-12-31T16:07:49.694271,9.580861,-2.182254,2.148754,0.045204,-0.019547,0.028099
2025-12-31T16:07:49.704271,9.595218,-2.182254,2.191825,0.029321,-0.002443,0.028099
2025-12-31T16:07:49.713271,9.360722,-2.177468,2.120040,0.024434,0.000000,0.028099
2025-12-31T16:07:49.723271,9.303294,-2.048256,2.081755,0.019547,-0.013439,0.023212
2025-12-31T16:07:49.733271,9.288937,-2.105683,2.120040,0.000000,-0.037873,0.020769
2025-12-31T16:07:49.742271,9.312865,-2.158325,2.196611,-0.026878,-0.069638,0.019547
2025-12-31T16:07:49.752271,9.470791,-2.225325,2.158325,-0.035430,-0.094073,0.020769
2025-12-31T16:07:49.762271,9.571290,-2.297109,2.067398,-0.026878,-0.097738,0.015882
2025-12-31T16:07:49.771271,9.667003,-2.282752,2.062613,-0.015882,-0.079412,0.014660
2025-12-31T16:07:49.781271,9.671788,-2.287538,2.096112,-0.017104,-0.050090,0.010995
2025-12-31T16:07:49.790271,9.600004,-2.263610,2.105683,-0.015882,-0.017104,0.015882
2025-12-31T16:07:49.800271,9.432506,-2.297109,2.115255,-0.012217,0.000000,0.019547
2025-12-31T16:07:49.810271,9.322436,-2.234896,2.139183,-0.007330,-0.004886,0.021991
2025-12-31T16:07:49.819271,9.341579,-2.210968,2.124826,-0.008552,-0.030543,0.018325
2025-12-31T16:07:49.829271,9.403792,-2.177468,2.043470,-0.024434,-0.053756,0.020769
2025-12-31T16:07:49.838271,9.418149,-2.254038,2.163111,-0.039095,-0.075747,0.018325
2025-12-31T16:07:49.848271,9.475577,-2.445464,2.153540,-0.030543,-0.078190,0.017104
2025-12-31T16:07:49.858271,9.609575,-2.359323,2.139183,-0.001221,-0.059864,0.014660
2025-12-31T16:07:49.867271,9.552147,-2.287538,2.053041,0.025656,-0.031764,0.010995
2025-12-31T16:07:49.877271,9.494720,-2.292324,2.134397,0.034208,-0.014660,0.014660
2025-12-31T16:07:49.887271,9.394221,-2.210968,2.134397,0.035430,-0.014660,0.015882
2025-12-31T16:07:49.896271,9.341579,-2.210968,2.143969,0.024434,-0.026878,0.019547
2025-12-31T16:07:49.906271,9.351150,-2.244467,2.134397,0.018325,-0.050090,0.019547
2025-12-31T16:07:49.915271,9.446863,-2.263610,2.105683,0.029321,-0.065973,0.020769
2025-12-31T16:07:49.925271,9.494720,-2.153540,2.086541,0.026878,-0.070860,0.017104
2025-12-31T16:07:49.935271,9.523433,-2.100898,2.187039,0.008552,-0.068416,0.019547
2025-12-31T16:07:49.944271,9.628718,-2.177468,2.163111,-0.003665,-0.052534,0.017104
2025-12-31T16:07:49.954271,9.542576,-2.254038,2.105683,-0.009773,-0.032986,0.020769
2025-12-31T16:07:49.963271,9.547362,-2.234896,2.115255,-0.014660,-0.024434,0.023212
2025-12-31T16:07:49.973271,9.489934,-2.268395,2.158325,-0.021991,-0.026878,0.018325
2025-12-31T16:07:49.983271,9.542576,-2.282752,2.143969,-0.021991,-0.021991,0.013439
2025-12-31T16:07:49.992271,9.509077,-2.445464,2.057827,-0.012217,-0.003665,0.013439
2025-12-31T16:07:50.002271,9.408578,-2.407179,2.057827,0.012217,0.014660,0.014660
2025-12-31T16:07:50.012271,9.351150,-2.373680,1.995614,0.042760,0.014660,0.015882
2025-12-31T16:07:50.021271,9.365507,-2.311466,2.067398,0.067195,-0.004886,0.017104
2025-12-31T16:07:50.031271,9.336793,-2.230110,2.091326,0.069638,-0.041538,0.015882
2025-12-31T16:07:50.040271,9.432506,-2.182254,2.057827,0.056199,-0.078190,0.018325
2025-12-31T16:07:50.050271,9.576076,-2.134397,2.057827,0.035430,-0.096516,0.019547
2025-12-31T16:07:50.060271,9.590432,-2.158325,2.110469,0.023212,-0.086742,0.014660
2025-12-31T16:07:50.069271,9.571290,-2.182254,2.072184,0.021991,-0.054977,0.008552
2025-12-31T16:07:50.079271,9.576076,-2.225325,2.076970,0.015882,-0.026878,0.006108
2025-12-31T16:07:50.088271,9.485148,-2.210968,2.053041,0.004886,-0.017104,0.001221
2025-12-31T16:07:50.098271,9.413364,-2.220539,2.110469,-0.003665,-0.018325,0.004886
2025-12-31T16:07:50.108271,9.346365,-2.210968,2.057827,-0.007330,-0.023212,0.012217
2025-12-31T16:07:50.117271,9.422935,-2.321037,2.076970,-0.001221,-0.029321,0.015882
2025-12-31T16:07:50.127271,9.504291,-2.349751,2.134397,0.019547,-0.031764,0.019547
2025-12-31T16:07:50.137271,9.485148,-2.210968,2.115255,0.043982,-0.024434,0.023212
2025-12-31T16:07:50.146271,9.451649,-2.225325,2.143969,0.061086,-0.012217,0.028099
2025-12-31T16:07:50.156271,9.499505,-2.187039,2.172682,0.054977,-0.008552,0.028099
2025-12-31T16:07:50.165271,9.413364,-2.091326,2.163111,0.041538,-0.003665,0.026878
2025-12-31T16:07:50.175271,9.384650,-2.143969,2.134397,0.025656,-0.008552,0.031764
2025-12-31T16:07:50.185271,9.336793,-2.081755,2.134397,-0.002443,-0.028099,0.029321
2025-12-31T16:07:50.194271,9.355936,-2.172682,2.086541,-0.034208,-0.050090,0.025656
2025-12-31T16:07:50.204271,9.394221,-2.201396,2.158325,-0.063529,-0.064751,0.029321
2025-12-31T16:07:50.213271,9.523433,-2.349751,2.053041,-0.068416,-0.081855,0.023212
2025-12-31T16:07:50.223271,9.614361,-2.383251,1.986042,-0.041538,-0.083077,0.020769
2025-12-31T16:07:50.233271,9.681360,-2.397608,2.019542,-0.004886,-0.072082,0.015882
2025-12-31T16:07:50.242271,9.671788,-2.359323,2.062613,0.018325,-0.047647,0.015882
2025-12-31T16:07:50.252271,9.667003,-2.344966,2.100898,0.034208,-0.017104,0.019547
2025-12-31T16:07:50.262271,9.628718,-2.268395,2.120040,0.054977,0.000000,0.024434
2025-12-31T16:07:50.271271,9.494720,-2.210968,2.067398,0.058643,0.003665,0.028099
2025-12-31T16:07:50.281271,9.451649,-2.182254,2.096112,0.046425,-0.006108,0.031764
2025-12-31T16:07:50.290271,9.327222,-2.201396,2.124826,0.040317,-0.018325,0.029321
2025-12-31T16:07:50.300271,9.399007,-2.225325,2.134397,0.040317,-0.031764,0.024434
2025-12-31T16:07:50.310271,9.403792,-2.210968,2.081755,0.037873,-0.036651,0.024434
2025-12-31T16:07:50.319271,9.523433,-2.120040,2.081755,0.039095,-0.034208,0.021991
2025-12-31T16:07:50.329271,9.494720,-2.081755,2.081755,0.036651,-0.031764,0.018325
2025-12-31T16:07:50.338271,9.513862,-2.048256,2.105683,0.025656,-0.026878,0.019547
2025-12-31T16:07:50.348271,9.442077,-2.081755,2.076970,0.009773,-0.026878,0.015882
2025-12-31T16:07:50.358271,9.513862,-2.129612,2.091326,0.001221,-0.030543,0.013439
2025-12-31T16:07:50.367271,9.499505,-2.100898,2.091326,-0.001221,-0.032986,0.010995
2025-12-31T16:07:50.377271,9.494720,-2.182254,2.086541,-0.002443,-0.036651,0.012217
2025-12-31T16:07:50.387271,9.466006,-2.177468,2.120040,-0.001221,-0.040317,0.008552
2025-12-31T16:07:50.396271,9.537790,-2.187039,2.076970,0.004886,-0.037873,0.009773
2025-12-31T16:07:50.406271,9.537790,-2.153540,2.043470,0.006108,-0.035430,0.009773
2025-12-31T16:07:50.415271,9.561719,-2.134397,2.043470,0.004886,-0.029321,0.009773
2025-12-31T16:07:50.425271,9.523433,-2.124826,2.029113,-0.001221,-0.029321,0.010995
2025-12-31T16:07:50.435271,9.595218,-2.143969,2.096112,-0.017104,-0.035430,0.008552
2025-12-31T16:07:50.444271,9.561719,-2.172682,2.139183,-0.035430,-0.032986,0.009773
2025-12-31T16:07:50.454271,9.585647,-2.254038,2.129612,-0.042760,-0.020769,0.009773
2025-12-31T16:07:50.463271,9.571290,-2.301895,2.057827,-0.031764,0.002443,0.014660
2025-12-31T16:07:50.473271,9.427721,-2.321037,2.038684,-0.002443,0.020769,0.015882
2025-12-31T16:07:50.483271,9.332008,-2.230110,1.942971,0.030543,0.023212,0.021991
2025-12-31T16:07:50.492271,9.298508,-2.129612,2.038684,0.030543,-0.009773,0.028099
2025-12-31T16:07:50.502271,9.341579,-2.072184,2.086541,-0.002443,-0.056199,0.028099
2025-12-31T16:07:50.512271,9.427721,-2.134397,2.105683,-0.029321,-0.089186,0.026878
2025-12-31T16:07:50.521271,9.494720,-2.249253,2.057827,-0.037873,-0.098960,0.018325
2025-12-31T16:07:50.531271,9.571290,-2.359323,2.067398,-0.040317,-0.091629,0.008552
2025-12-31T16:07:50.540271,9.537790,-2.440679,1.986042,-0.024434,-0.086742,-0.008552
2025-12-31T16:07:50.550271,9.566504,-2.536391,1.962114,0.004886,-0.086742,-0.021991
2025-12-31T16:07:50.560271,9.547362,-2.459821,1.909472,0.032986,-0.094073,-0.028099
2025-12-31T16:07:50.569271,9.652646,-2.431107,1.995614,0.048869,-0.107512,-0.031764
2025-12-31T16:07:50.579271,9.695717,-2.354537,1.866401,0.065973,-0.105068,-0.021991
2025-12-31T16:07:50.588271,9.686145,-2.254038,1.919043,0.068416,-0.097738,-0.010995
2025-12-31T16:07:50.598271,9.748359,-2.239681,1.861615,0.079412,-0.076969,-0.004886
2025-12-31T16:07:50.608271,9.724431,-2.019542,1.899901,0.069638,-0.040317,0.004886
2025-12-31T16:07:50.617271,9.628718,-2.009970,1.938186,0.001221,-0.020769,0.032986
2025-12-31T16:07:50.627271,9.537790,-2.201396,1.823330,-0.064751,-0.052534,0.040317
2025-12-31T16:07:50.637271,9.576076,-2.134397,1.899901,-0.058643,-0.100181,0.032986
2025-12-31T16:07:50.646271,9.738787,-1.909472,2.464607,-0.080634,-0.147829,0.040317
2025-12-31T16:07:50.656271,9.925428,-1.775474,2.684746,-0.164933,-0.177150,0.039095
2025-12-31T16:07:50.665271,10.155139,-1.507478,2.378465,-0.282219,-0.157603,0.058643
2025-12-31T16:07:50.675271,10.092925,-1.277767,2.287538,-0.437379,-0.089186,0.090408
2025-12-31T16:07:50.685271,9.810572,-1.196411,2.163111,-0.687834,-0.009773,0.128281
2025-12-31T16:07:50.694271,9.418149,-1.459621,1.933400,-0.959058,0.053756,0.171042
2025-12-31T16:07:50.704271,8.839086,-1.928615,1.880758,-1.156978,0.086742,0.223576
2025-12-31T16:07:50.713271,8.260023,-2.368894,1.866401,-1.275486,0.092851,0.267558
2025-12-31T16:07:50.723271,7.781459,-2.818745,1.588834,-1.297477,0.065973,0.280997
2025-12-31T16:07:50.733271,7.355536,-3.273381,1.469193,-1.221730,0.025656,0.271224
2025-12-31T16:07:50.742271,7.097111,-3.675375,1.847259,-1.066570,-0.030543,0.251676
2025-12-31T16:07:50.752271,7.149753,-3.876372,2.627319,-0.824667,-0.067195,0.211359
2025-12-31T16:07:50.762271,7.068397,-3.952942,3.077169,-0.525343,0.008552,0.183259
2025-12-31T16:07:50.771271,6.675975,-3.584448,2.790031,-0.139277,0.130725,0.149051
2025-12-31T16:07:50.781271,6.226124,-2.727817,2.541177,0.169820,0.299323,0.153938
2025-12-31T16:07:50.790271,5.513063,-1.694118,2.053041,0.229685,0.498465,0.184481
2025-12-31T16:07:50.800271,4.685146,-0.961914,1.928615,0.098960,0.693942,0.240680
2025-12-31T16:07:50.810271,3.771088,-0.602991,2.364108,-0.158824,0.862541,0.337197
2025-12-31T16:07:50.819271,2.837887,-0.641276,2.718246,-0.532674,0.976162,0.480139
2025-12-31T16:07:50.829271,1.942971,-1.033699,2.847458,-0.928514,1.026253,0.652403
2025-12-31T16:07:50.838271,1.373480,-1.823330,3.273381,-1.132543,1.011592,0.821002
2025-12-31T16:07:50.848271,1.004985,-2.622533,4.029513,-1.194852,1.045801,0.974940
2025-12-31T16:07:50.858271,0.751346,-3.493520,4.445864,-1.047022,1.039692,1.038470
2025-12-31T16:07:50.867271,0.579063,-4.120440,4.603790,-0.720820,1.036027,1.108109
2025-12-31T16:07:50.877271,0.665204,-4.287938,4.646861,-0.338419,1.016479,1.225395
2025-12-31T16:07:50.887271,0.933200,-4.053441,4.656432,0.020769,0.967610,1.334129
2025-12-31T16:07:50.896271,1.220339,-3.172882,4.283152,0.298102,0.900415,1.415985
2025-12-31T16:07:50.906271,1.746760,-2.139183,3.512663,0.360410,0.800233,1.489289
2025-12-31T16:07:50.915271,2.258824,-1.416550,2.938386,0.164933,0.679282,1.560149
2025-12-31T16:07:50.925271,3.148954,-1.095912,3.110669,-0.172263,0.586430,1.594357
2025-12-31T16:07:50.935271,4.177868,-1.483550,3.431307,-0.522900,0.612086,1.610240
2025-12-31T16:07:50.944271,4.914857,-2.292324,3.393022,-0.775798,0.805120,1.616349
2025-12-31T16:07:50.954271,5.225924,-3.407379,3.038884,-0.836885,1.093448,1.601688
2025-12-31T16:07:50.963271,5.268995,-4.354937,2.790031,-0.685390,1.448972,1.589471
2025-12-31T16:07:50.973271,4.962714,-5.072783,2.732603,-0.425162,1.789834,1.584584
2025-12-31T16:07:50.983271,4.517649,-5.441278,2.541177,-0.120951,2.017076,1.595579
2025-12-31T16:07:50.992271,4.029513,-5.316851,2.512463,0.218689,2.065945,1.602910
2025-12-31T16:07:51.002271,3.694518,-4.924428,2.766102,0.448374,1.937664,1.579697
2025-12-31T16:07:51.012271,3.713660,-4.594219,3.072384,0.553443,1.692096,1.560149
2025-12-31T16:07:51.021271,4.019941,-4.249652,3.369094,0.608421,1.401324,1.556484
2025-12-31T16:07:51.031271,4.689932,-3.938585,3.747160,0.636521,1.131322,1.561371
2025-12-31T16:07:51.040271,5.532205,-3.751945,3.751945,0.561995,0.948062,1.595579
2025-12-31T16:07:51.050271,6.407978,-3.972085,3.507877,0.471587,0.912632,1.635896
2025-12-31T16:07:51.060271,7.106683,-4.153940,3.378665,0.415388,1.028696,1.670105
2025-12-31T16:07:51.069271,7.475177,-4.412364,3.330809,0.346971,1.253495,1.692096
2025-12-31T16:07:51.079271,7.609175,-4.737788,3.369094,0.332310,1.516167,1.740965
2025-12-31T16:07:51.088271,7.484749,-4.819144,3.426521,0.360410,1.720196,1.830151
2025-12-31T16:07:51.098271,7.149753,-4.828716,3.689732,0.361632,1.830151,1.893681
2025-12-31T16:07:51.108271,6.900900,-4.934000,4.058227,0.277332,1.833817,1.904677
2025-12-31T16:07:51.117271,6.714260,-5.201996,4.431507,0.113620,1.744630,1.907120
2025-12-31T16:07:51.127271,6.876972,-5.752345,4.838287,-0.113620,1.582140,1.940107
2025-12-31T16:07:51.137271,7.255038,-6.513263,5.173282,-0.331088,1.353677,1.954768
2025-12-31T16:07:51.146271,7.972884,-7.417750,5.283352,-0.419053,1.099557,1.944994
2025-12-31T16:07:51.156271,8.863014,-8.264809,5.111069,-0.377514,0.891863,1.938885
2025-12-31T16:07:51.165271,9.824929,-9.145367,4.905286,-0.166155,0.794124,1.948659
2025-12-31T16:07:51.175271,10.552347,-9.748359,4.823930,0.147829,0.852767,1.986533
2025-12-31T16:07:51.185271,10.872985,-10.126425,4.972285,0.526565,1.103222,2.002415
2025-12-31T16:07:51.194271,10.872985,-10.102497,5.513063,0.916297,1.516167,2.001194
2025-12-31T16:07:51.204271,10.380064,-9.667003,6.881757,1.208291,1.992641,1.986533
2025-12-31T16:07:51.213271,9.686145,-8.848657,8.408378,1.226617,2.346943,1.951103
2025-12-31T16:07:51.223271,9.073583,-8.331808,9.198010,0.916297,2.439795,1.935220
2025-12-31T16:07:51.233271,8.585447,-8.307880,9.322436,0.507018,2.288300,2.001194
2025-12-31T16:07:51.242271,8.346165,-8.207381,9.121439,0.160046,2.029293,2.116036
2025-12-31T16:07:51.252271,8.255237,-8.236095,8.556733,-0.250454,1.786169,2.265087
2025-12-31T16:07:51.262271,8.226524,-9.025726,7.838886,-0.764803,1.666440,2.387260
2025-12-31T16:07:51.271271,8.317451,-10.356136,8.006384,-1.284038,1.770287,2.456899
2025-12-31T16:07:51.281271,8.116454,-12.050254,8.609375,-1.629788,2.075719,2.475225
2025-12-31T16:07:51.290271,7.350751,-13.744373,9.044869,-1.606575,2.505768,2.464229
2025-12-31T16:07:51.300271,6.106483,-14.782858,9.882357,-1.225395,2.873509,2.428799
2025-12-31T16:07:51.310271,4.733003,-14.873785,11.925827,-0.718377,3.101973,2.311513
2025-12-31T16:07:51.319271,3.019742,-14.318650,13.873585,-0.237015,3.160616,2.149023
2025-12-31T16:07:51.329271,1.526620,-13.328021,14.868999,0.138055,2.901609,2.036624
2025-12-31T16:07:51.338271,0.832702,-12.303893,14.390435,0.229685,2.328617,1.871690
2025-12-31T16:07:51.348271,0.751346,-11.935399,13.576875,-0.001221,1.715309,1.682322
2025-12-31T16:07:51.358271,0.947557,-12.437891,13.696516,-0.469144,1.260825,1.533271
2025-12-31T16:07:51.367271,1.339980,-13.797015,13.591232,-0.994488,0.950506,1.263269
2025-12-31T16:07:51.377271,1.852044,-15.625131,12.265608,-1.426980,0.766024,0.888197
2025-12-31T16:07:51.387271,2.062613,-17.673388,10.710273,-1.804495,0.648738,0.502131
2025-12-31T16:07:51.396271,2.249253,-20.042282,10.045069,-1.984089,0.515570,0.014660
2025-12-31T16:07:51.406271,2.455035,-22.248465,10.164710,-1.643227,0.343306,-0.572991
2025-12-31T16:07:51.415271,2.349751,-22.971096,10.604989,-0.767246,0.129503,-1.130100
2025-12-31T16:07:51.425271,2.172682,-21.765114,10.604989,0.337197,-0.114842,-1.557706
2025-12-31T16:07:51.435271,1.718046,-18.711872,9.997212,1.351233,-0.353080,-1.857029
2025-12-31T16:07:51.444271,1.526620,-14.825928,9.121439,2.026850,-0.674395,-1.984089
2025-12-31T16:07:51.454271,1.464407,-11.447263,8.432306,2.149023,-1.089783,-1.992641
2025-12-31T16:07:51.463271,1.770688,-9.293722,7.867600,1.695761,-1.489289,-1.905899
2025-12-31T16:07:51.473271,2.397608,-8.743373,7.680960,0.893084,-1.810604,-1.769065
2025-12-31T16:07:51.483271,3.239881,-9.547362,8.082954,-0.012217,-2.031737,-1.677435
2025-12-31T16:07:51.492271,4.220939,-11.432906,7.958527,-0.643851,-2.168571,-1.679879
2025-12-31T16:07:51.502271,4.790430,-13.203595,7.149753,-0.662177,-2.211331,-1.737300
2025-12-31T16:07:51.512271,5.115854,-13.959727,6.431907,-0.244346,-2.230879,-1.833817
2025-12-31T16:07:51.521271,5.216353,-13.524233,6.092126,0.349414,-2.241874,-1.984089
2025-12-31T16:07:51.531271,5.125426,-11.696116,6.135197,0.929736,-2.262644,-2.146580
2025-12-31T16:07:51.540271,4.804787,-8.882157,6.489334,1.252273,-2.294409,-2.265087
2025-12-31T16:07:51.550271,4.551148,-6.058626,6.872186,1.193630,-2.351830,-2.359161
2025-12-31T16:07:51.560271,4.369294,-3.560520,6.843472,0.783129,-2.437351,-2.394591
2025-12-31T16:07:51.569271,4.532006,-1.875972,5.967699,0.080634,-2.577850,-2.375043
2025-12-31T16:07:51.579271,4.862215,-1.268195,4.555934,-0.901636,-2.729345,-2.362826
2025-12-31T16:07:51.588271,5.580062,-2.397608,3.656232,-2.074497,-2.875952,-2.400699
2025-12-31T16:07:51.598271,6.632904,-5.302494,3.565305,-3.222924,-2.971247,-2.508212
2025-12-31T16:07:51.608271,8.159525,-9.226723,3.684946,-3.787363,-2.917491,-2.698802
2025-12-31T16:07:51.617271,9.375078,-12.868599,3.589233,-3.495370,-2.652376,-2.896722
2025-12-31T16:07:51.627271,9.695717,-15.007783,3.010170,-2.566855,-2.256535,-2.983465
2025-12-31T16:07:51.637271,9.303294,-15.046068,2.431107,-1.134987,-1.806938,-2.951700
2025-12-31T16:07:51.646271,8.523234,-12.605389,3.273381,0.392175,-1.430646,-2.890613
2025-12-31T16:07:51.656271,7.441678,-8.858229,4.895715,1.215621,-1.254716,-2.835635
2025-12-31T16:07:51.665271,6.494120,-6.001199,5.312066,1.241277,-1.260825,-2.803870
2025-12-31T16:07:51.675271,5.670989,-3.684946,5.158925,0.988379,-1.412320,-2.800205
2025-12-31T16:07:51.685271,5.326423,-1.435693,3.785445,0.488692,-1.673770,-2.819753
2025-12-31T16:07:51.694271,5.374279,-0.713061,2.737389,-0.500909,-1.954768,-2.833192
2025-12-31T16:07:51.704271,5.618347,-1.981257,2.349751,-1.659109,-2.295631,-2.968804
2025-12-31T16:07:51.713271,6.618547,-4.067798,1.828116,-2.295631,-2.627941,-3.203376
2025-12-31T16:07:51.723271,7.680960,-6.293123,1.445264,-2.350608,-2.787988,-3.392744
2025-12-31T16:07:51.733271,8.819944,-8.169096,1.268195,-1.869247,-2.807536,-3.676186
2025-12-31T16:07:51.742271,10.006784,-9.336793,1.483550,-0.885754,-2.682919,-3.962071
2025-12-31T16:07:51.752271,10.796415,-9.250652,1.555334,0.328645,-2.511877,-4.079357
2025-12-31T16:07:51.762271,10.901699,-7.920242,1.220339,1.505171,-2.322509,-4.080578
2025-12-31T16:07:51.771271,10.686345,-5.800201,1.411765,2.390926,-2.172236,-4.067139
2025-12-31T16:07:51.781271,10.384850,-3.665804,1.875972,2.838079,-2.092823,-3.996279
2025-12-31T16:07:51.790271,10.059426,-1.942971,2.115255,2.934595,-2.080606,-3.874106
2025-12-31T16:07:51.800271,9.844072,-0.564706,2.335394,2.763553,-2.123367,-3.685960
2025-12-31T16:07:51.810271,9.801001,0.488135,2.469392,2.323730,-2.160019,-3.423288
2025-12-31T16:07:51.819271,9.848857,1.177268,2.340180,1.707978,-2.112371,-3.125185
2025-12-31T16:07:51.829271,9.537790,1.000199,2.340180,1.026253,-1.894903,-2.785544
2025-12-31T16:07:51.838271,8.815158,0.363709,2.531606,0.433714,-1.555262,-2.439795
2025-12-31T16:07:51.848271,7.872386,-0.598205,2.732603,-0.018325,-1.154535,-2.081828
2025-12-31T16:07:51.858271,6.608976,-1.292124,2.636890,-0.307876,-0.728151,-1.711644
2025-12-31T16:07:51.867271,5.053641,-1.861615,2.737389,-0.433714,-0.342084,-1.402546
2025-12-31T16:07:51.877271,3.460021,-2.172682,2.938386,-0.430049,-0.051312,-1.138652
2025-12-31T16:07:51.887271,2.048256,-2.397608,3.254238,-0.337197,0.108733,-0.906523
2025-12-31T16:07:51.896271,0.942772,-2.407179,3.536591,-0.193033,0.128281,-0.717155
2025-12-31T16:07:51.906271,0.220139,-2.191825,3.847658,-0.063529,0.023212,-0.579100
2025-12-31T16:07:51.915271,-0.181854,-1.933400,4.048655,-0.010995,-0.171042,-0.476474
2025-12-31T16:07:51.925271,-0.038285,-1.584048,4.077369,-0.010995,-0.375071,-0.392175
2025-12-31T16:07:51.935271,0.574277,-0.952343,3.881158,-0.062308,-0.464257,-0.259006
2025-12-31T16:07:51.944271,0.665204,-0.904486,3.335594,-0.373849,-0.488692,-0.197920
2025-12-31T16:07:51.954271,1.397408,-1.512263,3.077169,-0.667064,-0.483805,-0.153938
2025-12-31T16:07:51.963271,1.665404,-1.885544,3.354737,-0.741590,-0.311541,-0.047647
2025-12-31T16:07:51.973271,1.990828,-2.072184,3.330809,-0.811228,-0.109955,0.042760
2025-12-31T16:07:51.983271,1.909472,-2.555534,2.909672,-0.856432,0.186924,0.118507
2025-12-31T16:07:51.992271,1.799402,-2.766102,2.455035,-0.788015,0.394618,0.180816
2025-12-31T16:07:52.002271,1.713260,-2.828316,2.641676,-0.689055,0.497244,0.233350
2025-12-31T16:07:52.012271,1.966900,-3.129811,2.904886,-0.601091,0.431270,0.248011
2025-12-31T16:07:52.021271,2.483749,-3.464807,2.967100,-0.493579,0.260228,0.285884
2025-12-31T16:07:52.031271,3.302095,-3.684946,2.737389,-0.344527,0.035430,0.333532
2025-12-31T16:07:52.040271,4.393222,-3.704089,2.440679,-0.161268,-0.173485,0.367740
2025-12-31T16:07:52.050271,5.637490,-3.383451,2.196611,-0.073303,-0.349414,0.382401
2025-12-31T16:07:52.060271,7.168896,-3.034099,2.038684,-0.161268,-0.526565,0.365297
2025-12-31T16:07:52.069271,9.140582,-2.584248,1.512263,-0.397062,-0.703716,0.288328
2025-12-31T16:07:52.079271,11.428120,-2.321037,1.555334,-0.780685,-0.788015,0.174707
2025-12-31T16:07:52.088271,13.524233,-2.373680,1.746760,-1.257160,-0.720820,-0.017104
2025-12-31T16:07:52.098271,14.658431,-2.780459,0.799202,-1.721417,-0.415388,-0.166155
2025-12-31T16:07:52.108271,14.419148,-3.694518,-0.220139,-2.084271,0.087964,-0.256563
2025-12-31T16:07:52.117271,12.739387,-4.886143,0.004785,-2.206444,0.728151,-0.284663
2025-12-31T16:07:52.127271,10.226923,-5.924628,0.727418,-2.009746,1.314581,-0.268780
2025-12-31T16:07:52.137271,7.939385,-6.288337,0.784845,-1.555262,1.672548,-0.228463
2025-12-31T16:07:52.146271,5.800201,-6.608976,1.105484,-0.924849,1.835038,-0.109955
2025-12-31T16:07:52.156271,4.244867,-6.637689,1.612762,-0.123394,1.617570,-0.070860
2025-12-31T16:07:52.165271,3.421736,-6.197410,1.818545,0.686612,1.076344,-0.068416
2025-12-31T16:07:52.175271,3.651447,-5.264209,1.512263,1.393994,0.328645,-0.052534
2025-12-31T16:07:52.185271,4.761716,-3.976871,1.301695,1.854586,-0.392175,-0.014660
2025-12-31T16:07:52.194271,6.465406,-2.718246,0.909272,2.001194,-0.901636,0.039095
2025-12-31T16:07:52.204271,8.743373,-1.158126,-0.014356,1.903455,-1.088561,0.124616
2025-12-31T16:07:52.213271,10.805986,-0.028713,0.334995,1.522275,-0.825889,0.277332
2025-12-31T16:07:52.223271,12.016755,0.579063,0.866201,1.001818,-0.310319,0.351858
2025-12-31T16:07:52.233271,12.155538,0.842273,0.598205,0.420275,0.290771,0.392175
2025-12-31T16:07:52.242271,11.265408,0.636490,0.626919,-0.223576,0.773355,0.463035
2025-12-31T16:07:52.252271,9.896714,-0.344566,1.225125,-0.792902,1.015257,0.499687
2025-12-31T16:07:52.262271,8.604590,-1.373480,1.387837,-1.165530,1.028696,0.525343
2025-12-31T16:07:52.271271,7.647461,-2.177468,1.033699,-1.356120,0.918741,0.570548
2025-12-31T16:07:52.281271,6.809973,-2.694318,0.531206,-1.401324,0.769690,0.620638
2025-12-31T16:07:52.290271,6.340979,-3.005385,0.095712,-1.301142,0.654847,0.686612
2025-12-31T16:07:52.300271,5.632704,-3.101098,0.014356,-1.084896,0.636521,0.788015
2025-12-31T16:07:52.310271,4.895715,-2.895315,0.430708,-0.825889,0.715933,0.916297
2025-12-31T16:07:52.319271,3.976871,-2.675175,0.957129,-0.525343,0.853989,1.044579
2025-12-31T16:07:52.329271,3.034099,-2.359323,1.612762,-0.194255,0.989601,1.171639
2025-12-31T16:07:52.338271,2.210968,-1.971685,2.268395,0.076969,1.081231,1.321912
2025-12-31T16:07:52.348271,1.507478,-1.698904,2.459821,0.243124,1.100778,1.464854
2025-12-31T16:07:52.358271,1.110269,-1.569691,2.397608,0.351858,1.027475,1.584584
2025-12-31T16:07:52.367271,1.000199,-1.464407,2.062613,0.368962,0.851545,1.728748
2025-12-31T16:07:52.377271,1.153340,-1.526620,2.005185,0.304210,0.604756,1.893681
2025-12-31T16:07:52.387271,1.708475,-1.775474,2.019542,0.285884,0.350636,2.021963
2025-12-31T16:07:52.396271,2.555534,-1.789831,1.875972,0.362853,0.144164,2.087936
2025-12-31T16:07:52.406271,3.670589,-1.938186,1.622333,0.441044,0.041538,2.094045
2025-12-31T16:07:52.415271,4.867001,-2.277967,1.660618,0.526565,0.061086,2.089158
2025-12-31T16:07:52.425271,5.934200,-2.632104,2.057827,0.634077,0.134390,2.080606
2025-12-31T16:07:52.435271,6.991827,-2.694318,1.947757,0.774576,0.260228,2.122145
2025-12-31T16:07:52.444271,7.671389,-2.636890,1.866401,0.864984,0.459370,2.189340
2025-12-31T16:07:52.454271,8.149953,-2.703889,1.684547,0.873537,0.670729,2.223549
2025-12-31T16:07:52.463271,8.355736,-2.699103,1.914258,0.890641,0.895528,2.213775
2025-12-31T16:07:52.473271,8.341379,-2.703889,2.033899,0.915075,1.071457,2.207666
2025-12-31T16:07:52.483271,8.111668,-2.675175,1.674975,0.918741,1.191186,2.233322
2025-12-31T16:07:52.492271,7.953742,-2.727817,1.660618,0.904080,1.237612,2.249205
2025-12-31T16:07:52.502271,7.925028,-2.823530,2.100898,0.849102,1.231504,2.260200
2025-12-31T16:07:52.512271,8.140382,-2.900100,2.636890,0.774576,1.191186,2.290744
2025-12-31T16:07:52.521271,8.379664,-3.105883,3.115455,0.646295,1.176526,2.354274
2025-12-31T16:07:52.531271,8.657232,-3.349951,3.091526,0.456927,1.194852,2.426356
2025-12-31T16:07:52.540271,8.930013,-3.890729,3.168097,0.255341,1.209512,2.488664
2025-12-31T16:07:52.550271,9.260223,-4.465006,3.455235,0.019547,1.182634,2.528981
2025-12-31T16:07:52.560271,9.767501,-5.536991,3.637090,-0.241902,1.166752,2.631606
2025-12-31T16:07:52.569271,10.346564,-6.795616,3.981656,-0.351858,1.177747,2.770884
2025-12-31T16:07:52.579271,10.944770,-7.671389,4.555934,-0.288328,1.229060,2.872287
2025-12-31T16:07:52.588271,11.265408,-8.336593,4.680361,-0.122173,1.343903,2.948035
2025-12-31T16:07:52.598271,11.179267,-8.456235,4.369294,0.142942,1.530827,3.014008
2025-12-31T16:07:52.608271,10.796415,-8.059026,4.039084,0.422718,1.759291,3.076316
2025-12-31T16:07:52.617271,10.049854,-7.365107,4.163511,0.572991,1.984089,3.111746
2025-12-31T16:07:52.627271,9.193224,-6.876972,4.316651,0.619417,2.197892,3.099529
2025-12-31T16:07:52.637271,8.221738,-6.422335,4.460221,0.621860,2.355495,3.082425
2025-12-31T16:07:52.646271,7.121040,-6.522834,4.106083,0.529009,2.405586,3.042108
2025-12-31T16:07:52.656271,6.197410,-7.058826,3.919443,0.540004,2.456899,2.918713
2025-12-31T16:07:52.665271,5.489135,-6.881757,4.637290,0.730594,2.411695,2.756223
2025-12-31T16:07:52.675271,4.953142,-7.159325,4.948357,0.508239,2.241874,2.620611
2025-12-31T16:07:52.685271,4.632504,-8.465806,4.938785,0.381179,1.991420,2.544864
2025-12-31T16:07:52.694271,4.474578,-8.848657,5.407779,0.717155,1.762956,2.492329
2025-12-31T16:07:52.704271,4.283152,-8.327022,5.862415,0.987158,1.590692,2.433686
2025-12-31T16:07:52.713271,4.259224,-8.054240,6.293123,0.891863,1.437976,2.393369
2025-12-31T16:07:52.723271,4.560719,-7.992027,7.092326,0.653625,1.315803,2.378708
2025-12-31T16:07:52.733271,4.857429,-7.977670,7.647461,0.379958,1.237612,2.377487
2025-12-31T16:07:52.742271,5.005784,-8.303094,7.484749,-0.010995,1.209512,2.393369
2025-12-31T16:07:52.752271,4.900500,-9.226723,7.135396,-0.453261,1.251051,2.415360
2025-12-31T16:07:52.762271,4.843072,-10.648060,7.427321,-0.833220,1.357342,2.425134
2025-12-31T16:07:52.771271,4.584648,-12.078968,7.800601,-0.984714,1.524719,2.421469
2025-12-31T16:07:52.781271,4.101297,-13.189238,8.279166,-0.930958,1.673770,2.464229
2025-12-31T16:07:52.790271,3.527020,-13.854442,8.733802,-0.800233,1.725083,2.542420
2025-12-31T16:07:52.800271,2.837887,-13.883156,8.886943,-0.524122,1.683544,2.580294
2025-12-31T16:07:52.810271,2.067398,-13.289736,8.748159,-0.160046,1.578475,2.553416
2025-12-31T16:07:52.819271,1.344766,-12.495319,8.767302,-0.035430,1.423315,2.513099
2025-12-31T16:07:52.829271,0.957129,-12.160324,8.700302,-0.200363,1.277929,2.453234
2025-12-31T16:07:52.838271,0.569491,-12.457034,9.030512,-0.579100,1.142317,2.348165
2025-12-31T16:07:52.848271,0.363709,-13.686945,9.738787,-1.056796,1.032362,2.219883
2025-12-31T16:07:52.858271,0.267996,-15.237494,10.236495,-1.299920,0.962723,2.050063
2025-12-31T16:07:52.867271,0.143569,-16.472191,10.322636,-1.249830,0.879645,1.848477
2025-12-31T16:07:52.877271,0.138783,-17.343178,10.202995,-1.186300,0.704938,1.650557
2025-12-31T16:07:52.887271,0.157926,-18.199808,9.767501,-1.066570,0.478918,1.401324
2025-12-31T16:07:52.896271,0.382851,-18.439091,8.992227,-0.722042,0.246789,1.066570
2025-12-31T16:07:52.906271,0.693918,-18.166309,8.595018,-0.504574,0.039095,0.730594
2025-12-31T16:07:52.915271,0.961914,-18.089739,8.336593,-0.448374,-0.105068,0.368962
2025-12-31T16:07:52.925271,1.234696,-17.620745,8.705088,-0.400727,-0.201585,-0.037873
2025-12-31T16:07:52.935271,1.435693,-16.917255,9.647860,-0.518013,-0.278554,-0.406836
2025-12-31T16:07:52.944271,1.421336,-16.591831,9.863214,-0.774576,-0.353080,-0.717155
2025-12-31T16:07:52.954271,1.445264,-16.481762,9.690931,-0.976162,-0.443488,-0.974940
2025-12-31T16:07:52.963271,1.560120,-16.438690,9.757930,-1.141096,-0.582765,-1.182634
2025-12-31T16:07:52.973271,1.770688,-16.572689,9.868000,-1.240056,-0.779463,-1.329242
2025-12-31T16:07:52.983271,2.239681,-16.802401,9.676574,-1.290147,-0.988379,-1.382998
2025-12-31T16:07:52.992271,2.675175,-16.792830,8.867800,-1.242499,-1.169195,-1.381776
2025-12-31T16:07:53.002271,3.215953,-16.146767,7.360322,-0.900415,-1.285260,-1.384220
2025-12-31T16:07:53.012271,3.622733,-14.897713,6.273980,-0.546113,-1.346346,-1.308473
2025-12-31T16:07:53.021271,3.838087,-13.902299,5.474778,-0.509461,-1.325577,-1.185078
2025-12-31T16:07:53.031271,4.029513,-13.241880,5.197210,-0.526565,-1.182634,-1.141096
2025-12-31T16:07:53.040271,3.871586,-12.102896,4.881358,-0.368962,-0.896749,-1.152091
2025-12-31T16:07:53.050271,3.153740,-10.753344,4.819144,-0.193033,-0.610865,-1.251051
2025-12-31T16:07:53.060271,2.378465,-9.729216,5.580062,-0.086742,-0.460592,-1.500284
2025-12-31T16:07:53.069271,1.952543,-9.059226,6.034698,0.081855,-0.442266,-1.764178
2025-12-31T16:07:53.079271,1.627119,-8.604590,6.369693,0.449596,-0.491135,-1.987755
2025-12-31T16:07:53.088271,1.344766,-8.312665,6.044269,0.951727,-0.586430,-2.256535
2025-12-31T16:07:53.098271,1.167697,-7.858029,5.345565,1.419650,-0.678060,-2.565633
2025-12-31T16:07:53.108271,1.229910,-7.250252,4.905286,1.799608,-0.810007,-2.840522
2025-12-31T16:07:53.117271,1.421336,-6.173482,4.867001,2.010967,-0.989601,-3.033556
2025-12-31T16:07:53.127271,1.718046,-4.460221,4.910071,1.966985,-1.224173,-3.158172
2025-12-31T16:07:53.137271,2.277967,-1.899901,4.594219,1.533271,-1.442863,-3.134959
2025-12-31T16:07:53.146271,2.565105,0.028713,4.661218,0.678060,-1.618792,-3.067764
2025-12-31T16:07:53.156271,3.225524,0.717846,3.986442,-0.328645,-1.817934,-3.109303
2025-12-31T16:07:53.165271,3.996013,0.157926,3.005385,-1.387885,-1.944994,-3.170389
2025-12-31T16:07:53.175271,4.790430,-2.043470,3.211167,-2.247983,-2.006081,-3.299893
2025-12-31T16:07:53.185271,5.560919,-4.804787,3.536591,-2.574185,-2.017076,-3.583334
2025-12-31T16:07:53.194271,6.589833,-7.302894,3.282952,-2.375043,-1.910786,-3.937636
2025-12-31T16:07:53.204271,7.513462,-10.135996,3.168097,-1.996307,-1.573588,-4.095239
2025-12-31T16:07:53.213271,8.173882,-12.547961,3.000599,-1.385442,-1.165530,-4.141665
2025-12-31T16:07:53.223271,8.274380,-13.313664,2.593819,-0.356745,-0.831998,-4.109900
2025-12-31T16:07:53.233271,7.609175,-11.710473,2.110469,0.996931,-0.646295,-4.067139
2025-12-31T16:07:53.242271,6.594619,-8.456235,1.823330,2.047619,-0.680503,-4.051257
2025-12-31T16:07:53.252271,5.647061,-5.450849,1.708475,2.433686,-0.861319,-4.032931
2025-12-31T16:07:53.262271,5.216353,-3.038884,1.861615,2.304183,-1.145982,-4.006053
2025-12-31T16:07:53.271271,5.493920,-0.713061,1.612762,1.761734,-1.521054,-3.988949
2025-12-31T16:07:53.281271,6.168696,0.354137,2.464607,0.712268,-1.904677,-3.903428
2025-12-31T16:07:53.290271,7.125825,0.392422,2.699103,-0.459370,-2.322509,-3.872884
2025-12-31T16:07:53.300271,8.322237,-0.344566,2.574677,-1.396437,-2.658484,-3.867997
2025-12-31T16:07:53.310271,9.451649,-1.569691,2.076970,-2.059837,-2.841744,-3.849671
2025-12-31T16:07:53.319271,10.581061,-2.895315,1.703689,-2.438573,-2.835635,-3.865554
2025-12-31T16:07:53.329271,11.480762,-4.254438,1.426122,-2.476447,-2.647489,-3.913201
2025-12-31T16:07:53.338271,12.007183,-5.158925,0.933200,-2.225992,-2.301739,-3.916867
2025-12-31T16:07:53.348271,11.729616,-5.608776,0.421136,-1.797165,-1.842369,-3.878993
2025-12-31T16:07:53.358271,11.016555,-5.532205,0.378065,-1.310916,-1.376889,-3.824015
2025-12-31T16:07:53.367271,9.958927,-5.053641,0.693918,-0.872315,-1.015257,-3.776368
2025-12-31T16:07:53.377271,8.729016,-4.532006,0.890130,-0.555887,-0.806341,-3.740937
2025-12-31T16:07:53.387271,7.690531,-4.082155,0.842273,-0.359188,-0.752585,-3.688403
2025-12-31T16:07:53.396271,6.872186,-3.881158,1.033699,-0.243124,-0.808785,-3.594330
2025-12-31T16:07:53.406271,6.479763,-3.838087,0.995414,-0.160046,-0.916297,-3.481931
2025-12-31T16:07:53.415271,6.326622,-4.130011,1.158126,-0.057421,-1.016479,-3.356092
2025-12-31T16:07:53.425271,6.446264,-4.450650,1.244267,0.103847,-1.071457,-3.187494
2025-12-31T16:07:53.435271,6.580262,-4.689932,1.234696,0.321315,-1.069013,-2.990795
2025-12-31T16:07:53.444271,6.776473,-4.929214,1.196411,0.563217,-1.000597,-2.775771
2025-12-31T16:07:53.454271,6.786044,-5.120640,1.306481,0.842993,-0.855211,-2.538755
2025-12-31T16:07:53.463271,6.656832,-4.948357,1.603191,1.159421,-0.665842,-2.288300
2025-12-31T16:07:53.473271,6.269195,-4.594219,1.842473,1.439198,-0.461814,-2.026850
2025-12-31T16:07:53.483271,5.709274,-4.000799,1.990828,1.660331,-0.249232,-1.762956
2025-12-31T16:07:53.492271,5.000999,-3.196810,2.292324,1.824043,-0.034208,-1.517388
2025-12-31T16:07:53.502271,4.225724,-2.292324,2.321037,1.879021,0.152716,-1.268155
2025-12-31T16:07:53.512271,3.436093,-1.330409,2.306680,1.783726,0.285884,-1.010370
2025-12-31T16:07:53.521271,2.799602,-0.569491,2.340180,1.512502,0.349414,-0.761137
2025-12-31T16:07:53.531271,2.163111,-0.057427,2.569891,1.083674,0.353080,-0.515570
2025-12-31T16:07:53.540271,1.808973,0.105284,2.770888,0.593760,0.310319,-0.280997
2025-12-31T16:07:53.550271,1.679761,0.038285,2.895315,0.124616,0.230907,-0.075747
2025-12-31T16:07:53.560271,1.804188,-0.287138,3.034099,-0.315206,0.117286,0.101403
2025-12-31T16:07:53.569271,2.287538,-0.851844,3.091526,-0.687834,-0.030543,0.248011
2025-12-31T16:07:53.579271,3.110669,-1.536192,2.909672,-0.919962,-0.175929,0.354301
2025-12-31T16:07:53.588271,4.158725,-2.091326,2.699103,-1.050687,-0.278554,0.434935
2025-12-31T16:07:53.598271,5.288137,-2.675175,2.498106,-1.139874,-0.335975,0.487470
2025-12-31T16:07:53.608271,6.527620,-3.187239,2.110469,-1.174082,-0.351858,0.508239
2025-12-31T16:07:53.617271,7.819744,-3.589233,1.837687,-1.158200,-0.353080,0.498465
2025-12-31T16:07:53.627271,9.221938,-3.967299,1.737189,-1.134987,-0.372627,0.450818
2025-12-31T16:07:53.637271,10.686345,-4.254438,1.770688,-1.048244,-0.383623,0.383623
2025-12-31T16:07:53.646271,12.107682,-4.436293,1.765903,-0.917519,-0.334754,0.295658
2025-12-31T16:07:53.656271,13.390235,-4.575076,1.588834,-0.778242,-0.235793,0.188146
2025-12-31T16:07:53.665271,14.562718,-4.479363,1.363908,-0.601091,-0.103847,0.089186
2025-12-31T16:07:53.675271,15.232708,-4.096512,1.205982,-0.422718,0.096516,0.042760
2025-12-31T16:07:53.685271,15.285350,-3.651447,0.957129,-0.272445,0.370184,0.039095
2025-12-31T16:07:53.694271,14.438291,-2.900100,0.732203,-0.140498,0.767246,0.123394
2025-12-31T16:07:53.704271,12.643674,-2.134397,0.995414,-0.043982,1.209512,0.285884
2025-12-31T16:07:53.713271,10.317851,-1.627119,1.593619,-0.026878,1.560149,0.433714
2025-12-31T16:07:53.723271,8.092526,-1.201196,1.995614,-0.041538,1.699426,0.553443
2025-12-31T16:07:53.733271,6.149554,-0.976271,2.153540,0.004886,1.628566,0.663399
2025-12-31T16:07:53.742271,4.723431,-0.626919,2.383251,0.041538,1.398881,0.751364
2025-12-31T16:07:53.752271,3.996013,-0.579063,2.388036,0.028099,1.036027,0.802676
2025-12-31T16:07:53.762271,3.991228,-0.421136,2.268395,0.017104,0.572991,0.835663
2025-12-31T16:07:53.771271,4.689932,-0.387637,1.904686,0.006108,0.083077,0.872315
2025-12-31T16:07:53.781271,5.938985,-0.445065,1.555334,-0.042760,-0.312762,0.893084
2025-12-31T16:07:53.790271,7.470392,-0.583848,1.258624,-0.100181,-0.502131,0.888197
2025-12-31T16:07:53.800271,8.743373,-0.765703,0.990628,-0.128281,-0.456927,0.867428
2025-12-31T16:07:53.810271,9.513862,-0.961914,0.851844,-0.158824,-0.227241,0.849102
2025-12-31T16:07:53.819271,9.604789,-1.158126,0.445065,-0.138055,0.109955,0.860098
2025-12-31T16:07:53.829271,9.064012,-1.263410,0.320638,-0.058643,0.459370,0.862541
2025-12-31T16:07:53.838271,8.015955,-1.311266,0.373280,-0.004886,0.714712,0.862541
2025-12-31T16:07:53.848271,6.786044,-1.220339,0.220139,0.035430,0.833220,0.871093
2025-12-31T16:07:53.858271,5.637490,-0.957129,0.200997,0.101403,0.819780,0.868650
2025-12-31T16:07:53.867271,4.742574,-0.583848,0.282353,0.102625,0.712268,0.863763
2025-12-31T16:07:53.877271,4.005585,-0.483350,0.516849,0.024434,0.555887,0.879645
2025-12-31T16:07:53.887271,3.469592,-0.708275,0.631705,-0.047647,0.401949,0.919962
2025-12-31T16:07:53.896271,3.067598,-0.794417,0.837487,-0.085521,0.280997,0.972497
2025-12-31T16:07:53.906271,2.837887,-1.095912,0.990628,-0.089186,0.200363,1.028696
2025-12-31T16:07:53.915271,2.550748,-1.392622,1.067198,-0.039095,0.155159,1.087339
2025-12-31T16:07:53.925271,2.459821,-1.502692,1.043270,0.054977,0.141720,1.155756
2025-12-31T16:07:53.935271,2.373680,-1.708475,0.995414,0.158824,0.141720,1.235169
2025-12-31T16:07:53.944271,2.330609,-1.852044,0.827916,0.280997,0.131946,1.314581
2025-12-31T16:07:53.954271,2.474178,-1.952543,0.636490,0.417831,0.087964,1.379333
2025-12-31T16:07:53.963271,2.737389,-2.009970,0.669990,0.572991,0.024434,1.431867
2025-12-31T16:07:53.973271,3.211167,-2.263610,1.091127,0.701273,-0.046425,1.501506
2025-12-31T16:07:53.983271,3.905086,-2.421536,1.378265,0.785572,-0.087964,1.578475
2025-12-31T16:07:53.992271,4.517649,-2.445464,1.296909,0.838106,-0.061086,1.663996
2025-12-31T16:07:54.002271,5.158925,-2.641676,1.249053,0.846659,0.034208,1.759291
2025-12-31T16:07:54.012271,5.737988,-2.761317,1.249053,0.883310,0.171042,1.881464
2025-12-31T16:07:54.021271,6.063412,-2.861815,1.253839,0.894306,0.280997,1.992641
2025-12-31T16:07:54.031271,6.384050,-3.038884,1.182054,0.878424,0.360410,2.092823
2025-12-31T16:07:54.040271,6.704688,-3.187239,1.191625,0.938288,0.420275,2.188118
2025-12-31T16:07:54.050271,7.010970,-3.101098,1.363908,1.042135,0.461814,2.279748
2025-12-31T16:07:54.060271,7.441678,-3.019742,1.880758,1.117883,0.508239,2.350608
2025-12-31T16:07:54.069271,8.001598,-2.924029,2.603390,1.145982,0.565661,2.395812
2025-12-31T16:07:54.079271,8.556733,-3.058027,2.890529,1.119104,0.658512,2.441016
2025-12-31T16:07:54.088271,9.025726,-3.278166,2.569891,1.043357,0.791681,2.478890
2025-12-31T16:07:54.098271,9.327222,-3.737588,1.899901,0.949284,0.981049,2.535090
2025-12-31T16:07:54.108271,9.513862,-4.139583,1.473978,0.908967,1.189965,2.602285
2025-12-31T16:07:54.117271,9.485148,-4.532006,1.598405,0.949284,1.393994,2.643824
2025-12-31T16:07:54.127271,9.408578,-4.857429,2.206182,1.039692,1.556484,2.619389
2025-12-31T16:07:54.137271,9.643075,-5.134997,3.464807,1.102000,1.659109,2.635272
2025-12-31T16:07:54.146271,9.973284,-5.259424,4.713860,1.083674,1.723861,2.751336
2025-12-31T16:07:54.156271,10.255637,-4.785645,5.565705,1.023809,1.776395,2.873509
2025-12-31T16:07:54.165271,10.399207,-4.048655,5.790630,0.800233,1.782504,2.995682
2025-12-31T16:07:54.175271,10.480562,-3.598805,5.407779,0.304210,1.753182,3.194824
2025-12-31T16:07:54.185271,10.576275,-3.885943,4.996213,-0.486248,1.694539,3.468492
2025-12-31T16:07:54.194271,10.892128,-5.292923,4.718646,-1.387885,1.670105,3.673742
2025-12-31T16:07:54.204271,11.270194,-7.609175,4.905286,-2.092823,1.756848,3.764150
2025-12-31T16:07:54.213271,11.672188,-10.327422,5.158925,-2.342056,1.966985,3.781255
2025-12-31T16:07:54.223271,11.820543,-13.016954,5.240281,-2.097710,2.307848,3.819128
2025-12-31T16:07:54.233271,11.375478,-15.491133,4.661218,-1.473406,2.671923,3.850893
2025-12-31T16:07:54.242271,10.437492,-16.505690,4.603790,-0.240680,3.017673,3.859445
2025-12-31T16:07:54.252271,9.006584,-14.768501,6.063412,1.196073,3.194824,3.728720
2025-12-31T16:07:54.262271,7.743173,-12.055040,7.269395,1.711644,3.084868,3.591886
2025-12-31T16:07:54.271271,6.900900,-10.676774,7.365107,1.583362,2.796540,3.569895
2025-12-31T16:07:54.281271,6.513263,-9.226723,7.609175,1.627344,2.498438,3.635869
2025-12-31T16:07:54.290271,6.388836,-7.676174,7.977670,1.433089,2.276083,3.781255
2025-12-31T16:07:54.300271,6.345765,-7.465606,7.561319,0.800233,2.169792,3.952297
2025-12-31T16:07:54.310271,6.068198,-8.274380,6.570690,0.304210,2.282192,4.103791
2025-12-31T16:07:54.319271,5.312066,-9.064012,5.694917,0.169820,2.543642,4.202751
2025-12-31T16:07:54.329271,4.130011,-9.925428,5.383850,0.131946,2.856405,4.172208
2025-12-31T16:07:54.338271,2.790031,-10.791629,5.536991,0.320093,3.122742,4.001166
2025-12-31T16:07:54.348271,1.225125,-10.748559,5.924628,0.836885,3.218037,3.794694
2025-12-31T16:07:54.358271,-0.172283,-9.973284,6.039484,1.389107,3.031112,3.630982
2025-12-31T16:07:54.367271,-1.081555,-9.322436,5.962913,1.726304,2.603507,3.501478
2025-12-31T16:07:54.377271,-1.435693,-9.360722,6.259623,1.858251,2.065945,3.359758
2025-12-31T16:07:54.387271,-1.153340,-10.145567,7.336394,1.908342,1.567479,3.150842
2025-12-31T16:07:54.396271,-0.454636,-10.710273,8.571090,2.196670,1.203404,2.844187
2025-12-31T16:07:54.406271,0.086141,-10.097711,9.159724,2.708575,1.010370,2.524094
2025-12-31T16:07:54.415271,0.119641,-8.063812,9.159724,3.048216,0.985936,2.228435
2025-12-31T16:07:54.425271,-0.392422,-5.881557,9.705288,2.918713,1.123991,1.892460
2025-12-31T16:07:54.435271,-1.387837,-4.326223,11.361121,2.195449,1.345124,1.525941
2025-12-31T16:07:54.444271,-2.689532,-3.589233,13.342378,1.055574,1.527162,1.123991
2025-12-31T16:07:54.454271,-4.134797,-3.613162,14.433505,-0.174707,1.503949,0.744033
2025-12-31T16:07:54.463271,-5.335994,-4.364508,13.581661,-1.420872,1.141096,0.492357
2025-12-31T16:07:54.473271,-5.958128,-6.245266,12.256037,-2.795318,0.491135,0.351858
2025-12-31T16:07:54.483271,-5.790630,-9.360722,11.605189,-4.020714,-0.235793,0.083077
2025-12-31T16:07:54.492271,-4.991427,-12.993026,11.696116,-4.770856,-0.851545,-0.359188
2025-12-31T16:07:54.502271,-3.589233,-16.821543,11.753544,-4.961446,-1.314581,-0.830776
2025-12-31T16:07:54.512271,-1.995614,-20.114065,11.609975,-4.648683,-1.635896,-1.253495
2025-12-31T16:07:54.521271,-0.354137,-22.272392,10.997412,-3.740937,-1.827708,-1.685987
2025-12-31T16:07:54.531271,1.134197,-22.894526,10.523633,-2.558303,-1.931555,-2.035402
2025-12-31T16:07:54.540271,2.402393,-22.583460,10.380064,-1.441641,-1.930333,-2.211331
2025-12-31T16:07:54.550271,3.172882,-21.387049,9.920642,-0.278554,-1.772730,-2.267531
2025-12-31T16:07:54.560271,3.196810,-19.310078,9.288937,0.819780,-1.540601,-2.249205
2025-12-31T16:07:54.569271,2.890529,-17.008183,8.757730,1.494176,-1.365894,-2.150245
2025-12-31T16:07:54.579271,2.488535,-15.309278,8.092526,1.868025,-1.269377,-2.034180
2025-12-31T16:07:54.588271,1.942971,-13.849657,7.733602,2.249205,-1.271821,-1.977981
2025-12-31T16:07:54.598271,1.445264,-12.323036,7.881957,2.522872,-1.354898,-2.018298
2025-12-31T16:07:54.608271,1.067198,-11.212766,8.006384,2.552194,-1.538158,-2.127032
2025-12-31T16:07:54.617271,1.000199,-9.887142,8.197810,2.552194,-1.830151,-2.251648
2025-12-31T16:07:54.627271,1.205982,-8.264809,8.389236,2.470338,-2.224770,-2.355495
2025-12-31T16:07:54.637271,1.799402,-6.886543,8.274380,2.075719,-2.625498,-2.432464
2025-12-31T16:07:54.646271,2.598605,-6.029912,7.805387,1.551597,-2.908939,-2.469116
2025-12-31T16:07:54.656271,3.321237,-5.178068,7.393821,1.064127,-3.055547,-2.452012
2025-12-31T16:07:54.665271,3.818944,-4.216153,6.302694,0.614530,-3.065321,-2.455677
2025-12-31T16:07:54.675271,3.876372,-3.330809,4.335794,0.227241,-2.960252,-2.487442
2025-12-31T16:07:54.685271,3.751945,-2.684746,3.273381,-0.219911,-2.825862,-2.511877
2025-12-31T16:07:54.694271,3.948157,-2.967100,4.244867,-0.959058,-2.687806,-2.566855
2025-12-31T16:07:54.704271,4.804787,-5.039284,7.207181,-2.078163,-2.597398,-2.682919
2025-12-31T16:07:54.713271,5.455635,-6.786044,10.375278,-2.623054,-2.434908,-2.918713
2025-12-31T16:07:54.723271,4.110869,-7.121040,10.423135,-1.868025,-2.105041,-3.665190
2025-12-31T16:07:54.733271,6.585047,-7.379464,4.307080,-2.539977,-2.736675,-3.060434
2025-12-31T16:07:54.742271,6.479763,-11.279765,2.593819,-2.442238,-2.409251,-2.307848
2025-12-31T16:07:54.752271,5.603990,-9.853643,6.427121,-0.704938,-2.062280,-2.989573
2025-12-31T16:07:54.762271,5.594419,-4.833501,5.766702,0.111177,-1.808160,-3.729942
2025-12-31T16:07:54.771271,4.402793,-2.139183,2.407179,-0.339641,-1.737300,-3.649308
2025-12-31T16:07:54.781271,4.182653,-0.937986,0.780060,-1.104444,-2.079384,-3.306001
2025-12-31T16:07:54.790271,4.651647,-0.760917,1.933400,-2.280970,-2.508212,-3.375640
2025-12-31T16:07:54.800271,7.001398,-2.833101,3.072384,-3.872884,-3.161837,-3.761707
2025-12-31T16:07:54.810271,9.934999,-7.073183,3.062812,-4.730539,-3.606547,-3.991392
2025-12-31T16:07:54.819271,12.466605,-11.313265,3.048455,-4.278499,-3.766594,-4.097683
2025-12-31T16:07:54.829271,14.471791,-14.189438,1.359123,-2.877174,-3.412292,-4.395785
2025-12-31T16:07:54.838271,15.352349,-15.050854,0.368494,-0.675616,-2.583959,-4.706104
2025-12-31T16:07:54.848271,14.888142,-12.887742,0.579063,1.618792,-1.601688,-4.605922
2025-12-31T16:07:54.858271,13.107882,-9.183653,1.052841,3.144733,-0.709825,-4.234516
2025-12-31T16:07:54.867271,10.480562,-5.417350,1.383051,3.673742,-0.239459,-3.969401
2025-12-31T16:07:54.877271,8.116454,-2.153540,2.277967,3.369531,-0.300545,-3.860667
2025-12-31T16:07:54.887271,6.690331,0.244067,4.163511,2.364047,-0.753807,-3.731164
2025-12-31T16:07:54.896271,5.747559,1.966900,5.149354,1.141096,-1.378111,-3.596773
2025-12-31T16:07:54.906271,5.465206,3.096312,4.350151,0.131946,-2.085493,-3.510030
2025-12-31T16:07:54.915271,6.029912,3.881158,2.067398,-0.917519,-2.847853,-3.161837
2025-12-31T16:07:54.925271,7.345965,2.770888,2.469392,-2.158797,-3.409849,-2.634050
2025-12-31T16:07:54.935271,9.494720,0.598205,2.967100,-3.253467,-3.654195,-2.516764
2025-12-31T16:07:54.944271,11.653046,-1.919043,2.713460,-3.635869,-3.359758,-2.630385
2025-12-31T16:07:54.954271,12.528819,-4.096512,0.674775,-3.513696,-2.613280,-2.430021
2025-12-31T16:07:54.963271,12.366107,-6.216553,-0.598205,-3.089755,-1.558927,-2.064724
2025-12-31T16:07:54.973271,11.093125,-7.704888,-0.363709,-2.346943,-0.400727,-1.788613
2025-12-31T16:07:54.983271,8.738588,-7.819744,0.435493,-1.299920,0.559552,-1.517388
2025-12-31T16:07:54.992271,5.737988,-6.604190,1.464407,-0.329867,1.093448,-1.225395
2025-12-31T16:07:55.002271,2.967100,-4.991427,2.196611,0.294436,1.130100,-1.070235
2025-12-31T16:07:55.012271,1.004985,-3.436093,2.579462,0.702494,0.816115,-1.025031
2025-12-31T16:07:55.021271,-0.143569,-1.804188,2.842673,0.886976,0.280997,-0.938288
2025-12-31T16:07:55.031271,-0.607776,-0.023928,2.474178,0.742811,-0.355523,-0.792902
2025-12-31T16:07:55.040271,0.076570,0.698704,2.880958,0.228463,-0.973718,-0.616973
2025-12-31T16:07:55.050271,1.354337,0.473778,3.335594,-0.306654,-1.386663,-0.382401
2025-12-31T16:07:55.060271,3.828516,1.081555,4.034298,-0.489913,-1.497841,-0.267558
2025-12-31T16:07:55.069271,4.287938,0.622133,2.029113,-1.193630,-0.794124,-0.064751
2025-12-31T16:07:55.079271,4.144368,-2.474178,0.583848,-1.754404,-0.467922,-0.097738
2025-12-31T16:07:55.088271,3.900300,-4.584648,0.626919,-1.346346,-0.123394,-0.101403
2025-12-31T16:07:55.098271,3.168097,-4.881358,1.201196,-0.660956,0.268780,0.023212
2025-12-31T16:07:55.108271,2.191825,-5.259424,1.402194,-0.285884,0.608421,0.046425
2025-12-31T16:07:55.117271,1.655833,-5.211567,1.636690,0.256563,0.789237,0.046425
2025-12-31T16:07:55.127271,0.952343,-3.852444,1.909472,0.863763,0.806341,0.062308
2025-12-31T16:07:55.137271,0.741775,-2.665604,2.024327,1.007927,0.547335,0.010995
2025-12-31T16:07:55.146271,1.320838,-2.522035,2.158325,0.878424,0.164933,-0.015882
2025-12-31T16:07:55.156271,2.268395,-2.589034,2.364108,0.852767,-0.216246,-0.013439
2025-12-31T16:07:55.165271,3.632304,-2.603390,2.340180,0.823446,-0.524122,-0.053756
2025-12-31T16:07:55.175271,5.163711,-2.876172,1.722832,0.700051,-0.715933,-0.157603
2025-12-31T16:07:55.185271,6.848258,-3.311666,1.186840,0.658512,-0.768468,-0.280997
2025-12-31T16:07:55.194271,8.422735,-3.460021,1.392622,0.704938,-0.701273,-0.381179
2025-12-31T16:07:55.204271,9.772287,-3.493520,1.593619,0.697607,-0.596204,-0.504574
2025-12-31T16:07:55.213271,10.853843,-3.550948,1.272981,0.624304,-0.467922,-0.627969
2025-12-31T16:07:55.223271,11.801401,-3.469592,1.234696,0.542448,-0.338419,-0.703716
2025-12-31T16:07:55.233271,12.471391,-3.182454,1.335195,0.425162,-0.222354,-0.729372
2025-12-31T16:07:55.242271,12.844671,-3.038884,1.225125,0.285884,-0.113620,-0.718377
2025-12-31T16:07:55.252271,12.844671,-2.766102,1.383051,0.152716,0.034208,-0.630412
2025-12-31T16:07:55.262271,12.504890,-2.656033,1.469193,0.018325,0.243124,-0.491135
2025-12-31T16:07:55.271271,11.566904,-2.665604,1.674975,-0.076969,0.520457,-0.323758
2025-12-31T16:07:55.281271,10.351350,-2.799602,1.727617,-0.101403,0.788015,-0.120951
2025-12-31T16:07:55.290271,8.953942,-2.976671,1.880758,-0.031764,0.976162,0.072082
2025-12-31T16:07:55.300271,7.862815,-3.058027,1.722832,0.092851,1.051909,0.251676
2025-12-31T16:07:55.310271,6.948756,-3.177668,1.670190,0.234572,0.989601,0.417831
2025-12-31T16:07:55.319271,6.604190,-3.244667,1.698904,0.365297,0.773355,0.546113
2025-12-31T16:07:55.329271,6.857829,-3.263810,1.780260,0.477696,0.428827,0.643851
2025-12-31T16:07:55.338271,7.666603,-3.134597,1.732403,0.605978,0.042760,0.724486
2025-12-31T16:07:55.348271,8.700302,-2.790031,1.339980,0.720820,-0.215024,0.797789
2025-12-31T16:07:55.358271,9.958927,-2.134397,0.708275,0.766024,-0.245567,0.872315
2025-12-31T16:07:55.367271,10.925627,-1.627119,0.827916,0.670729,-0.012217,0.968832
2025-12-31T16:07:55.377271,11.203195,-1.316052,1.138983,0.502131,0.334754,1.015257
2025-12-31T16:07:55.387271,10.777272,-1.043270,0.856630,0.289550,0.684168,1.047022
2025-12-31T16:07:55.396271,9.906285,-1.048056,0.851844,0.024434,0.929736,1.056796
2025-12-31T16:07:55.406271,8.925228,-1.325623,1.196411,-0.255341,1.015257,1.010370
2025-12-31T16:07:55.415271,8.126025,-1.737189,1.186840,-0.482583,0.923628,0.937067
2025-12-31T16:07:55.425271,7.633104,-2.177468,1.110269,-0.648738,0.704938,0.868650
2025-12-31T16:07:55.435271,7.451249,-2.636890,0.957129,-0.752585,0.441044,0.802676
2025-12-31T16:07:55.444271,7.532605,-3.110669,0.928415,-0.762359,0.215024,0.731816
2025-12-31T16:07:55.454271,7.757530,-3.402593,0.928415,-0.660956,0.097738,0.679282
2025-12-31T16:07:55.463271,7.834101,-3.450450,0.847059,-0.481361,0.127059,0.657290
2025-12-31T16:07:55.473271,7.642675,-3.378665,0.717846,-0.257785,0.282219,0.660956
2025-12-31T16:07:55.483271,7.020541,-3.168097,0.693918,-0.037873,0.504574,0.691499
2025-12-31T16:07:55.492271,6.139982,-2.804388,0.631705,0.172263,0.720820,0.757472
2025-12-31T16:07:55.502271,5.158925,-2.397608,0.679561,0.373849,0.905302,0.839328
2025-12-31T16:07:55.512271,4.225724,-2.038684,1.081555,0.543669,1.044579,0.950506
2025-12-31T16:07:55.521271,3.373879,-1.627119,1.569691,0.675616,1.115439,1.077566
2025-12-31T16:07:55.531271,2.646461,-1.282552,1.612762,0.767246,1.102000,1.202182
2025-12-31T16:07:55.540271,2.215753,-0.746560,1.306481,0.801455,1.010370,1.336572
2025-12-31T16:07:55.550271,2.057827,-0.358923,1.507478,0.717155,0.856432,1.486845
2025-12-31T16:07:55.560271,2.340180,-0.301495,1.837687,0.527787,0.635299,1.639561
2025-12-31T16:07:55.569271,3.062812,-0.622133,1.808973,0.315206,0.422718,1.754404
2025-12-31T16:07:55.579271,4.043870,-1.182054,1.517049,0.102625,0.265115,1.857029
2025-12-31T16:07:55.588271,5.106283,-1.909472,1.636690,-0.059864,0.166155,1.990198
2025-12-31T16:07:55.598271,6.116054,-2.574677,1.861615,-0.085521,0.141720,2.100154
2025-12-31T16:07:55.608271,7.144968,-2.967100,1.603191,0.012217,0.241902,2.166127
2025-12-31T16:07:55.617271,7.838886,-3.206382,1.167697,0.183259,0.459370,2.252870
2025-12-31T16:07:55.627271,8.432306,-3.349951,1.282552,0.279776,0.703716,2.421469
2025-12-31T16:07:55.637271,8.805587,-3.603590,1.761117,0.291993,0.907745,2.625498
2025-12-31T16:07:55.646271,9.078368,-3.885943,1.942971,0.250454,1.064127,2.802649
2025-12-31T16:07:55.656271,9.131011,-4.421936,1.564905,0.216246,1.218065,2.957808
2025-12-31T16:07:55.665271,9.336793,-4.948357,1.406979,0.276111,1.341459,3.106859
2025-12-31T16:07:55.675271,9.489934,-5.513063,2.234896,0.416610,1.455080,3.255911
2025-12-31T16:07:55.685271,9.552147,-6.039484,2.857030,0.693942,1.601688,3.367088
2025-12-31T16:07:55.694271,9.303294,-5.795416,2.670390,1.147204,1.810604,3.431840
2025-12-31T16:07:55.704271,8.705088,-4.680361,2.210968,1.593136,2.023185,3.464826
2025-12-31T16:07:55.713271,8.011170,-3.369094,2.024327,1.759291,2.183231,3.477044
2025-12-31T16:07:55.723271,7.537391,-2.502892,2.397608,1.645670,2.260200,3.468492
2025-12-31T16:07:55.733271,7.058826,-1.914258,2.689532,1.434311,2.296852,3.461161
2025-12-31T16:07:55.742271,6.719045,-1.502692,2.670390,1.185078,2.298074,3.456274
2025-12-31T16:07:55.752271,6.398407,-1.564905,2.469392,0.858876,2.258979,3.466048
2025-12-31T16:07:55.762271,6.427121,-2.120040,2.703889,0.519235,2.200336,3.525913
2025-12-31T16:07:55.771271,6.604190,-3.177668,3.407379,0.226020,2.168571,3.602882
2025-12-31T16:07:55.781271,6.891329,-4.536791,4.163511,0.026878,2.186897,3.651751
2025-12-31T16:07:55.790271,7.034898,-5.910271,4.000799,-0.014660,2.249205,3.650529
2025-12-31T16:07:55.800271,6.963113,-7.001398,3.617947,0.213802,2.300518,3.562565
2025-12-31T16:07:55.810271,6.910471,-7.781459,4.182653,0.560774,2.344500,3.408627
2025-12-31T16:07:55.819271,6.982256,-8.441878,5.024927,0.979827,2.400699,3.202154
2025-12-31T16:07:55.829271,7.034898,-8.532805,6.206981,1.428202,2.428799,3.081203
2025-12-31T16:07:55.838271,6.891329,-8.188238,6.733402,1.699426,2.384817,3.055547
2025-12-31T16:07:55.848271,6.565905,-7.848458,6.853043,1.841147,2.430021,2.945591
2025-12-31T16:07:55.858271,6.230910,-6.920042,7.618747,1.893681,2.526538,2.862513
2025-12-31T16:07:55.867271,6.068198,-6.135197,8.729016,1.535714,2.621833,2.802649
2025-12-31T16:07:55.877271,5.627918,-6.139982,8.647660,1.028696,2.729345,2.833192
2025-12-31T16:07:55.887271,5.034498,-6.455835,7.590033,0.693942,2.833192,2.988352
2025-12-31T16:07:55.896271,3.991228,-6.704688,6.632904,0.409279,2.989573,3.122742
2025-12-31T16:07:55.906271,2.732603,-7.269395,6.183053,0.045204,3.176498,3.121520
2025-12-31T16:07:55.915271,1.359123,-7.996813,6.163911,-0.175929,3.307223,2.987130
2025-12-31T16:07:55.925271,-0.191425,-8.092526,6.589833,0.084299,3.307223,2.814866
2025-12-31T16:07:55.935271,-1.718046,-7.274180,7.211967,0.398284,3.071429,2.761110
2025-12-31T16:07:55.944271,-2.895315,-6.484549,7.795816,0.370184,2.616946,2.796540
2025-12-31T16:07:55.954271,-3.321237,-5.848058,8.135596,0.161268,2.074497,2.781879
2025-12-31T16:07:55.963271,-3.316452,-5.288137,8.015955,-0.160046,1.578475,2.759888
2025-12-31T16:07:55.973271,-3.014956,-5.182853,7.264609,-0.715933,1.207069,2.783101
2025-12-31T16:07:55.983271,-2.852244,-5.852844,6.331408,-1.326799,1.018923,2.769662
2025-12-31T16:07:55.992271,-2.900100,-7.168896,6.044269,-1.882686,0.989601,2.660928
2025-12-31T16:07:56.002271,-3.397808,-8.973084,6.479763,-2.335948,1.053131,2.450790
2025-12-31T16:07:56.012271,-3.938585,-11.121839,7.642675,-2.378708,1.165530,2.141693
2025-12-31T16:07:56.021271,-4.618147,-12.988241,9.159724,-2.107484,1.219286,1.886351
2025-12-31T16:07:56.031271,-5.278566,-14.457434,10.054640,-1.712865,1.149648,1.727526
2025-12-31T16:07:56.040271,-5.513063,-15.299707,10.293922,-1.141096,0.984714,1.522275
2025-12-31T16:07:56.050271,-5.417350,-15.299707,10.547562,-0.605978,0.796568,1.249830
2025-12-31T16:07:56.060271,-5.072783,-14.912070,10.638489,-0.201585,0.668286,0.970053
2025-12-31T16:07:56.069271,-4.785645,-13.902299,10.327422,0.083077,0.648738,0.709825
2025-12-31T16:07:56.079271,-4.890929,-12.691531,9.844072,0.080634,0.762359,0.436157
2025-12-31T16:07:56.088271,-5.446064,-11.801401,9.494720,-0.299323,0.967610,0.096516
2025-12-31T16:07:56.098271,-6.565905,-11.633903,9.312865,-0.906523,1.181413,-0.312762
2025-12-31T16:07:56.108271,-7.968099,-12.423534,9.643075,-1.678657,1.324355,-0.742811
2025-12-31T16:07:56.117271,-9.451649,-14.227723,10.528419,-2.515542,1.244943,-1.183856
2025-12-31T16:07:56.127271,-10.135996,-16.898113,11.164910,-3.139846,0.860098,-1.667661
2025-12-31T16:07:56.137271,-9.801001,-19.554146,10.992627,-3.323106,0.168598,-2.120923
2025-12-31T16:07:56.146271,-8.130811,-21.477976,10.494919,-2.972469,-0.641408,-2.511877
2025-12-31T16:07:56.156271,-5.565705,-21.860826,9.896714,-2.095267,-1.350011,-2.855183
2025-12-31T16:07:56.165271,-2.919243,-20.496918,9.351150,-0.961501,-1.791056,-3.103194
2025-12-31T16:07:56.175271,-0.732203,-17.960526,8.920442,-0.043982,-1.940107,-3.170389
2025-12-31T16:07:56.185271,0.794417,-16.041483,9.001798,-0.013439,-1.874134,-3.015230
2025-12-31T16:07:56.194271,1.981257,-15.873985,9.202795,-0.660956,-1.739743,-2.736675
2025-12-31T16:07:56.204271,2.837887,-16.788042,8.681160,-0.973718,-1.517388,-2.486221
2025-12-31T16:07:56.213271,3.086741,-17.745173,7.633104,-0.937067,-1.207069,-2.243096
2025-12-31T16:07:56.223271,2.842673,-19.008581,6.943971,-0.664621,-0.851545,-2.087936
2025-12-31T16:07:56.233271,2.206182,-19.903498,6.695117,0.166155,-0.496022,-2.046398
2025-12-31T16:07:56.242271,1.191625,-18.659229,6.494120,1.567479,-0.226020,-2.083050
2025-12-31T16:07:56.252271,-0.258424,-15.342778,5.575276,2.863735,-0.120951,-2.229657
2025-12-31T16:07:56.262271,-1.445264,-11.308479,4.943571,3.648086,-0.252898,-2.406808
2025-12-31T16:07:56.271271,-2.177468,-7.350751,4.852644,3.827680,-0.560774,-2.539977
2025-12-31T16:07:56.281271,-2.603390,-4.086941,4.570291,3.433061,-1.011592,-2.651154
2025-12-31T16:07:56.290271,-2.512463,-0.626919,2.976671,2.515542,-1.560149,-2.730567
2025-12-31T16:07:56.300271,-1.703689,0.421136,3.565305,1.093448,-2.117258,-2.755001
2025-12-31T16:07:56.310271,-0.229710,-0.028713,3.814159,-0.348193,-2.679254,-2.855183
2025-12-31T16:07:56.319271,1.722832,-2.048256,4.053441,-1.511280,-3.054325,-3.016451
2025-12-31T16:07:56.329271,3.129811,-4.565505,3.469592,-2.073276,-3.149620,-3.274236
2025-12-31T16:07:56.338271,4.996213,-7.183253,3.316452,-2.177123,-2.993239,-3.577226
2025-12-31T16:07:56.348271,6.398407,-9.786644,2.761317,-1.883908,-2.524094,-3.798359
2025-12-31T16:07:56.358271,7.216752,-10.825129,2.354537,-1.095892,-1.975537,-3.986505
2025-12-31T16:07:56.367271,7.379464,-10.112068,1.770688,-0.406836,-1.527162,-4.025601
2025-12-31T16:07:56.377271,7.183253,-8.413164,1.507478,-0.140498,-1.321912,-3.893654
2025-12-31T16:07:56.387271,7.020541,-6.183053,1.258624,-0.199142,-1.286481,-3.732385
2025-12-31T16:07:56.396271,6.781259,-4.331008,1.770688,-0.635299,-1.324355,-3.695733
2025-12-31T16:07:56.406271,6.819544,-3.661018,1.785045,-1.329242,-1.461189,-3.791028
2025-12-31T16:07:56.415271,7.087540,-4.292723,1.339980,-1.997528,-1.562592,-3.900984
2025-12-31T16:07:56.425271,7.542176,-5.809773,1.043270,-2.412917,-1.591914,-4.062252
2025-12-31T16:07:56.435271,8.245666,-7.657032,1.119840,-2.361604,-1.535714,-4.307820
2025-12-31T16:07:56.444271,8.949156,-8.791230,1.383051,-1.837482,-1.379333,-4.528953
2025-12-31T16:07:56.454271,9.207581,-8.547162,1.478764,-0.922406,-1.144761,-4.731761
2025-12-31T16:07:56.463271,9.198010,-6.508477,1.263410,0.023212,-0.907745,-4.901581
2025-12-31T16:07:56.473271,8.867800,-3.766302,0.957129,0.565661,-0.783129,-5.045745
2025-12-31T16:07:56.483271,8.642875,-1.421336,0.918843,0.470366,-0.858876,-5.141040
2025-12-31T16:07:56.492271,8.575876,0.358923,0.794417,-0.136833,-1.155756,-5.198461
2025-12-31T16:07:56.502271,9.111868,1.531406,1.526620,-1.047022,-1.629788,-5.242444
2025-12-31T16:07:56.512271,10.241280,1.871187,1.588834,-2.092823,-2.156353,-5.250996
2025-12-31T16:07:56.521271,11.882757,1.253839,0.574277,-3.020117,-2.513099,-5.230227
2025-12-31T16:07:56.531271,13.557732,0.081355,-0.492921,-3.704286,-2.572963,-5.216788
2025-12-31T16:07:56.540271,15.031711,-1.531406,-0.832702,-4.161213,-2.324952,-5.186245
2025-12-31T16:07:56.550271,15.692130,-3.273381,-1.081555,-4.320038,-1.870468,-5.089728
2025-12-31T16:07:56.560271,15.448062,-4.862215,-1.272981,-4.091574,-1.303586,-4.928459
2025-12-31T16:07:56.569271,14.471791,-5.819344,-0.966700,-3.615099,-0.729372,-4.735426
2025-12-31T16:07:56.579271,12.897313,-6.345765,-0.593420,-3.097086,-0.246789,-4.524067
2025-12-31T16:07:56.588271,11.073982,-6.551548,-0.555134,-2.522872,0.089186,-4.306599
2025-12-31T16:07:56.598271,9.241080,-6.527620,-0.052642,-1.866803,0.259006,-4.089131
2025-12-31T16:07:56.608271,7.594818,-6.369693,0.631705,-1.265712,0.252898,-3.880215
2025-12-31T16:07:56.617271,6.407978,-6.297909,0.880558,-0.752585,0.103847,-3.667634
2025-12-31T16:07:56.627271,5.680560,-6.422335,1.033699,-0.235793,-0.133168,-3.420844
2025-12-31T16:07:56.637271,5.532205,-6.561119,1.292124,0.285884,-0.410501,-3.126407
2025-12-31T16:07:56.646271,5.790630,-6.723831,1.493121,0.770911,-0.649960,-2.822196
2025-12-31T16:07:56.656271,7.853243,-4.034298,2.120040,1.596801,-0.597426,-2.236988
2025-12-31T16:07:56.665271,6.848258,-1.995614,4.230510,1.419650,-0.124616,-1.690874
2025-12-31T16:07:56.675271,5.819344,-7.111468,0.770488,-0.136833,-0.091629,-1.918116
2025-12-31T16:07:56.685271,6.149554,-10.174281,-1.555334,1.336572,-0.116064,-1.673770
2025-12-31T16:07:56.694271,5.431707,-3.766302,2.258824,3.793472,0.487470,-0.856432
2025-12-31T16:07:56.704271,4.287938,0.622133,3.622733,2.888170,0.890641,-0.706160
2025-12-31T16:07:56.713271,2.981456,-3.220739,1.450050,1.049466,1.021366,-0.616973
2025-12-31T16:07:56.723271,1.277767,-6.479763,-0.914058,1.457524,0.599869,-0.494800
2025-12-31T16:07:56.733271,1.225125,-3.005385,2.177468,2.989573,0.195476,-0.194255
2025-12-31T16:07:56.742271,0.914058,0.186640,3.546163,2.596176,-0.017104,0.014660
2025-12-31T16:07:56.752271,1.804188,-0.086141,1.986042,1.511280,-0.305432,0.054977
2025-12-31T16:07:56.762271,2.699103,0.267996,1.866401,1.191186,-0.437379,0.241902
2025-12-31T16:07:56.771271,3.555734,1.105484,2.813959,0.668286,-0.533896,0.416610
2025-12-31T16:07:56.781271,4.589433,0.033499,2.636890,-0.243124,-0.537561,0.411723
2025-12-31T16:07:56.790271,5.560919,-1.502692,2.411965,-0.632856,-0.349414,0.415388
2025-12-31T16:07:56.800271,6.005984,-1.933400,2.431107,-0.664621,-0.070860,0.456927
2025-12-31T16:07:56.810271,6.273980,-2.522035,1.962114,-0.774576,0.120951,0.409279
2025-12-31T16:07:56.819271,6.479763,-3.287738,1.569691,-0.729372,0.216246,0.307876
2025-12-31T16:07:56.829271,6.762116,-3.373879,1.607976,-0.491135,0.234572,0.230907
2025-12-31T16:07:56.838271,7.173682,-3.062812,1.574477,-0.375071,0.119729,0.131946
2025-12-31T16:07:56.848271,7.977670,-3.067598,1.316052,-0.430049,-0.111177,0.001221
2025-12-31T16:07:56.858271,9.312865,-3.172882,0.918843,-0.516791,-0.366519,-0.084299
2025-12-31T16:07:56.867271,10.671988,-3.326023,0.435493,-0.555887,-0.538783,-0.114842
2025-12-31T16:07:56.877271,11.887542,-3.431307,0.038285,-0.533896,-0.519235,-0.107512
2025-12-31T16:07:56.887271,12.610175,-3.560520,-0.172283,-0.431270,-0.287106,-0.046425
2025-12-31T16:07:56.896271,12.442677,-3.728017,0.105284,-0.211359,0.103847,0.064751
2025-12-31T16:07:56.906271,11.452048,-3.661018,0.641276,0.128281,0.527787,0.199142
2025-12-31T16:07:56.915271,9.982855,-3.388236,1.316052,0.538783,0.852767,0.334754
2025-12-31T16:07:56.925271,8.504091,-3.024527,1.966900,0.839328,0.963945,0.470366
2025-12-31T16:07:56.935271,7.379464,-2.622533,2.287538,1.010370,0.873537,0.629191
2025-12-31T16:07:56.944271,6.809973,-2.287538,2.105683,1.106887,0.675616,0.789237
2025-12-31T16:07:56.954271,6.833901,-1.942971,1.995614,1.121548,0.460592,0.939510
2025-12-31T16:07:56.963271,7.231109,-1.622333,1.741974,1.058018,0.279776,1.072679
2025-12-31T16:07:56.973271,7.872386,-1.177268,1.464407,0.946840,0.146607,1.181413
2025-12-31T16:07:56.983271,8.695517,-0.827916,1.335195,0.750142,0.064751,1.269377
2025-12-31T16:07:56.992271,9.600004,-0.760917,1.330409,0.460592,0.006108,1.353677
2025-12-31T16:07:57.002271,10.561918,-0.990628,1.363908,0.151494,-0.054977,1.424537
2025-12-31T16:07:57.012271,11.408978,-1.402194,1.129412,-0.101403,-0.081855,1.490510
2025-12-31T16:07:57.021271,11.925827,-1.804188,0.823130,-0.262671,-0.043982,1.541823
2025-12-31T16:07:57.031271,12.093325,-2.321037,0.559920,-0.342084,0.052534,1.563814
2025-12-31T16:07:57.040271,11.949756,-2.794816,0.349352,-0.305432,0.226020,1.532049
2025-12-31T16:07:57.050271,11.255837,-3.048455,0.153140,-0.129503,0.466700,1.469741
2025-12-31T16:07:57.060271,10.155139,-3.115455,0.177068,0.091629,0.711046,1.393994
2025-12-31T16:07:57.069271,8.953942,-3.067598,0.210568,0.261450,0.841772,1.298699
2025-12-31T16:07:57.079271,7.891528,-3.038884,0.363709,0.416610,0.813672,1.203404
2025-12-31T16:07:57.088271,7.092326,-2.890529,0.607776,0.588873,0.658512,1.131322
2025-12-31T16:07:57.098271,6.537191,-2.641676,0.732203,0.752585,0.467922,1.078787
2025-12-31T16:07:57.108271,6.259623,-2.407179,0.646062,0.886976,0.294436,1.050687
2025-12-31T16:07:57.117271,6.111268,-2.153540,0.612562,1.018923,0.168598,1.051909
2025-12-31T16:07:57.127271,6.106483,-2.033899,0.488135,1.145982,0.119729,1.075122
2025-12-31T16:07:57.137271,6.015556,-1.866401,0.449850,1.241277,0.161268,1.136209
2025-12-31T16:07:57.146271,5.895914,-1.861615,0.660419,1.328020,0.301767,1.246164
2025-12-31T16:07:57.156271,5.608776,-1.962114,1.622333,1.406211,0.491135,1.391550
2025-12-31T16:07:57.165271,5.369493,-1.976471,2.096112,1.418428,0.658512,1.582140
2025-12-31T16:07:57.175271,5.053641,-1.804188,1.909472,1.401324,0.780685,1.826486
2025-12-31T16:07:57.185271,4.685146,-1.368694,1.617548,1.364672,0.838106,2.097710
2025-12-31T16:07:57.194271,4.527220,-1.004985,1.789831,1.253495,0.829554,2.340835
2025-12-31T16:07:57.204271,4.532006,-0.870987,1.942971,1.073900,0.785572,2.564411
2025-12-31T16:07:57.213271,4.685146,-0.899701,1.899901,0.905302,0.744033,2.779436
2025-12-31T16:07:57.223271,4.914857,-0.990628,1.765903,0.709825,0.725707,2.984686
2025-12-31T16:07:57.233271,5.134997,-1.397408,1.622333,0.510683,0.748920,3.143511
2025-12-31T16:07:57.242271,5.359922,-1.856830,1.239482,0.441044,0.821002,3.253467
2025-12-31T16:07:57.252271,5.527420,-2.120040,1.048056,0.475253,0.923628,3.340210
2025-12-31T16:07:57.262271,5.580062,-2.234896,0.732203,0.511904,1.011592,3.411070
2025-12-31T16:07:57.271271,5.503491,-2.292324,0.459421,0.596204,1.098335,3.462383
2025-12-31T16:07:57.281271,5.383850,-2.167897,0.435493,0.695164,1.174082,3.473379
2025-12-31T16:07:57.290271,5.201996,-2.081755,0.220139,0.763581,1.242499,3.453831
2025-12-31T16:07:57.300271,5.077569,-2.091326,-0.057427,0.846659,1.277929,3.425731
2025-12-31T16:07:57.310271,5.005784,-2.206182,0.205782,0.896749,1.257160,3.395188
2025-12-31T16:07:57.319271,5.192425,-2.431107,0.832702,0.871093,1.172861,3.368310
2025-12-31T16:07:57.329271,5.508277,-2.493321,1.234696,0.891863,1.081231,3.379305
2025-12-31T16:07:57.338271,5.795416,-2.110469,1.339980,1.012814,1.029918,3.413514
2025-12-31T16:07:57.348271,5.972485,-1.665404,1.373480,1.064127,1.021366,3.414735
2025-12-31T16:07:57.358271,6.111268,-1.450050,1.234696,0.981049,1.065348,3.359758
2025-12-31T16:07:57.367271,6.269195,-1.579262,1.708475,0.856432,1.139874,3.279123
2025-12-31T16:07:57.377271,6.479763,-1.966900,2.325823,0.630412,1.175304,3.200933
2025-12-31T16:07:57.387271,6.934399,-2.857030,2.531606,0.316428,1.123991,3.142290
2025-12-31T16:07:57.396271,7.580461,-4.149154,2.737389,0.054977,0.988379,3.109303
2025-12-31T16:07:57.406271,8.508877,-5.613561,3.565305,-0.012217,0.894306,3.138624
2025-12-31T16:07:57.415271,9.619146,-6.824330,4.168296,0.108733,0.893084,3.194824
2025-12-31T16:07:57.425271,10.442277,-8.025527,4.345365,0.211359,1.047022,3.284010
2025-12-31T16:07:57.435271,11.006983,-9.178867,4.565505,0.256563,1.280373,3.375640
2025-12-31T16:07:57.444271,11.413763,-10.016355,5.264209,0.392175,1.554040,3.437948
2025-12-31T16:07:57.454271,11.408978,-10.198209,6.384050,0.591317,1.863138,3.479487
2025-12-31T16:07:57.463271,10.791629,-9.695717,6.905686,0.769690,2.204001,3.514917
2025-12-31T16:07:57.473271,9.528219,-8.829515,6.628118,0.806341,2.484999,3.561343
2025-12-31T16:07:57.483271,8.078169,-8.800801,6.025127,0.610865,2.686584,3.572339
2025-12-31T16:07:57.492271,6.766902,-8.700302,5.824130,0.610865,2.819753,3.545461
2025-12-31T16:07:57.502271,5.642275,-8.245666,5.919843,0.472809,2.823418,3.508809
2025-12-31T16:07:57.512271,4.618147,-8.796015,5.096712,0.152716,2.752558,3.556456
2025-12-31T16:07:57.521271,3.608376,-9.485148,5.024927,0.068416,2.651154,3.628538
2025-12-31T16:07:57.531271,2.766102,-10.116853,6.288337,-0.184481,2.535090,3.622430
2025-12-31T16:07:57.540271,2.206182,-11.298908,7.542176,-0.499687,2.389704,3.490483
2025-12-31T16:07:57.550271,1.651047,-11.858828,7.886743,-0.375071,2.206444,3.359758
2025-12-31T16:07:57.560271,0.823130,-11.126625,7.092326,0.031764,1.977981,3.304780
2025-12-31T16:07:57.569271,0.028713,-10.140782,6.087340,0.280997,1.753182,3.221702
2025-12-31T16:07:57.579271,-0.622133,-9.762716,5.757131,0.307876,1.594357,3.038443
2025-12-31T16:07:57.588271,-0.957129,-9.810572,6.139982,0.291993,1.481958,2.809979
2025-12-31T16:07:57.598271,-1.062413,-9.934999,6.302694,0.372627,1.357342,2.603507
2025-12-31T16:07:57.608271,-1.191625,-10.107282,6.130411,0.390953,1.181413,2.464229
2025-12-31T16:07:57.617271,-1.349551,-10.523633,5.819344,0.360410,1.012814,2.317622
2025-12-31T16:07:57.627271,-1.631905,-11.112268,5.958128,0.340862,0.952949,2.135584
2025-12-31T16:07:57.637271,-2.143969,-11.303693,6.714260,0.304210,1.043357,1.929112
2025-12-31T16:07:57.646271,-3.058027,-11.064411,7.427321,0.243124,1.219286,1.722639
2025-12-31T16:07:57.656271,-4.197010,-10.490134,8.030312,0.092851,1.326799,1.522275
2025-12-31T16:07:57.665271,-5.187639,-10.040283,8.666803,-0.373849,1.238834,1.340238
2025-12-31T16:07:57.675271,-5.804987,-10.786844,9.226723,-1.178969,0.932180,1.197295
2025-12-31T16:07:57.685271,-5.714060,-12.614960,9.327222,-1.963320,0.558330,1.076344
2025-12-31T16:07:57.694271,-5.407779,-15.232708,8.724231,-2.484999,0.270002,0.933401
2025-12-31T16:07:57.704271,-4.948357,-18.223736,7.719245,-2.653598,0.188146,0.734259
2025-12-31T16:07:57.713271,-4.804787,-20.803200,6.910471,-2.400699,0.348193,0.426383
2025-12-31T16:07:57.723271,-5.096712,-22.253250,6.814758,-1.679879,0.636521,-0.026878
2025-12-31T16:07:57.733271,-5.919843,-21.659830,7.192824,-0.729372,0.866206,-0.533896
2025-12-31T16:07:57.742271,-6.719045,-19.487146,8.078169,-0.179594,0.875980,-1.021366
2025-12-31T16:07:57.752271,-7.341179,-17.190037,8.920442,-0.346971,0.624304,-1.511280
2025-12-31T16:07:57.762271,-7.278966,-15.902698,9.236295,-1.130100,0.113620,-1.927890
2025-12-31T16:07:57.771271,-5.953342,-16.170694,8.748159,-1.979202,-0.565661,-2.222327
2025-12-31T16:07:57.781271,-3.732803,-17.190037,8.231309,-2.516764,-1.221730,-2.398256
2025-12-31T16:07:57.790271,-1.067198,-18.707087,7.724031,-2.616946,-1.698205,-2.527759
2025-12-31T16:07:57.800271,1.574477,-20.147566,6.661618,-2.061058,-1.957211,-2.651154
2025-12-31T16:07:57.810271,3.742374,-20.487347,5.446064,-0.912632,-1.951103,-2.755001
2025-12-31T16:07:57.819271,5.197210,-19.520645,4.488935,0.416610,-1.689652,-2.849074
2025-12-31T16:07:57.829271,5.632704,-17.510675,4.063012,1.744630,-1.242499,-2.973691
2025-12-31T16:07:57.838271,5.063212,-13.897513,4.541577,2.858848,-0.756251,-3.114190
2025-12-31T16:07:57.848271,3.885943,-9.925428,5.517848,3.211928,-0.444709,-3.202154
2025-12-31T16:07:57.858271,2.632104,-6.747759,6.412764,2.833192,-0.416610,-3.298671
2025-12-31T16:07:57.867271,1.689332,-3.890729,7.484749,1.981646,-0.608421,-3.468492
2025-12-31T16:07:57.877271,1.249053,-1.368694,7.546962,0.800233,-0.879645,-3.551569
2025-12-31T16:07:57.887271,0.995414,-0.631705,7.173682,-0.645073,-1.183856,-3.529578
2025-12-31T16:07:57.896271,1.421336,-1.847259,4.594219,-2.014633,-1.704313,-3.597995
2025-12-31T16:07:57.906271,2.689532,-4.804787,3.081955,-3.117855,-2.208888,-3.689625
2025-12-31T16:07:57.915271,4.364508,-8.681160,2.727817,-3.622430,-2.430021,-3.887545
2025-12-31T16:07:57.925271,6.690331,-13.438091,4.015156,-3.533243,-2.182010,-4.183204
2025-12-31T16:07:57.935271,8.078169,-16.974684,4.010370,-2.709797,-1.572366,-4.266281
2025-12-31T16:07:57.944271,8.025527,-16.587046,2.847458,-1.136209,-0.904080,-4.062252
2025-12-31T16:07:57.954271,7.092326,-12.174681,3.168097,0.324980,-0.398284,-3.864332
2025-12-31T16:07:57.963271,6.072983,-6.407978,5.240281,0.427605,-0.141720,-3.705507
2025-12-31T16:07:57.973271,4.967499,-3.182454,5.536991,-0.511904,-0.018325,-3.659082
2025-12-31T16:07:57.983271,3.699303,-2.053041,2.263610,-1.491732,-0.089186,-3.767816
2025-12-31T16:07:57.992271,3.062812,-3.211167,-0.966700,-2.596176,-0.405614,-3.799580
2025-12-31T16:07:58.002271,3.656232,-7.695317,-1.435693,-3.505144,-0.846659,-3.855780
2025-12-31T16:07:58.012271,5.096712,-12.270394,-1.043270,-3.252245,-1.161865,-4.097683
2025-12-31T16:07:58.021271,6.704688,-14.213366,2.962314,-1.973094,-1.216843,-4.472754
2025-12-31T16:07:58.031271,7.010970,-14.041083,2.402393,0.178372,-1.042135,-4.667009
2025-12-31T16:07:58.040271,7.824529,-11.093125,0.650847,1.819156,-1.154535,-4.629135
2025-12-31T16:07:58.050271,7.800601,-8.551947,-1.100698,2.841744,-1.264490,-4.570492
2025-12-31T16:07:58.060271,8.891728,-2.995813,1.019342,4.023157,-1.038470,-4.983437
2025-12-31T16:07:58.069271,8.709874,1.287338,1.004985,3.309667,-0.805120,-5.038415
2025-12-31T16:07:58.079271,8.312665,1.789831,-3.383451,1.800830,-0.933401,-4.973663
2025-12-31T16:07:58.088271,7.441678,-1.028913,-3.555734,0.629191,-1.354898,-5.253439
2025-12-31T16:07:58.098271,9.891928,-1.349551,0.866201,0.307876,-2.124588,-5.473351
2025-12-31T16:07:58.108271,11.609975,-3.086741,2.589034,-0.285884,-2.607172,-5.382943
2025-12-31T16:07:58.117271,13.308879,-5.091926,-0.028713,-0.322536,-3.072651,-5.369503
2025-12-31T16:07:58.127271,14.950355,-4.991427,-1.990828,0.400727,-3.174055,-5.367061
2025-12-31T16:07:58.137271,16.534405,-3.589233,-1.794616,0.935845,-3.005456,-5.309639
2025-12-31T16:07:58.146271,17.682959,-2.249253,-1.119840,1.012814,-2.569298,-5.197240
2025-12-31T16:07:58.156271,17.491533,-0.961914,-1.296909,0.945619,-1.974316,-4.907690
2025-12-31T16:07:58.165271,16.031912,0.081355,-1.215553,0.691499,-1.437976,-4.471532
2025-12-31T16:07:58.175271,14.313864,0.555134,-0.535992,0.070860,-1.115439,-4.075692
2025-12-31T16:07:58.185271,12.983455,0.162711,0.842273,-0.720820,-0.985936,-3.783698
2025-12-31T16:07:58.194271,11.729616,-1.258624,2.349751,-1.367116,-0.884532,-3.439170
2025-12-31T16:07:58.204271,10.370493,-3.034099,2.464607,-1.645670,-0.769690,-3.034777
2025-12-31T16:07:58.213271,9.016155,-4.675575,1.804188,-1.530827,-0.596204,-2.657263
2025-12-31T16:07:58.223271,7.757530,-5.948556,1.225125,-1.097113,-0.342084,-2.331061
2025-12-31T16:07:58.233271,6.580262,-6.628118,1.239482,-0.476474,-0.004886,-2.012189
2025-12-31T16:07:58.242271,5.010570,-6.527620,1.478764,0.249232,0.322536,-1.732413
2025-12-31T16:07:58.252271,3.474378,-5.292923,1.651047,1.017701,0.476474,-1.546710
2025-12-31T16:07:58.262271,2.024327,-3.531806,1.698904,1.534493,0.458148,-1.381776
2025-12-31T16:07:58.271271,2.105683,-0.167497,2.938386,1.916894,0.193033,-1.109331
2025-12-31T16:07:58.281271,1.009771,3.259024,5.685346,1.331685,0.318871,-0.751364
2025-12-31T16:07:58.290271,0.258424,-0.516849,1.971685,-0.808785,-0.234572,-0.968832
2025-12-31T16:07:58.300271,1.694118,-2.617747,3.139383,-0.395840,-0.472809,-0.852767
2025-12-31T16:07:58.310271,1.981257,0.177068,5.541777,0.084299,-0.419053,-0.454483
2025-12-31T16:07:58.319271,2.258824,-1.383051,3.857230,-1.193630,-0.423940,-0.450818
2025-12-31T16:07:58.329271,2.569891,-5.536991,0.741775,-1.434311,-0.487470,-0.571769
2025-12-31T16:07:58.338271,3.211167,-4.417150,1.923829,-0.014660,-0.346971,-0.383623
2025-12-31T16:07:58.348271,3.058027,-1.421336,2.991028,0.326201,-0.009773,-0.243124
2025-12-31T16:07:58.358271,3.038884,-1.464407,1.488335,-0.318871,0.173485,-0.287106
2025-12-31T16:07:58.367271,2.799602,-1.904686,0.473778,-0.340862,0.291993,-0.177150
2025-12-31T16:07:58.377271,2.373680,-0.713061,1.416550,-0.145385,0.353080,-0.015882
2025-12-31T16:07:58.387271,2.225325,-0.612562,2.196611,-0.538783,0.342084,0.008552
2025-12-31T16:07:58.396271,2.612962,-1.665404,2.502892,-0.904080,0.250454,0.007330
2025-12-31T16:07:58.406271,3.297309,-1.971685,2.684746,-0.833220,0.076969,0.053756
2025-12-31T16:07:58.415271,4.340580,-1.751546,2.392822,-0.838106,-0.218689,0.065973
2025-12-31T16:07:58.425271,5.709274,-2.172682,1.684547,-0.974940,-0.548556,0.047647
2025-12-31T16:07:58.435271,7.585247,-2.392822,1.339980,-0.959058,-0.812450,0.030543
2025-12-31T16:07:58.444271,9.499505,-2.340180,0.952343,-0.905302,-0.922406,-0.012217
2025-12-31T16:07:58.454271,11.485548,-2.335394,0.162711,-0.937067,-0.894306,-0.080634
2025-12-31T16:07:58.463271,13.208380,-2.459821,-0.282353,-0.983492,-0.715933,-0.138055
2025-12-31T16:07:58.473271,14.337793,-2.522035,-0.483350,-0.974940,-0.434935,-0.141720
2025-12-31T16:07:58.483271,14.811571,-2.646461,-0.559920,-0.946840,-0.080634,-0.103847
2025-12-31T16:07:58.492271,14.361721,-2.813959,-0.588634,-0.905302,0.311541,-0.042760
2025-12-31T16:07:58.502271,13.112667,-3.062812,-0.004785,-0.775798,0.691499,0.046425
2025-12-31T16:07:58.512271,11.313265,-3.225524,0.823130,-0.555887,0.970053,0.151494
2025-12-31T16:07:58.521271,9.466006,-3.335594,1.215553,-0.282219,1.091005,0.256563
2025-12-31T16:07:58.531271,7.910671,-3.153740,1.512263,0.061086,1.058018,0.331088
2025-12-31T16:07:58.540271,6.719045,-2.895315,1.627119,0.461814,0.915075,0.397062
2025-12-31T16:07:58.550271,6.020341,-2.316252,1.450050,0.822224,0.702494,0.456927
2025-12-31T16:07:58.560271,5.800201,-1.794616,1.220339,1.060461,0.438601,0.520457
2025-12-31T16:07:58.569271,6.130411,-1.253839,1.024128,1.170417,0.116064,0.596204
2025-12-31T16:07:58.579271,7.020541,-0.794417,0.837487,1.176526,-0.229685,0.676838
2025-12-31T16:07:58.588271,8.102097,-0.435493,0.669990,1.102000,-0.494800,0.752585
2025-12-31T16:07:58.598271,9.437292,-0.239282,0.320638,1.009149,-0.575434,0.808785
2025-12-31T16:07:58.608271,10.403992,0.071784,0.205782,0.915075,-0.433714,0.845437
2025-12-31T16:07:58.617271,10.887342,0.162711,0.191425,0.779463,-0.142942,0.891863
2025-12-31T16:07:58.627271,10.571490,0.153140,0.052642,0.615752,0.188146,0.929736
2025-12-31T16:07:58.637271,9.695717,-0.033499,0.047856,0.452040,0.464257,0.941954
2025-12-31T16:07:58.646271,8.590233,-0.411565,0.325423,0.320093,0.621860,0.929736
2025-12-31T16:07:58.656271,7.422535,-0.861416,0.416351,0.243124,0.665842,0.902858
2025-12-31T16:07:58.665271,6.498906,-1.201196,0.210568,0.259006,0.635299,0.872315
2025-12-31T16:07:58.675271,5.642275,-1.450050,0.033499,0.342084,0.577878,0.840550
2025-12-31T16:07:58.685271,5.020141,-1.622333,0.215354,0.438601,0.508239,0.821002
2025-12-31T16:07:58.694271,4.493720,-1.780260,0.382851,0.571769,0.442266,0.811228
2025-12-31T16:07:58.704271,4.015156,-1.713260,0.607776,0.752585,0.408057,0.819780
2025-12-31T16:07:58.713271,3.594019,-1.368694,0.650847,0.919962,0.442266,0.862541
2025-12-31T16:07:58.723271,3.129811,-1.024128,0.555134,1.023809,0.543669,0.939510
2025-12-31T16:07:58.733271,2.541177,-0.535992,0.866201,1.053131,0.690277,1.038470
2025-12-31T16:07:58.742271,1.952543,-0.186640,1.167697,0.981049,0.853989,1.152091
2025-12-31T16:07:58.752271,1.469193,-0.143569,1.349551,0.803898,0.966388,1.275486
2025-12-31T16:07:58.762271,1.182054,-0.167497,1.325623,0.561995,0.952949,1.401324
2025-12-31T16:07:58.771271,1.359123,-0.746560,1.378265,0.255341,0.785572,1.524719
2025-12-31T16:07:58.781271,2.005185,-1.660618,1.095912,-0.021991,0.480139,1.659109
2025-12-31T16:07:58.790271,3.129811,-2.842673,0.813559,-0.157603,0.160046,1.798386
2025-12-31T16:07:58.800271,4.302295,-3.732803,0.559920,-0.128281,-0.040317,1.871690
2025-12-31T16:07:58.810271,5.857629,-4.967499,0.741775,0.019547,-0.140498,1.951103
2025-12-31T16:07:58.819271,7.235895,-5.680560,1.249053,0.570548,-0.023212,2.140471
2025-12-31T16:07:58.829271,8.216952,-5.498706,1.521835,1.128878,0.223576,2.370156
2025-12-31T16:07:58.838271,8.882157,-4.986642,1.191625,1.458745,0.577878,2.657263
2025-12-31T16:07:58.848271,9.169296,-4.024727,0.909272,1.640783,0.933401,2.973691
2025-12-31T16:07:58.858271,9.231509,-3.024527,1.651047,1.580918,1.248608,3.280345
2025-12-31T16:07:58.867271,9.193224,-2.512463,2.589034,1.213178,1.448972,3.530800
2025-12-31T16:07:58.877271,9.355936,-2.440679,2.239681,0.779463,1.560149,3.771481
2025-12-31T16:07:58.887271,9.480363,-2.732603,1.646261,0.371405,1.610240,4.042705
2025-12-31T16:07:58.896271,9.882357,-3.823730,1.483550,-0.102625,1.589471,4.309042
2025-12-31T16:07:58.906271,10.384850,-5.446064,1.526620,-0.463035,1.490510,4.553388
2025-12-31T16:07:58.915271,11.284551,-6.991827,1.875972,-0.614530,1.406211,4.823390
2025-12-31T16:07:58.925271,11.854043,-8.183453,2.450250,-0.474031,1.451415,5.007871
2025-12-31T16:07:58.935271,12.361321,-8.729016,2.397608,-0.074525,1.567479,5.075067
2025-12-31T16:07:58.944271,12.567104,-8.633303,2.349751,0.476474,1.734856,5.122715
2025-12-31T16:07:58.954271,12.686745,-7.891528,3.316452,0.912632,1.909564,5.133710
2025-12-31T16:07:58.963271,12.696316,-7.288537,4.244867,1.028696,2.129475,5.112941
2025-12-31T16:07:58.973271,12.409178,-6.896114,3.804587,1.026253,2.342056,5.134931
2025-12-31T16:07:58.983271,11.284551,-10.174281,3.723231,0.404392,2.514320,6.740285
2025-12-31T16:07:58.992271,10.494919,-8.149953,2.914457,2.900387,2.168571,4.778186
2025-12-31T16:07:59.002271,12.050254,-0.167497,6.407978,2.863735,2.977356,3.705507
2025-12-31T16:07:59.012271,10.265208,-2.560320,3.503092,-0.091629,2.742784,5.054298
2025-12-31T16:07:59.021271,9.753144,-6.532405,1.923829,-0.075747,2.820975,5.717697
2025-12-31T16:07:59.031271,8.006384,-4.144368,5.168496,1.576031,3.319441,5.112941
2025-12-31T16:07:59.040271,7.073183,-1.550549,4.445864,0.995710,3.556456,4.610809
2025-12-31T16:07:59.050271,5.340780,-3.919443,2.761317,-0.063529,3.701842,4.719543
2025-12-31T16:07:59.060271,4.177868,-4.972285,4.173082,0.068416,3.501478,4.900359
2025-12-31T16:07:59.069271,2.861815,-4.259224,6.020341,0.103847,3.329214,4.713435
2025-12-31T16:07:59.079271,1.808973,-5.096712,5.254638,-0.467922,2.862513,4.377459
2025-12-31T16:07:59.088271,1.268195,-6.451049,3.929014,-0.684168,2.362826,4.265060
2025-12-31T16:07:59.098271,0.784845,-6.867400,4.278366,-0.576656,1.904677,4.229630
2025-12-31T16:07:59.108271,0.741775,-7.441678,4.398007,-0.588873,1.532049,3.993836
2025-12-31T16:07:59.117271,0.803988,-8.585447,3.914657,-0.442266,1.226617,3.597995
2025-12-31T16:07:59.127271,1.373480,-9.494720,4.364508,-0.197920,0.910189,3.318219
2025-12-31T16:07:59.137271,2.000399,-10.389635,6.039484,0.061086,0.689055,3.116633
2025-12-31T16:07:59.146271,2.579462,-11.399406,7.776673,0.250454,0.635299,2.899165
2025-12-31T16:07:59.156271,2.842673,-12.160324,8.207381,0.405614,0.831998,2.715906
2025-12-31T16:07:59.165271,2.273181,-12.145967,7.881957,0.652403,1.219286,2.543642
2025-12-31T16:07:59.175271,1.105484,-11.432906,7.743173,0.745255,1.588249,2.329839
2025-12-31T16:07:59.185271,-0.287138,-10.418349,7.915457,0.596204,1.788613,2.065945
2025-12-31T16:07:59.194271,-1.665404,-9.475577,8.068597,0.228463,1.740965,1.831373
2025-12-31T16:07:59.204271,-2.708675,-9.001798,8.169096,-0.356745,1.492954,1.676213
2025-12-31T16:07:59.213271,-3.479164,-9.552147,8.063812,-1.144761,1.174082,1.633453
2025-12-31T16:07:59.223271,-3.962514,-11.514262,7.996813,-1.991420,0.890641,1.622457
2025-12-31T16:07:59.233271,-4.398007,-14.629717,8.599804,-2.656041,0.751364,1.514945
2025-12-31T16:07:59.242271,-4.890929,-17.955740,9.255437,-2.802649,0.785572,1.279151
2025-12-31T16:07:59.252271,-5.594419,-20.520845,9.537790,-2.417804,0.941954,1.016479
2025-12-31T16:07:59.262271,-6.661618,-21.353548,9.537790,-1.771508,1.078787,0.744033
2025-12-31T16:07:59.271271,-7.747959,-20.721844,8.781658,-1.183856,1.003040,0.364075
2025-12-31T16:07:59.281271,-8.327022,-19.075581,7.996813,-0.812450,0.676838,-0.122173
2025-12-31T16:07:59.290271,-8.374879,-17.314465,7.724031,-0.807563,0.223576,-0.603534
2025-12-31T16:07:59.300271,-7.862815,-16.185053,7.685746,-1.111774,-0.245567,-1.017701
2025-12-31T16:07:59.310271,-6.719045,-15.998411,7.317251,-1.511280,-0.648738,-1.362229
2025-12-31T16:07:59.319271,-5.297709,-16.582260,6.853043,-1.754404,-0.916297,-1.662774
2025-12-31T16:07:59.329271,-3.838087,-17.692530,6.628118,-1.699426,-1.043357,-1.986533
2025-12-31T16:07:59.338271,-2.584248,-18.845869,6.173482,-1.208291,-1.076344,-2.340835
2025-12-31T16:07:59.348271,-1.469193,-19.166510,5.895914,-0.364075,-1.034805,-2.637715
2025-12-31T16:07:59.358271,-0.531206,-18.439091,6.455835,0.387288,-0.948062,-2.802649
2025-12-31T16:07:59.367271,0.119641,-17.151752,7.379464,0.806341,-0.880867,-2.891835
2025-12-31T16:07:59.377271,0.454636,-15.385849,7.590033,0.996931,-0.894306,-2.987130
2025-12-31T16:07:59.387271,0.555134,-12.882956,7.125825,1.043357,-0.989601,-3.073873
2025-12-31T16:07:59.396271,0.646062,-10.413563,6.580262,0.852767,-1.144761,-3.155729
2025-12-31T16:07:59.406271,0.981057,-8.178667,5.402993,0.383623,-1.332907,-3.226589
2025-12-31T16:07:59.415271,1.741974,-7.771887,5.714060,-0.229685,-1.512502,-3.358536
2025-12-31T16:07:59.425271,2.823530,-8.408378,5.479563,-0.621860,-1.657887,-3.657860
2025-12-31T16:07:59.435271,4.072584,-10.456634,5.915057,-0.680503,-1.602910,-3.943745
2025-12-31T16:07:59.444271,4.972285,-13.055240,5.584847,-0.351858,-1.352455,-4.192978
2025-12-31T16:07:59.454271,5.273781,-14.318650,3.847658,0.544891,-0.995710,-4.351803
2025-12-31T16:07:59.463271,4.795216,-12.854243,2.545963,1.760513,-0.687834,-4.393341
2025-12-31T16:07:59.473271,4.053441,-9.260223,2.991028,2.668258,-0.537561,-4.338364
2025-12-31T16:07:59.483271,3.651447,-4.977071,3.369094,2.664593,-0.572991,-4.163656
2025-12-31T16:07:59.492271,2.976671,-1.426122,4.340580,1.857029,-0.662177,-3.949853
2025-12-31T16:07:59.502271,2.703889,1.148554,5.565705,0.515570,-0.926071,-3.938858
2025-12-31T16:07:59.512271,3.421736,1.550549,5.446064,-1.207069,-1.310916,-4.023157
2025-12-31T16:07:59.521271,4.589433,-1.071984,4.651647,-2.847853,-1.629788,-4.075692
2025-12-31T16:07:59.531271,5.915057,-5.532205,3.737588,-3.684738,-1.819156,-4.207638
2025-12-31T16:07:59.540271,7.570890,-9.475577,3.043670,-3.429396,-1.794721,-4.612031
2025-12-31T16:07:59.550271,9.346365,-13.280165,2.522035,-2.806314,-1.437976,-5.005429
2025-12-31T16:07:59.560271,10.490134,-15.907484,0.497707,-1.944994,-0.879645,-4.971220
2025-12-31T16:07:59.569271,10.609775,-15.285350,-0.708275,-0.332310,-0.467922,-4.522845
2025-12-31T16:07:59.579271,10.260423,-10.006784,-0.689132,1.137430,-0.332310,-4.141665
2025-12-31T16:07:59.588271,10.068997,-4.852644,0.579063,1.028696,-0.394618,-3.984062
2025-12-31T16:07:59.598271,10.236495,-1.808973,1.641476,-0.261450,-0.549778,-3.820350
2025-12-31T16:07:59.608271,10.600204,-1.182054,2.679961,-1.578475,-0.734259,-3.606547
2025-12-31T16:07:59.617271,11.069197,-1.861615,1.473978,-2.851518,-0.974940,-3.602882
2025-12-31T16:07:59.627271,12.189038,-5.513063,-0.382851,-4.155104,-1.204625,-3.804467
2025-12-31T16:07:59.637271,13.686945,-10.274780,-0.622133,-4.550945,-1.270599,-4.056144
2025-12-31T16:07:59.646271,15.218351,-14.758929,0.167497,-3.607769,-0.939510,-4.295603
2025-12-31T16:07:59.656271,15.448062,-16.811972,-0.818345,-1.642005,-0.208915,-4.440989
2025-12-31T16:07:59.665271,14.251651,-16.065411,-2.311466,0.615752,0.769690,-4.364020
2025-12-31T16:07:59.675271,11.581261,-13.155738,-2.799602,2.781879,1.562592,-4.272390
2025-12-31T16:07:59.685271,8.810372,-8.949156,-1.837687,4.289494,1.824043,-4.268725
2025-12-31T16:07:59.694271,6.455835,-5.048855,-0.483350,4.862486,1.536936,-4.268725
2025-12-31T16:07:59.704271,4.867001,-1.866401,-0.239282,4.668231,0.878424,-4.268725
2025-12-31T16:07:59.713271,4.019941,0.937986,0.689132,4.062252,0.166155,-4.159991
2025-12-31T16:07:59.723271,3.799802,3.349951,2.555534,3.059212,-0.605978,-3.913201
2025-12-31T16:07:59.733271,4.244867,4.527220,3.651447,1.609018,-1.352455,-3.552791
2025-12-31T16:07:59.742271,5.034498,4.187439,3.067598,0.035430,-1.962098,-3.141068
2025-12-31T16:07:59.752271,6.168696,2.981456,2.124826,-1.382998,-2.342056,-2.769662
2025-12-31T16:07:59.762271,7.288537,1.162911,1.622333,-2.576629,-2.441016,-2.487442
2025-12-31T16:07:59.771271,8.116454,-1.320838,1.172483,-3.356092,-2.263866,-2.277305
2025-12-31T16:07:59.781271,8.513662,-3.512663,0.526420,-3.597995,-1.850921,-2.081828
2025-12-31T16:07:59.790271,8.135596,-5.254638,-0.019142,-3.423288,-1.303586,-1.892460
2025-12-31T16:07:59.800271,7.259823,-6.398407,-0.291924,-2.954143,-0.753807,-1.734856
2025-12-31T16:07:59.810271,5.828915,-6.996613,-0.325423,-2.277305,-0.301767,-1.632231
2025-12-31T16:07:59.819271,4.398007,-7.240681,0.023928,-1.508836,-0.017104,-1.578475
2025-12-31T16:07:59.829271,3.125026,-7.336394,0.167497,-0.731816,0.085521,-1.501506
2025-12-31T16:07:59.838271,2.134397,-7.130611,0.244067,-0.002443,0.029321,-1.393994
2025-12-31T16:07:59.848271,1.497906,-6.939185,0.358923,0.670729,-0.131946,-1.285260
2025-12-31T16:07:59.858271,1.258624,-6.714260,0.564706,1.339016,-0.346971,-1.161865
2025-12-31T16:07:59.867271,1.272981,-6.039484,0.717846,1.971872,-0.538783,-1.018923
2025-12-31T16:07:59.877271,1.651047,-5.029713,0.914058,2.470338,-0.670729,-0.888197
2025-12-31T16:07:59.887271,2.105683,-3.804587,1.215553,2.755001,-0.700051,-0.745255
2025-12-31T16:07:59.896271,2.727817,-2.321037,1.966900,2.857626,-0.646295,-0.551000
2025-12-31T16:07:59.906271,2.890529,-0.885344,2.488535,2.564411,-0.502131,-0.375071
2025-12-31T16:07:59.915271,3.134597,-0.449850,2.344966,1.974316,-0.388510,-0.276111
2025-12-31T16:07:59.925271,3.163311,-0.282353,2.493321,1.516167,-0.233350,-0.119729
2025-12-31T16:07:59.935271,3.254238,0.674775,3.192025,1.215621,-0.019547,0.009773
2025-12-31T16:07:59.944271,3.120240,0.799202,3.105883,0.514348,0.073303,0.059864
2025-12-31T16:07:59.954271,3.287738,-0.267996,2.526820,-0.208915,-0.086742,0.090408
2025-12-31T16:07:59.963271,3.981656,-1.134197,2.210968,-0.471587,-0.414166,0.152716
2025-12-31T16:07:59.973271,5.230710,-1.521835,2.163111,-0.641408,-0.802676,0.189368
2025-12-31T16:07:59.983271,6.881757,-2.407179,1.612762,-0.886976,-1.078787,0.166155
2025-12-31T16:07:59.992271,8.623732,-3.436093,1.024128,-0.811228,-1.166752,0.106290
2025-12-31T16:08:00.002271,10.308279,-4.005585,1.043270,-0.502131,-1.075122,0.036651
2025-12-31T16:08:00.012271,11.619546,-4.206582,0.775274,-0.168598,-0.877202,-0.047647
2025-12-31T16:08:00.021271,12.629317,-4.311866,0.401994,0.227241,-0.604756,-0.138055
2025-12-31T16:08:00.031271,13.189238,-3.866801,0.200997,0.636521,-0.312762,-0.206472
2025-12-31T16:08:00.040271,13.150953,-3.278166,0.488135,0.926071,-0.057421,-0.239459
2025-12-31T16:08:00.050271,12.830314,-2.555534,0.669990,1.061683,0.139277,-0.232128
2025-12-31T16:08:00.060271,12.136396,-1.899901,0.909272,1.071457,0.284663,-0.173485
2025-12-31T16:08:00.069271,11.174481,-1.459621,1.282552,0.967610,0.419053,-0.073303
2025-12-31T16:08:00.079271,9.939785,-1.244267,1.411765,0.802676,0.537561,0.025656
2025-12-31T16:08:00.088271,8.786444,-1.473978,1.679761,0.686612,0.609643,0.105068
2025-12-31T16:08:00.098271,7.920242,-1.909472,2.048256,0.631634,0.564439,0.196698
2025-12-31T16:08:00.108271,7.288537,-2.306680,2.134397,0.634077,0.400727,0.305432
2025-12-31T16:08:00.117271,7.111468,-2.641676,1.919043,0.696386,0.189368,0.405614
2025-12-31T16:08:00.127271,7.389036,-2.684746,1.598405,0.803898,-0.001221,0.492357
2025-12-31T16:08:00.137271,7.819744,-2.641676,1.363908,0.927293,-0.141720,0.569326
2025-12-31T16:08:00.146271,8.528019,-2.225325,1.014556,1.039692,-0.202807,0.645073
2025-12-31T16:08:00.156271,8.997012,-1.765903,0.866201,1.123991,-0.161268,0.722042
2025-12-31T16:08:00.165271,9.221938,-1.287338,0.827916,1.131322,-0.012217,0.796568
2025-12-31T16:08:00.175271,9.040083,-0.842273,0.593420,1.042135,0.194255,0.855211
2025-12-31T16:08:00.185271,8.647660,-0.646062,0.593420,0.879645,0.371405,0.897971
2025-12-31T16:08:00.194271,8.130811,-0.727418,0.870987,0.680503,0.467922,0.921184
2025-12-31T16:08:00.204271,7.771887,-1.105484,1.244267,0.509461,0.491135,0.943175
2025-12-31T16:08:00.213271,7.436892,-1.406979,1.258624,0.388510,0.486248,0.961501
2025-12-31T16:08:00.223271,7.231109,-1.799402,0.985842,0.277332,0.499687,1.003040
2025-12-31T16:08:00.233271,7.058826,-2.072184,0.588634,0.166155,0.535117,1.059240
2025-12-31T16:08:00.242271,6.857829,-2.431107,0.425922,0.107512,0.612086,1.122770
2025-12-31T16:08:00.252271,6.522834,-2.756531,0.483350,0.091629,0.714712,1.224173
2025-12-31T16:08:00.262271,6.034698,-3.058027,0.732203,0.117286,0.821002,1.373224
2025-12-31T16:08:00.271271,5.436492,-3.220739,0.966700,0.186924,0.924849,1.554040
2025-12-31T16:08:00.281271,4.867001,-3.259024,1.062413,0.246789,1.009149,1.749517
2025-12-31T16:08:00.290271,4.287938,-3.268595,1.019342,0.312762,1.078787,1.953546
2025-12-31T16:08:00.300271,3.842873,-3.125026,1.158126,0.394618,1.081231,2.144136
2025-12-31T16:08:00.310271,3.704089,-2.943171,1.617548,0.469144,1.037248,2.312735
2025-12-31T16:08:00.319271,3.617947,-2.742174,1.751546,0.503352,0.952949,2.470338
2025-12-31T16:08:00.329271,3.804587,-2.502892,1.607976,0.515570,0.875980,2.627941
2025-12-31T16:08:00.338271,4.149154,-2.297109,1.225125,0.456927,0.827111,2.789210
2025-12-31T16:08:00.348271,4.532006,-2.335394,0.966700,0.296880,0.802676,2.938261
2025-12-31T16:08:00.358271,4.986642,-2.593819,0.636490,0.135612,0.805120,3.059212
2025-12-31T16:08:00.367271,5.359922,-2.828316,0.124426,0.024434,0.857654,3.177720
2025-12-31T16:08:00.377271,5.603990,-3.273381,0.086141,-0.080634,0.927293,3.310888
2025-12-31T16:08:00.387271,5.632704,-3.842873,0.205782,-0.145385,0.979827,3.419622
2025-12-31T16:08:00.396271,5.757131,-4.287938,0.784845,-0.117286,1.025031,3.488039
2025-12-31T16:08:00.406271,5.733202,-4.560719,1.540977,0.063529,1.116661,3.563787
2025-12-31T16:08:00.415271,5.670989,-4.445864,2.000399,0.329867,1.227838,3.607769
2025-12-31T16:08:00.425271,5.469992,-4.283152,2.450250,0.515570,1.318246,3.626095
2025-12-31T16:08:00.435271,5.436492,-4.043870,2.770888,0.629191,1.345124,3.660303
2025-12-31T16:08:00.444271,5.532205,-3.828516,2.991028,0.712268,1.325577,3.706729
2025-12-31T16:08:00.454271,5.709274,-3.699303,2.761317,0.728151,1.306029,3.734829
2025-12-31T16:08:00.463271,5.857629,-3.570091,2.005185,0.718377,1.309694,3.748268
2025-12-31T16:08:00.473271,6.001199,-3.378665,1.569691,0.697607,1.353677,3.732385
2025-12-31T16:08:00.483271,6.183053,-3.488735,1.512263,0.540004,1.428202,3.722611
2025-12-31T16:08:00.492271,6.321837,-4.048655,1.722832,0.293215,1.499062,3.717725
2025-12-31T16:08:00.502271,6.652046,-4.785645,2.545963,0.080634,1.518610,3.710394
2025-12-31T16:08:00.512271,7.183253,-5.570491,4.024727,-0.196698,1.477071,3.761707
2025-12-31T16:08:00.521271,7.800601,-6.503691,4.723431,-0.390953,1.398881,3.858224
2025-12-31T16:08:00.531271,8.312665,-7.015755,4.694717,-0.311541,1.330464,3.975510
2025-12-31T16:08:00.540271,8.609375,-7.173682,4.565505,-0.288328,1.280373,4.091574
2025-12-31T16:08:00.550271,8.757730,-7.877171,4.354937,-0.453261,1.326799,4.146552
2025-12-31T16:08:00.560271,8.705088,-8.915657,4.220939,-0.469144,1.521054,4.116009
2025-12-31T16:08:00.569271,8.413164,-9.729216,4.383651,-0.315206,1.789834,4.057366
2025-12-31T16:08:00.579271,7.977670,-10.762916,5.029713,-0.174707,1.947437,4.017048
2025-12-31T16:08:00.588271,7.451249,-12.246466,5.297709,-0.039095,2.062280,3.908314
2025-12-31T16:08:00.598271,6.924828,-12.815957,5.441278,0.629191,2.122145,3.831345
2025-12-31T16:08:00.608271,6.446264,-11.456834,5.508277,1.369559,2.041511,3.775146
2025-12-31T16:08:00.617271,5.795416,-10.346564,4.465006,1.560149,1.837482,3.739716
2025-12-31T16:08:00.627271,5.493920,-9.686145,3.699303,1.722639,1.651779,3.645642
2025-12-31T16:08:00.637271,5.350351,-8.628518,4.197010,1.868025,1.643227,3.492926
2025-12-31T16:08:00.646271,5.106283,-8.087740,5.048855,1.642005,1.789834,3.336545
2025-12-31T16:08:00.656271,4.613361,-8.370093,5.690132,1.282816,2.006081,3.213150
2025-12-31T16:08:00.665271,3.943371,-8.867800,6.288337,0.973718,2.164905,3.115412
2025-12-31T16:08:00.675271,3.192025,-8.987441,6.795616,0.839328,2.178344,3.021338
2025-12-31T16:08:00.685271,2.512463,-8.824729,7.116254,0.769690,2.009746,2.983465
2025-12-31T16:08:00.694271,1.866401,-8.365307,7.202396,0.642630,1.766621,2.968804
2025-12-31T16:08:00.704271,1.392622,-8.049455,6.967899,0.392175,1.561371,2.915048
2025-12-31T16:08:00.713271,0.957129,-8.054240,6.427121,-0.017104,1.415985,2.811201
2025-12-31T16:08:00.723271,0.445065,-8.599804,5.910271,-0.507018,1.365894,2.700023
2025-12-31T16:08:00.733271,-0.282353,-9.671788,5.469992,-0.917519,1.414763,2.571742
2025-12-31T16:08:00.742271,-1.234696,-10.901699,5.364708,-1.075122,1.523497,2.411695
2025-12-31T16:08:00.752271,-2.469392,-11.921042,5.264209,-1.061683,1.611462,2.250427
2025-12-31T16:08:00.762271,-3.871586,-13.007383,6.025127,-0.987158,1.612683,2.091602
2025-12-31T16:08:00.771271,-5.259424,-14.069796,8.087740,-0.852767,1.523497,1.876577
2025-12-31T16:08:00.781271,-6.537191,-15.065211,10.250852,-0.744033,1.317025,1.612683
2025-12-31T16:08:00.790271,-7.546962,-16.371693,11.002198,-0.735481,0.938288,1.356120
2025-12-31T16:08:00.800271,-7.858029,-17.314465,10.384850,-0.546113,0.430049,1.112996
2025-12-31T16:08:00.810271,-7.532605,-17.209181,9.413364,-0.196698,-0.032986,0.824667
2025-12-31T16:08:00.819271,-6.757331,-16.352549,8.700302,0.067195,-0.333532,0.449596
2025-12-31T16:08:00.829271,-6.029912,-15.270993,7.977670,0.127059,-0.456927,0.048869
2025-12-31T16:08:00.838271,-5.479563,-14.467005,7.456035,-0.079412,-0.456927,-0.344527
2025-12-31T16:08:00.848271,-5.163711,-14.514861,7.843672,-0.579100,-0.403170,-0.762359
2025-12-31T16:08:00.858271,-4.929214,-15.582060,9.035298,-1.102000,-0.379958,-1.215621
2025-12-31T16:08:00.867271,-4.642075,-17.079967,10.164710,-1.389107,-0.461814,-1.661553
2025-12-31T16:08:00.877271,-4.053441,-18.453447,10.691131,-1.434311,-0.638964,-2.050063
2025-12-31T16:08:00.887271,-3.168097,-19.386648,10.777272,-1.302364,-0.856432,-2.384817
2025-12-31T16:08:00.896271,-2.033899,-19.401005,10.389635,-0.897971,-1.058018,-2.682919
2025-12-31T16:08:00.906271,-1.110269,-17.783457,9.748359,-0.207694,-1.159421,-2.924822
