Timestamp,Acceleration_X,Acceleration_Y,Acceleration_Z,Gyro_X,Gyro_Y,Gyro_Z
2025-12-31T15:29:39.915180,9.619146,-1.909472,0.387637,0.045204,-0.053756,0.048869
2025-12-31T15:29:39.925180,9.580861,-1.952543,0.421136,0.074525,-0.054977,0.046425
2025-12-31T15:29:39.934180,9.590432,-1.885544,0.440279,0.107512,-0.057421,0.043982
2025-12-31T15:29:39.944180,9.585647,-1.847259,0.430708,0.128281,-0.058643,0.045204
2025-12-31T15:29:39.953180,9.628718,-1.703689,0.535992,0.133168,-0.069638,0.040317
2025-12-31T15:29:39.963180,9.710074,-1.674975,0.440279,0.123394,-0.080634,0.040317
2025-12-31T15:29:39.973180,9.834500,-1.622333,0.478564,0.098960,-0.079412,0.045204
2025-12-31T15:29:39.982180,9.915856,-1.607976,0.564706,0.069638,-0.074525,0.045204
2025-12-31T15:29:39.992180,9.896714,-1.607976,0.492921,0.039095,-0.064751,0.051312
2025-12-31T15:29:40.002180,9.868000,-1.569691,0.478564,0.010995,-0.043982,0.062308
2025-12-31T15:29:40.011180,9.853643,-1.631905,0.564706,-0.019547,-0.031764,0.063529
2025-12-31T15:29:40.021180,9.743573,-1.584048,0.535992,-0.046425,-0.025656,0.061086
2025-12-31T15:29:40.030180,9.667003,-1.756331,0.535992,-0.059864,-0.032986,0.059864
2025-12-31T15:29:40.040180,9.667003,-1.832902,0.602991,-0.053756,-0.047647,0.051312
2025-12-31T15:29:40.050180,9.724431,-1.761117,0.555134,-0.034208,-0.063529,0.036651
2025-12-31T15:29:40.059180,9.815358,-1.904686,0.531206,0.000000,-0.069638,0.029321
2025-12-31T15:29:40.069180,9.877571,-1.875972,0.540777,0.039095,-0.068416,0.024434
2025-12-31T15:29:40.078180,9.901499,-1.799402,0.535992,0.064751,-0.052534,0.029321
2025-12-31T15:29:40.088180,9.848857,-1.684547,0.516849,0.079412,-0.034208,0.035430
2025-12-31T15:29:40.098180,9.772287,-1.574477,0.531206,0.079412,-0.020769,0.042760
2025-12-31T15:29:40.107180,9.695717,-1.555334,0.516849,0.063529,-0.023212,0.036651
2025-12-31T15:29:40.117180,9.667003,-1.517049,0.540777,0.035430,-0.034208,0.029321
2025-12-31T15:29:40.127180,9.705288,-1.483550,0.588634,0.013439,-0.041538,0.019547
2025-12-31T15:29:40.136180,9.705288,-1.617548,0.569491,-0.004886,-0.051312,0.001221
2025-12-31T15:29:40.146180,9.801001,-1.646261,0.555134,-0.014660,-0.052534,-0.008552
2025-12-31T15:29:40.155180,9.844072,-1.722832,0.478564,-0.015882,-0.048869,-0.020769
2025-12-31T15:29:40.165180,9.848857,-1.741974,0.454636,-0.009773,-0.035430,-0.025656
2025-12-31T15:29:40.175180,9.820143,-1.737189,0.540777,-0.008552,-0.023212,-0.034208
2025-12-31T15:29:40.184180,9.824929,-1.780260,0.521635,-0.001221,-0.008552,-0.032986
2025-12-31T15:29:40.194180,9.681360,-1.765903,0.526420,0.015882,0.004886,-0.030543
2025-12-31T15:29:40.203180,9.609575,-1.727617,0.473778,0.037873,0.003665,-0.035430
2025-12-31T15:29:40.213180,9.580861,-1.718046,0.445065,0.050090,-0.015882,-0.045204
2025-12-31T15:29:40.223180,9.686145,-1.703689,0.411565,0.053756,-0.043982,-0.057421
2025-12-31T15:29:40.232180,9.891928,-1.713260,0.435493,0.050090,-0.063529,-0.069638
2025-12-31T15:29:40.242180,9.992427,-1.684547,0.478564,0.045204,-0.052534,-0.072082
2025-12-31T15:29:40.252180,9.973284,-1.631905,0.445065,0.032986,-0.021991,-0.074525
2025-12-31T15:29:40.261180,9.944570,-1.713260,0.449850,0.015882,0.010995,-0.068416
2025-12-31T15:29:40.271180,9.839286,-1.761117,0.473778,0.001221,0.029321,-0.061086
2025-12-31T15:29:40.280180,9.690931,-1.842473,0.468993,-0.004886,0.030543,-0.052534
2025-12-31T15:29:40.290180,9.643075,-1.861615,0.507278,-0.002443,0.018325,-0.043982
2025-12-31T15:29:40.300180,9.595218,-1.890329,0.521635,0.007330,-0.003665,-0.042760
2025-12-31T15:29:40.309180,9.600004,-1.808973,0.526420,0.012217,-0.014660,-0.040317
2025-12-31T15:29:40.319180,9.676574,-1.799402,0.550349,0.013439,-0.019547,-0.026878
2025-12-31T15:29:40.328180,9.700502,-1.684547,0.516849,-0.004886,-0.019547,-0.018325
2025-12-31T15:29:40.338180,9.729216,-1.708475,0.459421,-0.021991,-0.019547,-0.010995
2025-12-31T15:29:40.348180,9.734002,-1.789831,0.507278,-0.035430,-0.017104,-0.004886
2025-12-31T15:29:40.357180,9.705288,-1.780260,0.502492,-0.037873,-0.014660,0.002443
2025-12-31T15:29:40.367180,9.762716,-1.785045,0.516849,-0.037873,-0.014660,0.003665
2025-12-31T15:29:40.377180,9.777073,-1.756331,0.411565,-0.031764,-0.012217,0.008552
2025-12-31T15:29:40.386180,9.786644,-1.799402,0.387637,-0.035430,-0.010995,0.008552
2025-12-31T15:29:40.396180,9.762716,-1.785045,0.440279,-0.040317,-0.014660,0.012217
2025-12-31T15:29:40.405180,9.786644,-1.866401,0.382851,-0.035430,-0.013439,0.007330
2025-12-31T15:29:40.415180,9.786644,-1.837687,0.454636,-0.019547,-0.003665,0.012217
2025-12-31T15:29:40.425180,9.767501,-1.828116,0.559920,-0.007330,0.003665,0.018325
2025-12-31T15:29:40.434180,9.767501,-1.689332,0.464207,-0.004886,-0.006108,0.018325
2025-12-31T15:29:40.444180,9.767501,-1.694118,0.464207,-0.019547,-0.021991,0.021991
2025-12-31T15:29:40.453180,9.882357,-1.651047,0.507278,-0.051312,-0.031764,0.028099
2025-12-31T15:29:40.463180,9.896714,-1.684547,0.492921,-0.080634,-0.032986,0.028099
2025-12-31T15:29:40.473180,9.934999,-1.780260,0.464207,-0.091629,-0.024434,0.029321
2025-12-31T15:29:40.482180,9.868000,-1.852044,0.445065,-0.089186,-0.012217,0.035430
2025-12-31T15:29:40.492180,9.777073,-1.890329,0.454636,-0.070860,-0.002443,0.040317
2025-12-31T15:29:40.502180,9.772287,-1.928615,0.449850,-0.043982,-0.003665,0.036651
2025-12-31T15:29:40.511180,9.743573,-1.852044,0.512064,-0.021991,-0.006108,0.039095
2025-12-31T15:29:40.521180,9.676574,-1.775474,0.516849,-0.010995,-0.010995,0.039095
2025-12-31T15:29:40.530180,9.686145,-1.684547,0.535992,-0.004886,-0.015882,0.039095
2025-12-31T15:29:40.540180,9.700502,-1.612762,0.550349,-0.014660,-0.021991,0.035430
2025-12-31T15:29:40.550180,9.705288,-1.622333,0.607776,-0.040317,-0.032986,0.035430
2025-12-31T15:29:40.559180,9.724431,-1.670190,0.579063,-0.064751,-0.040317,0.034208
2025-12-31T15:29:40.569180,9.824929,-1.708475,0.540777,-0.073303,-0.036651,0.028099
2025-12-31T15:29:40.578180,9.781858,-1.775474,0.468993,-0.073303,-0.029321,0.026878
2025-12-31T15:29:40.588180,9.853643,-1.856830,0.550349,-0.074525,-0.023212,0.021991
2025-12-31T15:29:40.598180,9.834500,-1.828116,0.516849,-0.068416,-0.017104,0.020769
2025-12-31T15:29:40.607180,9.820143,-1.746760,0.521635,-0.064751,-0.017104,0.014660
2025-12-31T15:29:40.617180,9.887142,-1.794616,0.512064,-0.057421,-0.017104,0.021991
2025-12-31T15:29:40.627180,9.844072,-1.785045,0.574277,-0.046425,-0.021991,0.023212
2025-12-31T15:29:40.636180,9.772287,-1.808973,0.593420,-0.039095,-0.021991,0.021991
2025-12-31T15:29:40.646180,9.791430,-1.799402,0.626919,-0.030543,-0.020769,0.023212
2025-12-31T15:29:40.655180,9.734002,-1.866401,0.526420,-0.018325,-0.017104,0.026878
2025-12-31T15:29:40.665180,9.700502,-1.770688,0.588634,-0.001221,-0.024434,0.025656
2025-12-31T15:29:40.675180,9.729216,-1.770688,0.574277,0.004886,-0.030543,0.023212
2025-12-31T15:29:40.684180,9.824929,-1.708475,0.617348,0.002443,-0.030543,0.021991
2025-12-31T15:29:40.694180,9.810572,-1.646261,0.646062,-0.006108,-0.029321,0.015882
2025-12-31T15:29:40.703180,9.791430,-1.641476,0.660419,-0.026878,-0.019547,0.018325
2025-12-31T15:29:40.713180,9.734002,-1.703689,0.631705,-0.051312,-0.008552,0.023212
2025-12-31T15:29:40.723180,9.734002,-1.799402,0.622133,-0.068416,-0.006108,0.019547
2025-12-31T15:29:40.732180,9.729216,-1.785045,0.550349,-0.073303,-0.010995,0.017104
2025-12-31T15:29:40.742180,9.729216,-1.823330,0.521635,-0.072082,-0.019547,0.014660
2025-12-31T15:29:40.752180,9.762716,-1.890329,0.521635,-0.065973,-0.021991,0.015882
2025-12-31T15:29:40.761180,9.753144,-1.933400,0.607776,-0.052534,-0.021991,0.017104
2025-12-31T15:29:40.771180,9.734002,-1.957328,0.622133,-0.034208,-0.013439,0.014660
2025-12-31T15:29:40.780180,9.724431,-1.952543,0.598205,-0.008552,-0.007330,0.014660
2025-12-31T15:29:40.790180,9.724431,-1.875972,0.545563,0.013439,-0.013439,0.009773
2025-12-31T15:29:40.800180,9.815358,-1.823330,0.488135,0.029321,-0.028099,0.002443
2025-12-31T15:29:40.809180,9.839286,-1.799402,0.588634,0.034208,-0.035430,-0.009773
2025-12-31T15:29:40.819180,9.930213,-1.866401,0.626919,0.035430,-0.024434,-0.008552
2025-12-31T15:29:40.828180,9.863214,-1.813759,0.531206,0.040317,0.000000,-0.003665
2025-12-31T15:29:40.838180,9.762716,-1.737189,0.526420,0.043982,0.017104,-0.001221
2025-12-31T15:29:40.848180,9.690931,-1.722832,0.540777,0.032986,0.020769,0.000000
2025-12-31T15:29:40.857180,9.681360,-1.708475,0.521635,0.008552,0.004886,-0.002443
2025-12-31T15:29:40.867180,9.643075,-1.794616,0.497707,-0.014660,-0.012217,-0.003665
2025-12-31T15:29:40.877180,9.729216,-1.794616,0.598205,-0.023212,-0.026878,-0.003665
2025-12-31T15:29:40.886180,9.791430,-1.842473,0.598205,-0.020769,-0.019547,-0.004886
2025-12-31T15:29:40.896180,9.738787,-1.880758,0.631705,-0.010995,-0.004886,0.002443
2025-12-31T15:29:40.905180,9.695717,-1.928615,0.550349,0.000000,0.001221,0.006108
2025-12-31T15:29:40.915180,9.633503,-1.938186,0.473778,0.010995,0.002443,0.010995
2025-12-31T15:29:40.925180,9.633503,-1.919043,0.512064,0.032986,-0.004886,0.007330
2025-12-31T15:29:40.934180,9.671788,-1.799402,0.516849,0.048869,-0.014660,0.007330
2025-12-31T15:29:40.944180,9.734002,-1.751546,0.559920,0.042760,-0.025656,0.007330
2025-12-31T15:29:40.953180,9.801001,-1.698904,0.512064,0.025656,-0.032986,0.012217
2025-12-31T15:29:40.963180,9.891928,-1.713260,0.497707,0.001221,-0.034208,0.017104
2025-12-31T15:29:40.973180,9.877571,-1.727617,0.454636,-0.014660,-0.029321,0.023212
2025-12-31T15:29:40.982180,9.824929,-1.813759,0.483350,-0.021991,-0.017104,0.032986
2025-12-31T15:29:40.992180,9.777073,-1.856830,0.473778,-0.020769,-0.006108,0.041538
2025-12-31T15:29:41.002180,9.724431,-1.852044,0.531206,-0.009773,-0.006108,0.047647
2025-12-31T15:29:41.011180,9.652646,-1.799402,0.516849,0.003665,-0.019547,0.043982
2025-12-31T15:29:41.021180,9.690931,-1.775474,0.488135,0.014660,-0.032986,0.042760
2025-12-31T15:29:41.030180,9.719645,-1.727617,0.497707,0.019547,-0.039095,0.042760
2025-12-31T15:29:41.040180,9.777073,-1.727617,0.507278,0.017104,-0.043982,0.030543
2025-12-31T15:29:41.050180,9.743573,-1.732403,0.449850,0.020769,-0.039095,0.029321
2025-12-31T15:29:41.059180,9.734002,-1.718046,0.531206,0.029321,-0.031764,0.025656
2025-12-31T15:29:41.069180,9.762716,-1.722832,0.497707,0.032986,-0.025656,0.025656
2025-12-31T15:29:41.078180,9.777073,-1.641476,0.564706,0.036651,-0.031764,0.018325
2025-12-31T15:29:41.088180,9.786644,-1.631905,0.492921,0.026878,-0.037873,0.015882
2025-12-31T15:29:41.098180,9.772287,-1.622333,0.569491,0.010995,-0.037873,0.018325
2025-12-31T15:29:41.107180,9.834500,-1.631905,0.540777,-0.006108,-0.034208,0.025656
2025-12-31T15:29:41.117180,9.815358,-1.655833,0.579063,-0.025656,-0.028099,0.028099
2025-12-31T15:29:41.127180,9.757930,-1.746760,0.535992,-0.034208,-0.024434,0.034208
2025-12-31T15:29:41.136180,9.777073,-1.718046,0.502492,-0.029321,-0.028099,0.030543
2025-12-31T15:29:41.146180,9.738787,-1.775474,0.516849,-0.008552,-0.030543,0.030543
2025-12-31T15:29:41.155180,9.710074,-1.718046,0.583848,0.004886,-0.036651,0.026878
2025-12-31T15:29:41.165180,9.810572,-1.698904,0.502492,0.020769,-0.042760,0.018325
2025-12-31T15:29:41.175180,9.786644,-1.708475,0.526420,0.034208,-0.042760,0.013439
2025-12-31T15:29:41.184180,9.820143,-1.679761,0.588634,0.043982,-0.040317,0.010995
2025-12-31T15:29:41.194180,9.829715,-1.627119,0.535992,0.041538,-0.035430,0.001221
2025-12-31T15:29:41.203180,9.834500,-1.550549,0.636490,0.035430,-0.028099,-0.001221
2025-12-31T15:29:41.213180,9.748359,-1.574477,0.626919,0.023212,-0.023212,0.000000
2025-12-31T15:29:41.223180,9.757930,-1.598405,0.569491,0.008552,-0.025656,0.002443
2025-12-31T15:29:41.232180,9.820143,-1.631905,0.555134,-0.006108,-0.024434,0.003665
2025-12-31T15:29:41.242180,9.791430,-1.593619,0.540777,-0.017104,-0.028099,-0.001221
2025-12-31T15:29:41.252180,9.815358,-1.670190,0.540777,-0.024434,-0.031764,0.001221
2025-12-31T15:29:41.261180,9.829715,-1.689332,0.531206,-0.029321,-0.036651,0.004886
2025-12-31T15:29:41.271180,9.844072,-1.785045,0.545563,-0.020769,-0.040317,-0.001221
2025-12-31T15:29:41.280180,9.901499,-1.794616,0.569491,0.002443,-0.039095,-0.004886
2025-12-31T15:29:41.290180,9.877571,-1.751546,0.612562,0.030543,-0.036651,-0.014660
2025-12-31T15:29:41.300180,9.810572,-1.746760,0.559920,0.056199,-0.029321,-0.020769
2025-12-31T15:29:41.309180,9.801001,-1.660618,0.583848,0.067195,-0.020769,-0.024434
2025-12-31T15:29:41.319180,9.753144,-1.617548,0.665204,0.058643,-0.023212,-0.028099
2025-12-31T15:29:41.328180,9.743573,-1.598405,0.655633,0.040317,-0.028099,-0.028099
2025-12-31T15:29:41.338180,9.796215,-1.598405,0.641276,0.021991,-0.031764,-0.028099
2025-12-31T15:29:41.348180,9.781858,-1.636690,0.650847,0.004886,-0.028099,-0.029321
2025-12-31T15:29:41.357180,9.829715,-1.785045,0.641276,-0.004886,-0.018325,-0.018325
2025-12-31T15:29:41.367180,9.700502,-1.751546,0.550349,-0.003665,-0.013439,-0.015882
2025-12-31T15:29:41.377180,9.738787,-1.828116,0.583848,0.008552,-0.017104,-0.013439
2025-12-31T15:29:41.386180,9.805787,-1.775474,0.483350,0.021991,-0.032986,-0.012217
2025-12-31T15:29:41.396180,9.901499,-1.799402,0.583848,0.034208,-0.048869,-0.025656
2025-12-31T15:29:41.405180,10.016355,-1.770688,0.650847,0.039095,-0.041538,-0.028099
2025-12-31T15:29:41.415180,10.011569,-1.794616,0.593420,0.041538,-0.015882,-0.023212
2025-12-31T15:29:41.425180,9.930213,-1.722832,0.717846,0.043982,0.014660,-0.023212
2025-12-31T15:29:41.434180,9.805787,-1.679761,0.698704,0.042760,0.037873,-0.020769
2025-12-31T15:29:41.444180,9.619146,-1.694118,0.665204,0.031764,0.043982,-0.015882
2025-12-31T15:29:41.453180,9.571290,-1.746760,0.650847,0.013439,0.025656,-0.019547
2025-12-31T15:29:41.463180,9.528219,-1.718046,0.602991,-0.001221,-0.002443,-0.018325
2025-12-31T15:29:41.473180,9.647860,-1.780260,0.622133,-0.007330,-0.023212,-0.015882
2025-12-31T15:29:41.482180,9.676574,-1.804188,0.674775,-0.001221,-0.025656,-0.010995
2025-12-31T15:29:41.492180,9.786644,-1.828116,0.631705,0.009773,-0.018325,-0.006108
2025-12-31T15:29:41.502180,9.781858,-1.818545,0.598205,0.029321,-0.003665,0.001221
2025-12-31T15:29:41.511180,9.863214,-1.765903,0.655633,0.040317,0.002443,-0.004886
2025-12-31T15:29:41.521180,9.757930,-1.718046,0.665204,0.046425,0.010995,-0.003665
2025-12-31T15:29:41.530180,9.724431,-1.703689,0.665204,0.047647,0.012217,0.000000
2025-12-31T15:29:41.540180,9.743573,-1.651047,0.646062,0.035430,0.007330,0.002443
2025-12-31T15:29:41.550180,9.738787,-1.603191,0.641276,0.004886,-0.001221,0.001221
2025-12-31T15:29:41.559180,9.772287,-1.737189,0.617348,-0.013439,-0.001221,0.003665
2025-12-31T15:29:41.569180,9.777073,-1.775474,0.555134,-0.012217,0.003665,0.003665
2025-12-31T15:29:41.578180,9.748359,-1.837687,0.569491,-0.001221,0.012217,0.008552
2025-12-31T15:29:41.588180,9.705288,-1.785045,0.574277,0.017104,0.015882,0.014660
2025-12-31T15:29:41.598180,9.695717,-1.780260,0.535992,0.036651,0.006108,0.009773
2025-12-31T15:29:41.607180,9.748359,-1.684547,0.521635,0.046425,-0.009773,0.008552
2025-12-31T15:29:41.617180,9.810572,-1.651047,0.569491,0.045204,-0.017104,0.009773
2025-12-31T15:29:41.627180,9.872786,-1.670190,0.535992,0.037873,-0.015882,0.007330
2025-12-31T15:29:41.636180,9.815358,-1.674975,0.559920,0.025656,-0.001221,0.010995
2025-12-31T15:29:41.646180,9.801001,-1.674975,0.545563,0.020769,0.014660,0.017104
2025-12-31T15:29:41.655180,9.714859,-1.727617,0.564706,0.017104,0.018325,0.017104
2025-12-31T15:29:41.665180,9.595218,-1.684547,0.464207,0.018325,0.010995,0.010995
2025-12-31T15:29:41.675180,9.585647,-1.746760,0.540777,0.029321,-0.006108,0.008552
2025-12-31T15:29:41.684180,9.600004,-1.761117,0.564706,0.041538,-0.023212,0.006108
2025-12-31T15:29:41.694180,9.710074,-1.732403,0.516849,0.052534,-0.037873,-0.003665
2025-12-31T15:29:41.703180,9.844072,-1.689332,0.483350,0.064751,-0.039095,0.000000
2025-12-31T15:29:41.713180,9.887142,-1.607976,0.540777,0.068416,-0.034208,0.001221
2025-12-31T15:29:41.723180,9.911071,-1.603191,0.502492,0.062308,-0.020769,0.004886
2025-12-31T15:29:41.732180,9.815358,-1.603191,0.579063,0.050090,-0.002443,0.013439
2025-12-31T15:29:41.742180,9.824929,-1.655833,0.598205,0.035430,0.002443,0.020769
2025-12-31T15:29:41.752180,9.743573,-1.564905,0.593420,0.018325,0.003665,0.024434
2025-12-31T15:29:41.761180,9.695717,-1.588834,0.564706,0.000000,0.000000,0.026878
2025-12-31T15:29:41.771180,9.681360,-1.564905,0.526420,-0.020769,-0.009773,0.030543
2025-12-31T15:29:41.780180,9.619146,-1.593619,0.602991,-0.035430,-0.020769,0.025656
2025-12-31T15:29:41.790180,9.690931,-1.718046,0.540777,-0.036651,-0.032986,0.024434
2025-12-31T15:29:41.800180,9.714859,-1.737189,0.492921,-0.023212,-0.042760,0.021991
2025-12-31T15:29:41.809180,9.719645,-1.799402,0.559920,0.006108,-0.043982,0.021991
2025-12-31T15:29:41.819180,9.810572,-1.718046,0.502492,0.034208,-0.045204,0.015882
2025-12-31T15:29:41.828180,9.872786,-1.646261,0.559920,0.052534,-0.041538,0.019547
2025-12-31T15:29:41.838180,9.820143,-1.497906,0.650847,0.058643,-0.032986,0.026878
2025-12-31T15:29:41.848180,9.863214,-1.445264,0.622133,0.043982,-0.021991,0.030543
2025-12-31T15:29:41.857180,9.844072,-1.344766,0.669990,0.017104,-0.009773,0.037873
2025-12-31T15:29:41.867180,9.676574,-1.368694,0.626919,-0.023212,-0.010995,0.039095
2025-12-31T15:29:41.877180,9.667003,-1.373480,0.679561,-0.061086,-0.023212,0.035430
2025-12-31T15:29:41.886180,9.633503,-1.526620,0.626919,-0.080634,-0.040317,0.035430
2025-12-31T15:29:41.896180,9.671788,-1.660618,0.622133,-0.074525,-0.056199,0.020769
2025-12-31T15:29:41.905180,9.753144,-1.732403,0.617348,-0.048869,-0.062308,0.004886
2025-12-31T15:29:41.915180,9.781858,-1.703689,0.617348,-0.014660,-0.059864,-0.008552
2025-12-31T15:29:41.925180,9.863214,-1.670190,0.612562,0.021991,-0.050090,-0.018325
2025-12-31T15:29:41.934180,9.863214,-1.631905,0.622133,0.048869,-0.036651,-0.024434
2025-12-31T15:29:41.944180,9.872786,-1.574477,0.703489,0.062308,-0.024434,-0.019547
2025-12-31T15:29:41.953180,9.810572,-1.483550,0.679561,0.062308,-0.014660,-0.013439
2025-12-31T15:29:41.963180,9.777073,-1.464407,0.698704,0.047647,-0.008552,-0.014660
2025-12-31T15:29:41.973180,9.710074,-1.383051,0.703489,0.024434,-0.009773,-0.006108
2025-12-31T15:29:41.982180,9.805787,-1.335195,0.636490,-0.013439,-0.026878,-0.007330
2025-12-31T15:29:41.992180,9.848857,-1.397408,0.669990,-0.052534,-0.045204,-0.009773
2025-12-31T15:29:42.002180,9.882357,-1.502692,0.698704,-0.076969,-0.043982,-0.007330
2025-12-31T15:29:42.011180,9.930213,-1.631905,0.727418,-0.080634,-0.023212,-0.006108
2025-12-31T15:29:42.021180,9.882357,-1.713260,0.674775,-0.062308,0.004886,-0.008552
2025-12-31T15:29:42.030180,9.734002,-1.627119,0.598205,-0.036651,0.014660,-0.017104
2025-12-31T15:29:42.040180,9.700502,-1.674975,0.631705,-0.013439,0.003665,-0.031764
2025-12-31T15:29:42.050180,9.714859,-1.679761,0.607776,0.008552,-0.015882,-0.037873
2025-12-31T15:29:42.059180,9.805787,-1.569691,0.727418,0.026878,-0.020769,-0.035430
2025-12-31T15:29:42.069180,9.810572,-1.526620,0.736989,0.025656,-0.019547,-0.035430
2025-12-31T15:29:42.078180,9.762716,-1.450050,0.722632,0.010995,-0.008552,-0.029321
2025-12-31T15:29:42.088180,9.781858,-1.435693,0.698704,-0.015882,0.003665,-0.023212
2025-12-31T15:29:42.098180,9.724431,-1.440479,0.622133,-0.041538,0.002443,-0.017104
2025-12-31T15:29:42.107180,9.738787,-1.454836,0.689132,-0.058643,-0.004886,-0.019547
2025-12-31T15:29:42.117180,9.738787,-1.540977,0.665204,-0.063529,-0.013439,-0.019547
2025-12-31T15:29:42.127180,9.829715,-1.540977,0.693918,-0.062308,-0.019547,-0.020769
2025-12-31T15:29:42.136180,9.872786,-1.617548,0.669990,-0.061086,-0.023212,-0.032986
2025-12-31T15:29:42.146180,9.963713,-1.603191,0.641276,-0.053756,-0.015882,-0.032986
2025-12-31T15:29:42.155180,9.891928,-1.569691,0.689132,-0.037873,0.002443,-0.025656
2025-12-31T15:29:42.165180,9.815358,-1.607976,0.607776,-0.023212,0.014660,-0.028099
2025-12-31T15:29:42.175180,9.743573,-1.550549,0.641276,-0.015882,0.025656,-0.024434
2025-12-31T15:29:42.184180,9.686145,-1.512263,0.602991,-0.008552,0.017104,-0.029321
2025-12-31T15:29:42.194180,9.609575,-1.454836,0.622133,-0.015882,-0.002443,-0.035430
2025-12-31T15:29:42.203180,9.748359,-1.469193,0.617348,-0.029321,-0.023212,-0.041538
2025-12-31T15:29:42.213180,9.801001,-1.440479,0.665204,-0.037873,-0.028099,-0.047647
2025-12-31T15:29:42.223180,9.853643,-1.440479,0.631705,-0.041538,-0.019547,-0.047647
2025-12-31T15:29:42.232180,9.858429,-1.497906,0.631705,-0.036651,-0.012217,-0.051312
2025-12-31T15:29:42.242180,9.815358,-1.507478,0.607776,-0.031764,0.000000,-0.047647
2025-12-31T15:29:42.252180,9.719645,-1.493121,0.602991,-0.019547,0.006108,-0.050090
2025-12-31T15:29:42.261180,9.734002,-1.526620,0.564706,-0.009773,0.000000,-0.054977
2025-12-31T15:29:42.271180,9.690931,-1.507478,0.593420,-0.002443,-0.013439,-0.058643
2025-12-31T15:29:42.280180,9.767501,-1.445264,0.636490,0.004886,-0.023212,-0.056199
2025-12-31T15:29:42.290180,9.753144,-1.416550,0.641276,0.006108,-0.026878,-0.057421
2025-12-31T15:29:42.300180,9.810572,-1.373480,0.650847,0.001221,-0.028099,-0.059864
2025-12-31T15:29:42.309180,9.863214,-1.397408,0.650847,0.000000,-0.031764,-0.065973
2025-12-31T15:29:42.319180,9.891928,-1.354337,0.693918,0.003665,-0.030543,-0.068416
2025-12-31T15:29:42.328180,9.863214,-1.354337,0.674775,0.003665,-0.025656,-0.072082
2025-12-31T15:29:42.338180,9.810572,-1.368694,0.650847,0.010995,-0.023212,-0.074525
2025-12-31T15:29:42.348180,9.868000,-1.349551,0.703489,0.013439,-0.023212,-0.080634
2025-12-31T15:29:42.357180,9.762716,-1.339980,0.622133,0.009773,-0.025656,-0.092851
2025-12-31T15:29:42.367180,9.820143,-1.411765,0.665204,0.009773,-0.026878,-0.097738
2025-12-31T15:29:42.377180,9.824929,-1.378265,0.698704,0.017104,-0.032986,-0.100181
2025-12-31T15:29:42.386180,9.810572,-1.335195,0.674775,0.028099,-0.039095,-0.106290
2025-12-31T15:29:42.396180,9.853643,-1.320838,0.665204,0.035430,-0.036651,-0.108733
2025-12-31T15:29:42.405180,9.848857,-1.272981,0.703489,0.032986,-0.032986,-0.111177
2025-12-31T15:29:42.415180,9.853643,-1.268195,0.655633,0.023212,-0.032986,-0.107512
2025-12-31T15:29:42.425180,9.844072,-1.249053,0.679561,0.013439,-0.036651,-0.111177
2025-12-31T15:29:42.434180,9.911071,-1.287338,0.789631,0.014660,-0.045204,-0.122173
2025-12-31T15:29:42.444180,9.954142,-1.268195,0.765703,0.021991,-0.042760,-0.127059
2025-12-31T15:29:42.453180,10.045069,-1.277767,0.799202,0.024434,-0.043982,-0.138055
2025-12-31T15:29:42.463180,10.097711,-1.225125,0.751346,0.031764,-0.040317,-0.139277
2025-12-31T15:29:42.473180,10.078568,-1.158126,0.780060,0.039095,-0.031764,-0.140498
2025-12-31T15:29:42.482180,10.078568,-1.057627,0.813559,0.041538,-0.020769,-0.131946
2025-12-31T15:29:42.492180,9.997212,-0.957129,0.794417,0.031764,-0.009773,-0.124616
2025-12-31T15:29:42.502180,9.930213,-0.885344,0.780060,0.024434,-0.004886,-0.124616
2025-12-31T15:29:42.511180,9.863214,-0.870987,0.870987,0.004886,-0.008552,-0.130725
2025-12-31T15:29:42.521180,9.801001,-0.894915,0.765703,-0.018325,-0.008552,-0.134390
2025-12-31T15:29:42.530180,9.805787,-1.000199,0.866201,-0.018325,-0.007330,-0.150272
2025-12-31T15:29:42.540180,9.767501,-1.081555,0.794417,0.000000,-0.014660,-0.173485
2025-12-31T15:29:42.550180,9.810572,-1.057627,0.866201,0.040317,-0.025656,-0.196698
2025-12-31T15:29:42.559180,9.954142,-0.961914,0.947557,0.087964,-0.043982,-0.224798
2025-12-31T15:29:42.569180,10.193424,-0.760917,0.885344,0.123394,-0.068416,-0.249232
2025-12-31T15:29:42.578180,10.494919,-0.579063,0.937986,0.136833,-0.068416,-0.265115
2025-12-31T15:29:42.588180,10.600204,-0.488135,0.928415,0.130725,-0.024434,-0.257785
2025-12-31T15:29:42.598180,10.447063,-0.349352,0.918843,0.102625,0.047647,-0.245567
2025-12-31T15:29:42.607180,10.145567,-0.124426,0.942772,0.062308,0.109955,-0.230907
2025-12-31T15:29:42.617180,9.781858,-0.148355,0.923629,0.013439,0.128281,-0.241902
2025-12-31T15:29:42.627180,9.576076,-0.191425,0.976271,-0.035430,0.087964,-0.265115
2025-12-31T15:29:42.636180,9.576076,-0.325423,1.043270,-0.058643,0.029321,-0.299323
2025-12-31T15:29:42.646180,9.786644,-0.325423,1.043270,-0.054977,-0.013439,-0.349414
2025-12-31T15:29:42.655180,9.920642,-0.401994,1.057627,-0.041538,-0.020769,-0.392175
2025-12-31T15:29:42.665180,10.049854,-0.497707,1.081555,-0.013439,0.008552,-0.427605
2025-12-31T15:29:42.675180,10.045069,-0.679561,1.043270,0.032986,0.053756,-0.453261
2025-12-31T15:29:42.684180,9.944570,-0.641276,0.971485,0.084299,0.091629,-0.471587
2025-12-31T15:29:42.694180,9.762716,-0.559920,0.928415,0.139277,0.111177,-0.491135
2025-12-31T15:29:42.703180,9.753144,-0.535992,0.933200,0.180816,0.106290,-0.510683
2025-12-31T15:29:42.713180,9.705288,-0.339780,0.866201,0.194255,0.091629,-0.522900
2025-12-31T15:29:42.723180,9.695717,-0.177068,0.928415,0.183259,0.081855,-0.527787
2025-12-31T15:29:42.732180,9.647860,-0.162711,0.909272,0.149051,0.089186,-0.535117
2025-12-31T15:29:42.742180,9.566504,-0.205782,0.937986,0.111177,0.114842,-0.527787
2025-12-31T15:29:42.752180,9.379864,-0.239282,0.937986,0.076969,0.146607,-0.526565
2025-12-31T15:29:42.761180,9.150153,-0.401994,0.942772,0.064751,0.166155,-0.527787
2025-12-31T15:29:42.771180,8.882157,-0.459421,0.966700,0.081855,0.171042,-0.530230
2025-12-31T15:29:42.780180,8.705088,-0.440279,1.048056,0.095294,0.152716,-0.538783
2025-12-31T15:29:42.790180,8.618947,-0.521635,0.904486,0.094073,0.124616,-0.538783
2025-12-31T15:29:42.800180,8.561519,-0.583848,0.909272,0.098960,0.102625,-0.538783
2025-12-31T15:29:42.809180,8.513662,-0.674775,0.928415,0.116064,0.091629,-0.538783
2025-12-31T15:29:42.819180,8.451449,-0.760917,0.947557,0.144164,0.090408,-0.530230
2025-12-31T15:29:42.828180,8.389236,-0.794417,0.957129,0.174707,0.085521,-0.509461
2025-12-31T15:29:42.838180,8.322237,-0.861416,0.957129,0.211359,0.074525,-0.488692
2025-12-31T15:29:42.848180,8.374879,-0.789631,1.000199,0.229685,0.065973,-0.460592
2025-12-31T15:29:42.857180,8.427521,-0.799202,0.947557,0.224798,0.053756,-0.425162
2025-12-31T15:29:42.867180,8.523234,-0.870987,0.909272,0.213802,0.041538,-0.384845
2025-12-31T15:29:42.877180,8.709874,-0.937986,0.880558,0.191811,0.019547,-0.343306
2025-12-31T15:29:42.886180,9.001798,-1.033699,0.827916,0.169820,0.004886,-0.304210
2025-12-31T15:29:42.896180,9.274580,-1.000199,0.799202,0.150272,0.012217,-0.265115
2025-12-31T15:29:42.905180,9.418149,-0.837487,0.732203,0.101403,0.039095,-0.205250
2025-12-31T15:29:42.915180,9.533005,-0.727418,0.717846,0.023212,0.070860,-0.156381
2025-12-31T15:29:42.925180,9.408578,-0.669990,0.564706,-0.069638,0.106290,-0.105068
2025-12-31T15:29:42.934180,9.250652,-0.569491,0.535992,-0.163711,0.140498,-0.047647
2025-12-31T15:29:42.944180,8.992227,-0.631705,0.717846,-0.268780,0.160046,0.012217
2025-12-31T15:29:42.953180,8.652446,-0.746560,1.014556,-0.377514,0.149051,0.067195
2025-12-31T15:29:42.963180,8.499305,-0.909272,1.052841,-0.464257,0.142942,0.129503
2025-12-31T15:29:42.973180,8.202595,-1.081555,1.062413,-0.522900,0.151494,0.186924
2025-12-31T15:29:42.982180,7.939385,-1.306481,1.119840,-0.527787,0.164933,0.228463
2025-12-31T15:29:42.992180,7.566105,-1.473978,1.182054,-0.498465,0.164933,0.262671
2025-12-31T15:29:43.002180,7.231109,-1.622333,1.086341,-0.460592,0.156381,0.296880
2025-12-31T15:29:43.011180,6.929614,-1.780260,1.244267,-0.378736,0.120951,0.315206
2025-12-31T15:29:43.021180,6.953542,-1.684547,1.339980,-0.252898,0.056199,0.307876
2025-12-31T15:29:43.030180,7.226324,-1.397408,1.272981,-0.156381,-0.023212,0.293215
2025-12-31T15:29:43.040180,7.738388,-1.095912,1.062413,-0.117286,-0.058643,0.279776
2025-12-31T15:29:43.050180,8.063812,-0.703489,1.062413,-0.130725,-0.010995,0.294436
2025-12-31T15:29:43.059180,8.106882,-0.473778,1.205982,-0.206472,0.101403,0.332310
2025-12-31T15:29:43.069180,7.685746,-0.416351,1.344766,-0.334754,0.219911,0.389731
2025-12-31T15:29:43.078180,6.939185,-0.626919,1.483550,-0.478918,0.296880,0.445931
2025-12-31T15:29:43.088180,6.273980,-0.981057,1.478764,-0.596204,0.287106,0.480139
2025-12-31T15:29:43.098180,5.761916,-1.555334,1.287338,-0.641408,0.183259,0.500909
2025-12-31T15:29:43.107180,5.718846,-1.880758,1.392622,-0.585208,0.023212,0.493579
2025-12-31T15:29:43.117180,6.068198,-2.282752,1.368694,-0.434935,-0.141720,0.469144
2025-12-31T15:29:43.127180,6.733402,-2.507678,1.440479,-0.219911,-0.246789,0.450818
2025-12-31T15:29:43.136180,7.432106,-2.493321,1.459621,-0.006108,-0.265115,0.459370
2025-12-31T15:29:43.146180,8.145168,-2.488535,1.450050,0.194255,-0.202807,0.492357
2025-12-31T15:29:43.155180,8.504091,-2.220539,1.038485,0.360410,-0.094073,0.555887
2025-12-31T15:29:43.165180,8.618947,-1.818545,0.741775,0.463035,0.037873,0.640186
2025-12-31T15:29:43.175180,8.374879,-1.512263,0.698704,0.482583,0.155159,0.733038
2025-12-31T15:29:43.184180,7.925028,-1.067198,0.823130,0.399505,0.215024,0.838106
2025-12-31T15:29:43.194180,7.508677,-0.856630,0.923629,0.205250,0.195476,0.935845
2025-12-31T15:29:43.203180,7.259823,-0.894915,1.339980,-0.062308,0.079412,1.012814
2025-12-31T15:29:43.213180,7.389036,-1.258624,1.502692,-0.372627,-0.102625,1.065348
2025-12-31T15:29:43.223180,7.944171,-1.909472,1.110269,-0.641408,-0.288328,1.108109
2025-12-31T15:29:43.232180,8.513662,-2.947957,0.866201,-0.711046,-0.392175,1.120326
2025-12-31T15:29:43.242180,9.092725,-3.756731,0.861416,-0.542448,-0.406836,1.131322
2025-12-31T15:29:43.252180,9.432506,-4.139583,1.057627,-0.237015,-0.337197,1.172861
2025-12-31T15:29:43.261180,9.600004,-4.082155,0.890130,0.098960,-0.183259,1.222951
2025-12-31T15:29:43.271180,9.346365,-3.775874,0.641276,0.419053,0.023212,1.295034
2025-12-31T15:29:43.280180,8.796015,-3.316452,0.751346,0.643851,0.212581,1.401324
2025-12-31T15:29:43.290180,8.063812,-2.976671,0.713061,0.701273,0.307876,1.517388
2025-12-31T15:29:43.300180,7.499106,-2.775674,0.827916,0.649960,0.295658,1.613905
2025-12-31T15:29:43.309180,7.178467,-2.545963,1.091127,0.525343,0.171042,1.684765
2025-12-31T15:29:43.319180,7.322037,-2.234896,1.426122,0.317649,-0.037873,1.734856
2025-12-31T15:29:43.328180,7.963313,-2.067398,1.770688,0.041538,-0.267558,1.759291
2025-12-31T15:29:43.338180,8.963513,-2.210968,1.899901,-0.268780,-0.463035,1.784947
2025-12-31T15:29:43.348180,10.112068,-2.694318,1.531406,-0.515570,-0.563217,1.808160
2025-12-31T15:29:43.357180,10.925627,-3.292523,1.028913,-0.602312,-0.532674,1.839925
2025-12-31T15:29:43.367180,11.413763,-4.058227,0.851844,-0.507018,-0.377514,1.864360
2025-12-31T15:29:43.377180,11.236694,-4.508077,0.942772,-0.295658,-0.166155,1.909564
2025-12-31T15:29:43.386180,10.657631,-4.809573,0.655633,-0.025656,0.051312,1.960877
2025-12-31T15:29:43.396180,9.724431,-4.833501,0.411565,0.270002,0.210137,1.992641
2025-12-31T15:29:43.405180,9.006584,-4.809573,0.234496,0.508239,0.244346,2.010967
2025-12-31T15:29:43.415180,8.647660,-4.522434,0.306281,0.658512,0.128281,1.986533
2025-12-31T15:29:43.425180,8.867800,-4.201796,0.502492,0.748920,-0.057421,1.931555
2025-12-31T15:29:43.434180,9.576076,-3.723231,0.861416,0.748920,-0.226020,1.871690
2025-12-31T15:29:43.444180,10.427920,-3.393022,1.268195,0.645073,-0.337197,1.836260
2025-12-31T15:29:43.453180,11.351550,-3.163311,1.550549,0.459370,-0.376292,1.800830
2025-12-31T15:29:43.463180,11.839686,-3.239881,1.229910,0.218689,-0.322536,1.811825
2025-12-31T15:29:43.473180,11.911470,-3.617947,0.847059,0.023212,-0.193033,1.824043
2025-12-31T15:29:43.482180,11.452048,-4.398007,0.899701,-0.046425,-0.059864,1.808160
2025-12-31T15:29:43.492180,10.825129,-5.173282,1.115055,0.010995,0.039095,1.783726
2025-12-31T15:29:43.502180,10.174281,-5.862415,0.813559,0.172263,0.096516,1.733635
2025-12-31T15:29:43.511180,9.724431,-6.331408,0.526420,0.393397,0.076969,1.684765
2025-12-31T15:29:43.521180,9.844072,-6.790830,0.626919,0.575434,-0.020769,1.637118
2025-12-31T15:29:43.530180,10.327422,-6.829115,0.555134,0.657290,-0.142942,1.621236
2025-12-31T15:29:43.540180,11.011769,-6.685546,0.665204,0.669508,-0.211359,1.620014
2025-12-31T15:29:43.550180,11.576475,-6.307480,0.904486,0.638964,-0.190589,1.627344
2025-12-31T15:29:43.559180,11.753544,-5.986842,1.210768,0.526565,-0.109955,1.640783
2025-12-31T15:29:43.569180,11.466405,-5.733202,1.383051,0.356745,-0.019547,1.665218
2025-12-31T15:29:43.578180,11.097911,-5.795416,1.641476,0.183259,0.029321,1.685987
2025-12-31T15:29:43.588180,10.576275,-6.116054,1.928615,0.008552,0.030543,1.694539
2025-12-31T15:29:43.598180,10.159924,-6.819544,1.670190,-0.117286,0.015882,1.714087
2025-12-31T15:29:43.607180,9.939785,-7.613961,1.373480,-0.119729,0.012217,1.727526
2025-12-31T15:29:43.617180,9.633503,-8.173882,1.057627,-0.007330,0.020769,1.738522
2025-12-31T15:29:43.627180,9.332008,-8.489734,0.641276,0.197920,0.039095,1.753182
2025-12-31T15:29:43.636180,9.107082,-8.532805,0.579063,0.416610,0.035430,1.762956
2025-12-31T15:29:43.646180,9.020941,-8.303094,0.540777,0.587652,0.008552,1.776395
2025-12-31T15:29:43.655180,9.020941,-7.805387,0.842273,0.696386,-0.009773,1.788613
2025-12-31T15:29:43.665180,8.829515,-7.178467,0.918843,0.691499,-0.013439,1.793499
2025-12-31T15:29:43.675180,8.700302,-6.781259,1.057627,0.582765,-0.012217,1.776395
2025-12-31T15:29:43.684180,8.518448,-6.465406,1.110269,0.425162,-0.023212,1.740965
2025-12-31T15:29:43.694180,8.293523,-6.474977,1.402194,0.244346,-0.035430,1.696983
2025-12-31T15:29:43.703180,8.145168,-6.848258,2.024327,0.107512,-0.032986,1.660331
2025-12-31T15:29:43.713180,8.030312,-7.331608,2.172682,0.004886,-0.009773,1.639561
2025-12-31T15:29:43.723180,7.972884,-8.035098,2.110469,-0.094073,0.035430,1.649335
2025-12-31T15:29:43.732180,7.905885,-8.690731,1.622333,-0.101403,0.085521,1.661553
2025-12-31T15:29:43.742180,7.805387,-9.016155,0.875773,0.019547,0.128281,1.650557
2025-12-31T15:29:43.752180,7.623532,-9.006584,0.607776,0.171042,0.147829,1.618792
2025-12-31T15:29:43.761180,7.523034,-8.920442,0.550349,0.287106,0.140498,1.584584
2025-12-31T15:29:43.771180,7.379464,-8.618947,0.732203,0.371405,0.153938,1.535714
2025-12-31T15:29:43.780180,7.240681,-8.250452,1.048056,0.406836,0.189368,1.474628
2025-12-31T15:29:43.790180,6.967899,-7.958527,1.512263,0.365297,0.228463,1.390328
2025-12-31T15:29:43.800180,6.623332,-7.771887,1.942971,0.262671,0.259006,1.298699
2025-12-31T15:29:43.809180,6.331408,-8.001598,2.459821,0.128281,0.265115,1.198517
2025-12-31T15:29:43.819180,6.202196,-8.322237,2.703889,0.003665,0.246789,1.091005
2025-12-31T15:29:43.828180,6.307480,-8.805587,2.660818,-0.080634,0.228463,1.007927
2025-12-31T15:29:43.838180,6.345765,-9.327222,2.239681,-0.107512,0.226020,0.948062
2025-12-31T15:29:43.848180,6.407978,-9.628718,1.741974,-0.036651,0.244346,0.886976
2025-12-31T15:29:43.857180,6.350551,-9.686145,1.402194,0.041538,0.248011,0.841772
2025-12-31T15:29:43.867180,6.307480,-9.824929,1.488335,0.050090,0.213802,0.794124
2025-12-31T15:29:43.877180,6.264409,-9.868000,1.828116,0.026878,0.169820,0.726929
2025-12-31T15:29:43.886180,6.221338,-9.858429,2.172682,-0.029321,0.118507,0.640186
2025-12-31T15:29:43.896180,6.250052,-9.796215,2.488535,-0.119729,0.072082,0.525343
2025-12-31T15:29:43.905180,6.345765,-9.839286,2.770888,-0.221133,0.020769,0.406836
2025-12-31T15:29:43.915180,6.431907,-9.839286,2.890529,-0.283441,-0.019547,0.271224
2025-12-31T15:29:43.925180,6.575476,-9.671788,2.866601,-0.277332,-0.024434,0.136833
2025-12-31T15:29:43.934180,6.762116,-9.580861,2.904886,-0.210137,0.004886,-0.007330
2025-12-31T15:29:43.944180,6.790830,-9.394221,2.837887,-0.106290,0.059864,-0.136833
2025-12-31T15:29:43.953180,6.795616,-9.135796,2.397608,0.010995,0.117286,-0.267558
2025-12-31T15:29:43.963180,6.752545,-8.915657,2.019542,0.112399,0.151494,-0.403170
2025-12-31T15:29:43.973180,6.738188,-8.733802,1.832902,0.207694,0.128281,-0.544891
2025-12-31T15:29:43.982180,6.881757,-8.303094,1.751546,0.279776,0.079412,-0.707381
2025-12-31T15:29:43.992180,7.183253,-8.035098,1.847259,0.274889,0.015882,-0.872315
2025-12-31T15:29:44.002180,7.561319,-7.690531,2.206182,0.217467,-0.058643,-1.039692
2025-12-31T15:29:44.011180,8.059026,-7.274180,2.809173,0.135612,-0.118507,-1.216843
2025-12-31T15:29:44.021180,8.518448,-6.833901,3.239881,-0.006108,-0.120951,-1.367116
2025-12-31T15:29:44.030180,8.853443,-6.776473,3.651447,-0.212581,-0.067195,-1.494176
2025-12-31T15:29:44.040180,9.068797,-7.020541,3.704089,-0.436157,0.024434,-1.595579
2025-12-31T15:29:44.050180,9.054440,-7.671389,3.254238,-0.614530,0.147829,-1.672548
2025-12-31T15:29:44.059180,8.930013,-8.389236,2.359323,-0.654847,0.279776,-1.758069
2025-12-31T15:29:44.069180,8.676374,-8.930013,1.785045,-0.529009,0.381179,-1.871690
2025-12-31T15:29:44.078180,8.484948,-9.226723,1.450050,-0.350636,0.399505,-1.984089
2025-12-31T15:29:44.088180,8.470592,-9.250652,1.201196,-0.204028,0.328645,-2.076941
2025-12-31T15:29:44.098180,8.819944,-8.886943,1.344766,-0.080634,0.221133,-2.191784
2025-12-31T15:29:44.107180,9.336793,-8.126025,1.995614,-0.037873,0.107512,-2.323730
2025-12-31T15:29:44.117180,9.958927,-7.379464,2.526820,-0.172263,0.039095,-2.411695
2025-12-31T15:29:44.127180,10.590632,-6.733402,2.742174,-0.477696,0.021991,-2.454456
2025-12-31T15:29:44.136180,10.959127,-6.551548,2.397608,-0.857654,0.072082,-2.477668
2025-12-31T15:29:44.146180,10.997412,-6.637689,1.789831,-1.170417,0.171042,-2.502103
2025-12-31T15:29:44.155180,10.643274,-6.848258,1.100698,-1.320690,0.283441,-2.546085
2025-12-31T15:29:44.165180,9.949356,-7.049255,0.641276,-1.307251,0.373849,-2.623054
2025-12-31T15:29:44.175180,9.341579,-7.207181,0.114855,-1.243721,0.342084,-2.717128
2025-12-31T15:29:44.184180,9.202795,-7.489534,-0.186640,-1.175304,0.146607,-2.835635
2025-12-31T15:29:44.194180,9.777073,-7.652246,0.081355,-1.042135,-0.147829,-2.977356
2025-12-31T15:29:44.203180,11.212766,-7.771887,1.526620,-0.860098,-0.426383,-3.143511
2025-12-31T15:29:44.213180,13.007383,-7.872386,2.076970,-0.788015,-0.560774,-3.214372
2025-12-31T15:29:44.223180,14.452648,-8.059026,1.674975,-0.757472,-0.470366,-3.152063
2025-12-31T15:29:44.232180,14.950355,-8.202595,1.239482,-0.601091,-0.174707,-3.043329
2025-12-31T15:29:44.242180,14.294722,-7.848458,1.091127,-0.365297,0.195476,-2.913826
2025-12-31T15:29:44.252180,12.796815,-7.077969,1.129412,-0.179594,0.461814,-2.797762
2025-12-31T15:29:44.261180,11.289337,-6.049055,1.162911,-0.037873,0.522900,-2.761110
2025-12-31T15:29:44.271180,9.982855,-4.627718,0.808774,0.028099,0.404392,-2.809979
2025-12-31T15:29:44.280180,9.494720,-3.474378,0.813559,-0.007330,0.160046,-2.926043
2025-12-31T15:29:44.290180,9.915856,-2.766102,1.115055,-0.131946,-0.141720,-3.049438
2025-12-31T15:29:44.300180,11.059626,-2.636890,1.182054,-0.346971,-0.378736,-3.108081
2025-12-31T15:29:44.309180,12.323036,-2.957528,1.095912,-0.530230,-0.415388,-3.127629
2025-12-31T15:29:44.319180,13.198809,-3.321237,1.473978,-0.638964,-0.272445,-3.070208
2025-12-31T15:29:44.328180,13.380663,-3.608376,1.282552,-0.731816,-0.042760,-2.949256
2025-12-31T15:29:44.338180,12.725030,-4.067798,0.894915,-0.764803,0.163711,-2.833192
2025-12-31T15:29:44.348180,11.691331,-4.240081,0.741775,-0.691499,0.260228,-2.765997
2025-12-31T15:29:44.357180,10.963913,-3.976871,0.918843,-0.564439,0.189368,-2.744006
2025-12-31T15:29:44.367180,10.959127,-3.809373,1.354337,-0.427605,-0.009773,-2.765997
2025-12-31T15:29:44.377180,11.782258,-3.527020,1.555334,-0.355523,-0.238237,-2.767218
2025-12-31T15:29:44.386180,12.897313,-3.259024,0.918843,-0.324980,-0.306654,-2.698802
2025-12-31T15:29:44.396180,13.457234,-2.813959,0.459421,-0.240680,-0.105068,-2.582737
2025-12-31T15:29:44.405180,12.882956,-2.364108,0.631705,-0.178372,0.234572,-2.419025
2025-12-31T15:29:44.415180,11.619546,-1.856830,0.626919,-0.234572,0.481361,-2.234544
2025-12-31T15:29:44.425180,10.145567,-1.430907,0.440279,-0.342084,0.537561,-2.096489
2025-12-31T15:29:44.434180,9.159724,-1.048056,0.760917,-0.494800,0.426383,-1.998750
2025-12-31T15:29:44.444180,8.733802,-0.851844,0.866201,-0.742811,0.196698,-1.910786
2025-12-31T15:29:44.453180,8.791230,-0.756131,0.545563,-0.972497,-0.047647,-1.821599
2025-12-31T15:29:44.463180,9.212367,-0.818345,0.669990,-1.111774,-0.224798,-1.760513
2025-12-31T15:29:44.473180,9.863214,-0.851844,1.373480,-1.199739,-0.328645,-1.716530
2025-12-31T15:29:44.482180,10.470991,-0.952343,1.426122,-1.271821,-0.343306,-1.643227
2025-12-31T15:29:44.492180,10.719845,-1.311266,1.526620,-1.284038,-0.241902,-1.571145
2025-12-31T15:29:44.502180,10.628917,-1.909472,1.641476,-1.191186,-0.057421,-1.502728
2025-12-31T15:29:44.511180,10.116853,-2.373680,1.229910,-0.955393,0.136833,-1.441641
2025-12-31T15:29:44.521180,9.346365,-2.608176,0.971485,-0.625525,0.304210,-1.393994
2025-12-31T15:29:44.530180,8.585447,-2.455035,1.009771,-0.276111,0.388510,-1.362229
2025-12-31T15:29:44.540180,8.039883,-2.043470,0.732203,0.051312,0.392175,-1.319468
2025-12-31T15:29:44.550180,7.704888,-1.306481,0.727418,0.293215,0.334754,-1.269377
2025-12-31T15:29:44.559180,7.690531,-0.512064,0.861416,0.373849,0.240680,-1.189965
2025-12-31T15:29:44.569180,7.771887,0.306281,0.918843,0.318871,0.144164,-1.086118
2025-12-31T15:29:44.578180,7.819744,1.024128,1.177268,0.150272,0.090408,-0.985936
2025-12-31T15:29:44.588180,7.637889,1.440479,1.531406,-0.152716,0.068416,-0.886976
2025-12-31T15:29:44.598180,7.317251,1.301695,1.569691,-0.499687,0.057421,-0.799011
2025-12-31T15:29:44.607180,6.915257,0.598205,1.813759,-0.764803,0.041538,-0.750142
2025-12-31T15:29:44.617180,6.546762,-0.425922,1.928615,-0.889419,-0.002443,-0.723264
2025-12-31T15:29:44.627180,6.455835,-1.454836,1.923829,-0.800233,-0.062308,-0.713490
2025-12-31T15:29:44.636180,6.738188,-2.110469,1.598405,-0.543669,-0.094073,-0.696386
2025-12-31T15:29:44.646180,7.097111,-2.134397,1.071984,-0.174707,-0.068416,-0.646295
2025-12-31T15:29:44.655180,7.432106,-1.698904,0.564706,0.190589,0.020769,-0.570548
2025-12-31T15:29:44.665180,7.499106,-0.890130,0.234496,0.441044,0.129503,-0.455705
2025-12-31T15:29:44.675180,7.326822,0.191425,0.157926,0.537561,0.228463,-0.322536
2025-12-31T15:29:44.684180,6.762116,1.191625,0.401994,0.455705,0.309097,-0.195476
2025-12-31T15:29:44.694180,6.111268,1.756331,0.799202,0.184481,0.334754,-0.078190
2025-12-31T15:29:44.703180,5.402993,1.785045,1.038485,-0.215024,0.282219,0.020769
2025-12-31T15:29:44.713180,4.847858,1.411765,0.976271,-0.594982,0.173485,0.073303
2025-12-31T15:29:44.723180,4.575076,0.713061,0.990628,-0.873537,0.020769,0.074525
2025-12-31T15:29:44.732180,4.728217,-0.133998,0.823130,-1.007927,-0.156381,0.070860
2025-12-31T15:29:44.742180,5.130211,-0.794417,0.583848,-0.978605,-0.335975,0.050090
2025-12-31T15:29:44.752180,5.891129,-1.335195,0.521635,-0.830776,-0.463035,0.046425
2025-12-31T15:29:44.761180,6.661618,-1.751546,0.449850,-0.597426,-0.477696,0.072082
2025-12-31T15:29:44.771180,6.853043,-1.890329,0.315852,-0.283441,-0.354301,0.129503
2025-12-31T15:29:44.780180,6.532405,-1.732403,0.349352,0.068416,-0.156381,0.207694
2025-12-31T15:29:44.790180,5.848058,-1.349551,0.497707,0.382401,0.015882,0.284663
2025-12-31T15:29:44.800180,4.871786,-0.789631,0.756131,0.627969,0.095294,0.335975
2025-12-31T15:29:44.809180,4.264009,-0.119641,0.799202,0.770911,0.057421,0.370184
2025-12-31T15:29:44.819180,4.048655,0.626919,1.086341,0.774576,-0.069638,0.375071
2025-12-31T15:29:44.828180,4.297509,1.239482,1.225125,0.642630,-0.237015,0.384845
2025-12-31T15:29:44.838180,4.895715,1.569691,1.124626,0.433714,-0.379958,0.415388
2025-12-31T15:29:44.848180,5.694917,1.861615,1.421336,0.193033,-0.460592,0.437379
2025-12-31T15:29:44.857180,6.465406,1.837687,1.320838,-0.075747,-0.474031,0.464257
2025-12-31T15:29:44.867180,7.010970,1.569691,1.048056,-0.307876,-0.431270,0.489913
2025-12-31T15:29:44.877180,7.513462,1.196411,0.823130,-0.441044,-0.378736,0.498465
2025-12-31T15:29:44.886180,7.948956,0.942772,0.497707,-0.471587,-0.367740,0.488692
2025-12-31T15:29:44.896180,8.571090,0.894915,0.157926,-0.416610,-0.421496,0.450818
2025-12-31T15:29:44.905180,9.336793,1.038485,0.062213,-0.318871,-0.502131,0.395840
2025-12-31T15:29:44.915180,10.375278,1.306481,0.119641,-0.228463,-0.582765,0.339641
2025-12-31T15:29:44.925180,11.495119,1.646261,0.086141,-0.178372,-0.613308,0.311541
2025-12-31T15:29:44.934180,12.428320,1.899901,0.028713,-0.171042,-0.579100,0.302989
2025-12-31T15:29:44.944180,13.007383,2.158325,0.019142,-0.196698,-0.470366,0.315206
2025-12-31T15:29:44.953180,13.208380,2.297109,-0.043070,-0.272445,-0.300545,0.345749
2025-12-31T15:29:44.963180,12.806386,2.268395,0.124426,-0.339641,-0.123394,0.373849
2025-12-31T15:29:44.973180,11.849257,2.230110,0.354137,-0.386066,0.015882,0.397062
2025-12-31T15:29:44.982180,10.791629,2.072184,0.612562,-0.412944,0.061086,0.406836
2025-12-31T15:29:44.992180,9.734002,1.674975,0.880558,-0.412944,0.004886,0.386066
2025-12-31T15:29:45.002180,9.011369,1.148554,1.119840,-0.333532,-0.100181,0.361632
2025-12-31T15:29:45.011180,8.499305,0.794417,1.225125,-0.144164,-0.195476,0.315206
2025-12-31T15:29:45.021180,8.178667,0.631705,1.459621,0.128281,-0.263893,0.249232
2025-12-31T15:29:45.030180,8.030312,0.617348,1.526620,0.419053,-0.316428,0.183259
2025-12-31T15:29:45.040180,8.197810,0.933200,1.540977,0.703716,-0.356745,0.120951
2025-12-31T15:29:45.050180,8.528019,1.540977,1.627119,0.934623,-0.394618,0.051312
2025-12-31T15:29:45.059180,9.087940,2.254038,1.655833,1.045801,-0.390953,0.003665
2025-12-31T15:29:45.069180,9.580861,2.938386,1.584048,1.016479,-0.323758,-0.019547
2025-12-31T15:29:45.078180,9.877571,3.450450,1.593619,0.866206,-0.202807,-0.037873
2025-12-31T15:29:45.088180,9.868000,3.895515,1.531406,0.585208,-0.070860,-0.032986
2025-12-31T15:29:45.098180,9.786644,4.010370,1.493121,0.194255,-0.012217,-0.019547
2025-12-31T15:29:45.107180,9.824929,3.665804,1.392622,-0.224798,-0.052534,-0.018325
2025-12-31T15:29:45.117180,10.155139,3.139383,1.316052,-0.577878,-0.162490,-0.031764
2025-12-31T15:29:45.127180,10.844272,2.421536,0.942772,-0.841772,-0.276111,-0.026878
2025-12-31T15:29:45.136180,11.566904,1.727617,0.756131,-0.963945,-0.345749,-0.019547
2025-12-31T15:29:45.146180,12.203395,1.191625,0.698704,-0.937067,-0.329867,-0.010995
2025-12-31T15:29:45.155180,12.485748,0.856630,0.626919,-0.824667,-0.221133,0.030543
2025-12-31T15:29:45.165180,12.193823,0.550349,0.698704,-0.641408,-0.032986,0.059864
2025-12-31T15:29:45.175180,11.346764,0.397208,0.966700,-0.394618,0.177150,0.067195
2025-12-31T15:29:45.184180,10.188638,0.320638,1.062413,-0.142942,0.310319,0.047647
2025-12-31T15:29:45.194180,9.121439,0.248853,1.249053,0.094073,0.321315,-0.002443
2025-12-31T15:29:45.203180,8.441878,0.186640,1.354337,0.342084,0.227241,-0.062308
2025-12-31T15:29:45.213180,8.226524,0.378065,1.296909,0.587652,0.091629,-0.131946
2025-12-31T15:29:45.223180,8.480163,0.784845,1.378265,0.766024,-0.036651,-0.185702
2025-12-31T15:29:45.232180,9.121439,1.373480,1.493121,0.833220,-0.124616,-0.215024
2025-12-31T15:29:45.242180,9.891928,2.033899,1.339980,0.777020,-0.138055,-0.191811
2025-12-31T15:29:45.252180,10.356136,2.507678,1.306481,0.586430,-0.069638,-0.149051
2025-12-31T15:29:45.261180,10.657631,2.723032,1.306481,0.288328,0.040317,-0.072082
2025-12-31T15:29:45.271180,10.413563,2.569891,1.244267,-0.061086,0.146607,0.019547
2025-12-31T15:29:45.280180,10.054640,2.048256,1.277767,-0.384845,0.206472,0.089186
2025-12-31T15:29:45.290180,9.705288,1.220339,1.038485,-0.605978,0.210137,0.136833
2025-12-31T15:29:45.300180,9.451649,0.459421,1.038485,-0.670729,0.166155,0.151494
2025-12-31T15:29:45.309180,9.403792,-0.177068,1.067198,-0.605978,0.097738,0.161268
2025-12-31T15:29:45.319180,9.504291,-0.579063,1.105484,-0.482583,0.035430,0.157603
2025-12-31T15:29:45.328180,9.609575,-1.009771,1.167697,-0.315206,0.024434,0.164933
2025-12-31T15:29:45.338180,9.734002,-1.143769,1.076770,-0.091629,0.053756,0.172263
2025-12-31T15:29:45.348180,9.647860,-1.024128,0.933200,0.140498,0.101403,0.185702
2025-12-31T15:29:45.357180,9.600004,-0.775274,0.794417,0.334754,0.149051,0.185702
2025-12-31T15:29:45.367180,9.537790,-0.602991,0.827916,0.459370,0.175929,0.193033
2025-12-31T15:29:45.377180,9.451649,-0.425922,0.885344,0.529009,0.186924,0.211359
2025-12-31T15:29:45.386180,9.413364,-0.090927,1.038485,0.533896,0.195476,0.243124
2025-12-31T15:29:45.396180,9.365507,0.220139,1.086341,0.459370,0.202807,0.280997
2025-12-31T15:29:45.405180,9.221938,0.301495,1.325623,0.299323,0.201585,0.334754
2025-12-31T15:29:45.415180,9.221938,0.320638,1.349551,0.094073,0.169820,0.390953
2025-12-31T15:29:45.425180,9.083154,-0.119641,1.201196,-0.106290,0.127059,0.449596
2025-12-31T15:29:45.434180,9.150153,-0.732203,1.019342,-0.216246,0.083077,0.505796
2025-12-31T15:29:45.444180,9.178867,-1.263410,0.880558,-0.186924,0.061086,0.544891
2025-12-31T15:29:45.453180,9.078368,-1.540977,0.756131,-0.069638,0.081855,0.577878
2025-12-31T15:29:45.463180,8.920442,-1.703689,0.756131,0.097738,0.131946,0.618195
2025-12-31T15:29:45.473180,8.542376,-1.564905,0.698704,0.284663,0.201585,0.662177
2025-12-31T15:29:45.482180,7.915457,-1.277767,0.866201,0.449596,0.265115,0.697607
2025-12-31T15:29:45.492180,7.274180,-0.899701,0.923629,0.555887,0.283441,0.725707
2025-12-31T15:29:45.502180,6.781259,-0.574277,1.134197,0.591317,0.252898,0.724486
2025-12-31T15:29:45.511180,6.494120,-0.401994,1.272981,0.554665,0.189368,0.723264
2025-12-31T15:29:45.521180,6.441478,-0.521635,1.277767,0.494800,0.124616,0.726929
2025-12-31T15:29:45.530180,6.623332,-0.626919,1.244267,0.461814,0.050090,0.722042
2025-12-31T15:29:45.540180,6.967899,-0.780060,1.115055,0.469144,-0.036651,0.720820
2025-12-31T15:29:45.550180,7.590033,-0.765703,0.937986,0.491135,-0.108733,0.731816
2025-12-31T15:29:45.559180,8.178667,-0.784845,0.780060,0.502131,-0.109955,0.764803
2025-12-31T15:29:45.569180,8.528019,-0.732203,0.588634,0.508239,-0.034208,0.830776
2025-12-31T15:29:45.578180,8.384450,-0.689132,0.411565,0.502131,0.086742,0.917519
2025-12-31T15:29:45.588180,7.738388,-0.818345,0.478564,0.493579,0.189368,1.017701
2025-12-31T15:29:45.598180,7.087540,-0.827916,0.545563,0.483805,0.213802,1.100778
2025-12-31T15:29:45.607180,6.556333,-0.818345,0.598205,0.460592,0.155159,1.161865
2025-12-31T15:29:45.617180,6.345765,-0.789631,0.689132,0.401949,0.039095,1.188743
2025-12-31T15:29:45.627180,6.412764,-0.933200,0.636490,0.331088,-0.081855,1.211956
2025-12-31T15:29:45.636180,6.714260,-1.172483,0.631705,0.304210,-0.193033,1.220508
2025-12-31T15:29:45.646180,7.331608,-1.373480,0.708275,0.331088,-0.296880,1.208291
2025-12-31T15:29:45.655180,8.020741,-1.560120,0.698704,0.377514,-0.351858,1.203404
2025-12-31T15:29:45.665180,8.561519,-1.627119,0.478564,0.459370,-0.316428,1.203404
2025-12-31T15:29:45.675180,8.843872,-1.612762,0.401994,0.569326,-0.216246,1.216843
2025-12-31T15:29:45.684180,8.733802,-1.517049,0.344566,0.662177,-0.101403,1.249830
2025-12-31T15:29:45.694180,8.231309,-1.292124,0.588634,0.733038,-0.019547,1.291368
2025-12-31T15:29:45.703180,7.843672,-0.985842,0.832702,0.770911,0.017104,1.329242
2025-12-31T15:29:45.713180,7.590033,-0.669990,1.028913,0.715933,-0.001221,1.358564
2025-12-31T15:29:45.723180,7.556533,-0.574277,0.894915,0.547335,-0.061086,1.401324
2025-12-31T15:29:45.732180,7.795816,-0.861416,0.818345,0.351858,-0.129503,1.437976
2025-12-31T15:29:45.742180,7.977670,-1.210768,0.990628,0.191811,-0.175929,1.457524
2025-12-31T15:29:45.752180,8.193024,-1.746760,1.191625,0.097738,-0.186924,1.475850
2025-12-31T15:29:45.761180,8.398807,-2.148754,1.201196,0.103847,-0.172263,1.485623
2025-12-31T15:29:45.771180,8.379664,-2.292324,1.129412,0.173485,-0.134390,1.492954
2025-12-31T15:29:45.780180,8.398807,-2.378465,1.033699,0.271224,-0.100181,1.510058
2025-12-31T15:29:45.790180,8.173882,-2.206182,0.746560,0.378736,-0.084299,1.524719
2025-12-31T15:29:45.800180,7.953742,-2.096112,0.550349,0.498465,-0.086742,1.524719
2025-12-31T15:29:45.809180,7.901100,-1.909472,0.540777,0.603534,-0.095294,1.521054
2025-12-31T15:29:45.819180,7.939385,-1.574477,0.497707,0.634077,-0.120951,1.512502
2025-12-31T15:29:45.828180,8.030312,-1.464407,0.440279,0.570548,-0.138055,1.523497
2025-12-31T15:29:45.838180,8.250452,-1.617548,0.555134,0.444709,-0.167377,1.539380
2025-12-31T15:29:45.848180,8.451449,-1.928615,0.674775,0.306654,-0.199142,1.576031
2025-12-31T15:29:45.857180,8.705088,-2.368894,0.818345,0.197920,-0.224798,1.605353
2025-12-31T15:29:45.867180,9.040083,-2.665604,0.952343,0.130725,-0.233350,1.623679
2025-12-31T15:29:45.877180,9.178867,-2.799602,0.837487,0.081855,-0.217467,1.635896
2025-12-31T15:29:45.886180,9.174081,-2.986242,0.555134,0.053756,-0.189368,1.633453
2025-12-31T15:29:45.896180,9.236295,-3.201596,0.421136,0.062308,-0.185702,1.609018
2025-12-31T15:29:45.905180,9.231509,-3.498306,0.210568,0.111177,-0.211359,1.560149
2025-12-31T15:29:45.915180,9.355936,-3.656232,-0.047856,0.213802,-0.243124,1.488067
2025-12-31T15:29:45.925180,9.686145,-3.737588,-0.196211,0.324980,-0.259006,1.412320
2025-12-31T15:29:45.934180,9.925428,-3.656232,-0.315852,0.397062,-0.251676,1.362229
2025-12-31T15:29:45.944180,10.073783,-3.742374,-0.133998,0.384845,-0.246789,1.347568
2025-12-31T15:29:45.953180,10.179067,-3.857230,-0.071784,0.312762,-0.238237,1.362229
2025-12-31T15:29:45.963180,10.188638,-4.096512,-0.133998,0.230907,-0.227241,1.395215
2025-12-31T15:29:45.973180,10.169496,-4.374079,-0.076570,0.156381,-0.234572,1.422093
2025-12-31T15:29:45.982180,10.179067,-4.570291,0.220139,0.118507,-0.274889,1.440419
2025-12-31T15:29:45.992180,10.255637,-4.622933,0.258424,0.105068,-0.323758,1.456302
2025-12-31T15:29:46.002180,10.317851,-4.675575,0.320638,0.129503,-0.326201,1.459967
2025-12-31T15:29:46.011180,10.327422,-4.656432,0.349352,0.188146,-0.274889,1.447750
2025-12-31T15:29:46.021180,10.131210,-4.819144,0.425922,0.254119,-0.205250,1.423315
2025-12-31T15:29:46.030180,9.906285,-4.929214,0.421136,0.301767,-0.153938,1.390328
2025-12-31T15:29:46.040180,9.662217,-5.178068,0.090927,0.338419,-0.134390,1.341459
2025-12-31T15:29:46.050180,9.710074,-5.469992,-0.153140,0.365297,-0.179594,1.290147
2025-12-31T15:29:46.059180,9.973284,-5.694917,-0.043070,0.393397,-0.254119,1.238834
2025-12-31T15:29:46.069180,10.485348,-5.848058,0.200997,0.398284,-0.320093,1.216843
2025-12-31T15:29:46.078180,10.959127,-5.795416,0.363709,0.356745,-0.328645,1.207069
2025-12-31T15:29:46.088180,11.078768,-5.828915,0.660419,0.295658,-0.254119,1.213178
2025-12-31T15:29:46.098180,10.839486,-5.651846,0.933200,0.215024,-0.141720,1.231504
2025-12-31T15:29:46.107180,10.260423,-5.627918,1.033699,0.107512,-0.046425,1.236390
2025-12-31T15:29:46.117180,9.643075,-5.824130,1.296909,0.023212,-0.013439,1.199739
2025-12-31T15:29:46.127180,9.212367,-6.264409,1.526620,-0.036651,-0.041538,1.144761
2025-12-31T15:29:46.136180,9.150153,-6.862615,1.617548,-0.061086,-0.078190,1.084896
2025-12-31T15:29:46.146180,9.212367,-7.460820,1.263410,0.001221,-0.075747,1.036027
2025-12-31T15:29:46.155180,9.241080,-7.848458,0.626919,0.135612,-0.025656,1.018923
2025-12-31T15:29:46.165180,9.198010,-8.030312,0.196211,0.266337,0.019547,1.025031
2025-12-31T15:29:46.175180,9.193224,-8.020741,0.301495,0.349414,0.026878,1.048244
2025-12-31T15:29:46.184180,9.131011,-7.891528,0.574277,0.359188,0.003665,1.082452
2025-12-31T15:29:46.194180,9.107082,-7.618747,0.847059,0.295658,-0.009773,1.122770
2025-12-31T15:29:46.203180,8.977870,-7.274180,1.162911,0.184481,0.006108,1.164308
2025-12-31T15:29:46.213180,8.604590,-7.173682,1.215553,0.019547,0.021991,1.191186
2025-12-31T15:29:46.223180,8.212167,-7.307680,1.335195,-0.155159,0.015882,1.202182
2025-12-31T15:29:46.232180,7.934599,-7.800601,1.737189,-0.250454,-0.017104,1.172861
2025-12-31T15:29:46.242180,7.834101,-8.456235,1.823330,-0.254119,-0.056199,1.133765
2025-12-31T15:29:46.252180,7.814958,-9.121439,1.526620,-0.204028,-0.064751,1.115439
2025-12-31T15:29:46.261180,7.743173,-9.671788,1.086341,-0.024434,-0.028099,1.093448
2025-12-31T15:29:46.271180,7.542176,-9.915856,0.626919,0.223576,0.019547,1.087339
2025-12-31T15:29:46.280180,7.326822,-9.930213,0.435493,0.403170,0.025656,1.116661
2025-12-31T15:29:46.290180,7.159325,-9.882357,0.569491,0.538783,-0.008552,1.144761
2025-12-31T15:29:46.300180,7.154539,-9.466006,0.928415,0.634077,-0.057421,1.160643
2025-12-31T15:29:46.309180,7.144968,-9.059226,1.205982,0.610865,-0.113620,1.170417
2025-12-31T15:29:46.319180,7.417750,-8.805587,1.421336,0.509461,-0.174707,1.156978
2025-12-31T15:29:46.328180,7.666603,-8.618947,1.373480,0.395840,-0.215024,1.144761
2025-12-31T15:29:46.338180,7.848458,-8.480163,1.272981,0.280997,-0.194255,1.128878
2025-12-31T15:29:46.348180,7.896314,-8.618947,1.244267,0.204028,-0.112399,1.100778
2025-12-31T15:29:46.357180,7.666603,-8.700302,1.306481,0.166155,-0.025656,1.100778
2025-12-31T15:29:46.367180,7.226324,-8.867800,1.124626,0.138055,0.024434,1.086118
2025-12-31T15:29:46.377180,6.915257,-8.992227,1.057627,0.114842,0.015882,1.064127
2025-12-31T15:29:46.386180,6.905686,-9.245866,1.095912,0.112399,-0.065973,1.020144
2025-12-31T15:29:46.396180,7.211967,-9.403792,0.990628,0.111177,-0.158824,0.994488
2025-12-31T15:29:46.405180,7.628318,-9.580861,0.923629,0.117286,-0.205250,0.985936
2025-12-31T15:29:46.415180,8.035098,-9.595218,0.971485,0.169820,-0.166155,0.988379
2025-12-31T15:29:46.425180,8.025527,-9.250652,1.110269,0.227241,-0.050090,1.007927
2025-12-31T15:29:46.434180,7.671389,-8.834301,1.119840,0.244346,0.101403,1.036027
2025-12-31T15:29:46.444180,7.044469,-8.427521,1.263410,0.216246,0.217467,1.036027
2025-12-31T15:29:46.453180,6.427121,-8.097311,1.603191,0.139277,0.246789,1.001818
2025-12-31T15:29:46.463180,6.029912,-8.102097,1.698904,0.001221,0.188146,0.934623
2025-12-31T15:29:46.473180,6.082555,-8.269594,1.746760,-0.141720,0.083077,0.851545
2025-12-31T15:29:46.482180,6.336194,-8.547162,1.708475,-0.254119,-0.012217,0.763581
2025-12-31T15:29:46.492180,6.690331,-8.882157,1.679761,-0.313984,-0.046425,0.681725
2025-12-31T15:29:46.502180,6.900900,-9.087940,1.488335,-0.294436,0.018325,0.612086
2025-12-31T15:29:46.511180,6.934399,-9.078368,1.325623,-0.226020,0.129503,0.546113
2025-12-31T15:29:46.521180,6.570690,-9.083154,1.330409,-0.155159,0.224798,0.477696
2025-12-31T15:29:46.530180,6.130411,-8.925228,1.244267,-0.095294,0.274889,0.394618
2025-12-31T15:29:46.540180,5.795416,-8.714659,1.244267,-0.051312,0.270002,0.295658
2025-12-31T15:29:46.550180,5.608776,-8.489734,1.584048,-0.030543,0.215024,0.164933
2025-12-31T15:29:46.559180,5.570491,-8.288737,1.928615,-0.028099,0.139277,0.025656
2025-12-31T15:29:46.569180,5.862415,-8.307880,2.321037,-0.054977,0.072082,-0.112399
2025-12-31T15:29:46.578180,6.240481,-8.470592,2.498106,-0.095294,0.035430,-0.232128
2025-12-31T15:29:46.588180,6.585047,-8.504091,2.478964,-0.105068,0.056199,-0.351858
2025-12-31T15:29:46.598180,6.886543,-8.537591,2.196611,-0.102625,0.140498,-0.448374
2025-12-31T15:29:46.607180,6.800401,-8.666803,1.780260,-0.128281,0.238237,-0.521678
2025-12-31T15:29:46.617180,6.642475,-8.791230,1.473978,-0.178372,0.285884,-0.603534
2025-12-31T15:29:46.627180,6.460621,-8.949156,1.339980,-0.216246,0.265115,-0.709825
2025-12-31T15:29:46.636180,6.355336,-9.040083,1.215553,-0.248011,0.195476,-0.825889
2025-12-31T15:29:46.646180,6.647261,-9.198010,1.344766,-0.263893,0.084299,-0.960279
2025-12-31T15:29:46.655180,7.159325,-9.241080,1.588834,-0.227241,-0.039095,-1.114217
2025-12-31T15:29:46.665180,7.958527,-9.111868,1.603191,-0.166155,-0.117286,-1.258382
2025-12-31T15:29:46.675180,8.690731,-8.863014,1.540977,-0.070860,-0.103847,-1.385442
2025-12-31T15:29:46.684180,9.370293,-8.475377,1.612762,0.045204,-0.006108,-1.496619
2025-12-31T15:29:46.694180,9.561719,-7.939385,1.627119,0.141720,0.155159,-1.593136
2025-12-31T15:29:46.703180,9.327222,-7.336394,1.445264,0.173485,0.331088,-1.667661
2025-12-31T15:29:46.713180,8.834301,-6.939185,1.119840,0.042760,0.416610,-1.727526
2025-12-31T15:29:46.723180,8.542376,-6.910471,0.698704,-0.188146,0.344527,-1.806938
2025-12-31T15:29:46.732180,8.647660,-6.948756,0.650847,-0.397062,0.166155,-1.924225
2025-12-31T15:29:46.742180,9.308079,-7.154539,1.383051,-0.581543,-0.046425,-2.068389
2025-12-31T15:29:46.752180,10.279565,-7.432106,1.708475,-0.792902,-0.202807,-2.153910
2025-12-31T15:29:46.761180,11.394621,-7.853243,1.531406,-0.937067,-0.222354,-2.200336
2025-12-31T15:29:46.771180,12.179467,-8.078169,0.995414,-0.963945,-0.073303,-2.205223
2025-12-31T15:29:46.780180,12.227323,-8.183453,0.454636,-0.886976,0.193033,-2.183231
2025-12-31T15:29:46.790180,11.456834,-8.015955,0.205782,-0.736703,0.489913,-2.153910
2025-12-31T15:29:46.800180,10.284351,-7.355536,0.153140,-0.557108,0.711046,-2.164905
2025-12-31T15:29:46.809180,8.834301,-6.288337,0.052642,-0.437379,0.770911,-2.238209
2025-12-31T15:29:46.819180,7.743173,-5.278566,-0.215354,-0.430049,0.635299,-2.386039
2025-12-31T15:29:46.828180,7.264609,-4.584648,-0.033499,-0.525343,0.333532,-2.610837
2025-12-31T15:29:46.838180,8.011170,-4.723431,0.531206,-0.731816,-0.103847,-2.855183
2025-12-31T15:29:46.848180,9.896714,-5.623133,0.746560,-0.990823,-0.577878,-3.021338
2025-12-31T15:29:46.857180,12.586246,-6.910471,0.583848,-1.120326,-0.845437,-3.108081
2025-12-31T15:29:46.867180,14.979069,-8.154739,0.373280,-1.050687,-0.736703,-3.062877
2025-12-31T15:29:46.877180,15.960126,-8.690731,0.047856,-0.805120,-0.262671,-2.879618
2025-12-31T15:29:46.886180,15.127424,-8.523234,-0.129212,-0.469144,0.359188,-2.647489
2025-12-31T15:29:46.896180,12.959527,-7.704888,-0.057427,-0.145385,0.835663,-2.456899
2025-12-31T15:29:46.905180,10.437492,-6.494120,-0.043070,0.041538,0.972497,-2.361604
2025-12-31T15:29:46.915180,8.609375,-5.245067,0.186640,0.063529,0.740368,-2.378708
2025-12-31T15:29:46.925180,7.987241,-4.488935,1.110269,-0.002443,0.284663,-2.506990
2025-12-31T15:29:46.934180,8.685946,-4.010370,2.038684,-0.147829,-0.222354,-2.667037
2025-12-31T15:29:46.944180,10.595418,-3.948157,1.899901,-0.323758,-0.576656,-2.768440
2025-12-31T15:29:46.953180,12.681959,-4.015156,1.244267,-0.367740,-0.587652,-2.811201
2025-12-31T15:29:46.963180,13.935798,-3.885943,0.516849,-0.241902,-0.249232,-2.762332
2025-12-31T15:29:46.973180,14.060225,-3.455235,0.445065,-0.129503,0.261450,-2.623054
2025-12-31T15:29:46.982180,13.002598,-3.215953,0.569491,-0.186924,0.691499,-2.437351
2025-12-31T15:29:46.992180,11.552547,-3.139383,0.803988,-0.344527,0.897971,-2.293187
2025-12-31T15:29:47.002180,10.399207,-2.957528,1.258624,-0.507018,0.874758,-2.216218
2025-12-31T15:29:47.011180,9.805787,-2.718246,1.674975,-0.722042,0.673173,-2.173458
2025-12-31T15:29:47.021180,9.978070,-2.579462,1.574477,-1.009149,0.392175,-2.130697
2025-12-31T15:29:47.030180,10.657631,-2.837887,1.383051,-1.236390,0.155159,-2.087936
2025-12-31T15:29:47.040180,11.475977,-3.244667,1.220339,-1.345124,0.036651,-2.029293
2025-12-31T15:29:47.050180,12.122039,-3.594019,1.119840,-1.335351,0.063529,-1.960877
2025-12-31T15:29:47.059180,12.093325,-3.842873,0.636490,-1.188743,0.215024,-1.887573
2025-12-31T15:29:47.069180,11.614760,-3.728017,0.502492,-0.919962,0.410501,-1.837482
2025-12-31T15:29:47.078180,10.676774,-3.426521,0.287138,-0.621860,0.532674,-1.837482
2025-12-31T15:29:47.088180,9.738787,-3.125026,0.081355,-0.342084,0.522900,-1.864360
2025-12-31T15:29:47.098180,9.164510,-2.952743,0.282353,-0.073303,0.399505,-1.919338
2025-12-31T15:29:47.107180,9.054440,-2.852244,0.248853,0.178372,0.215024,-1.955990
2025-12-31T15:29:47.117180,9.408578,-2.670390,0.330209,0.403170,0.057421,-1.965763
2025-12-31T15:29:47.127180,10.001998,-2.507678,0.445065,0.597426,-0.019547,-1.919338
2025-12-31T15:29:47.136180,10.518848,-2.158325,0.492921,0.741590,0.010995,-1.815491
2025-12-31T15:29:47.146180,10.595418,-1.646261,0.655633,0.806341,0.153938,-1.663996
2025-12-31T15:29:47.155180,10.198209,-0.966700,0.827916,0.791681,0.355523,-1.505171
2025-12-31T15:29:47.165180,9.365507,-0.282353,0.890130,0.690277,0.531452,-1.357342
2025-12-31T15:29:47.175180,8.374879,0.354137,0.851844,0.485026,0.598647,-1.259603
2025-12-31T15:29:47.184180,7.575676,0.794417,1.014556,0.173485,0.521678,-1.192408
2025-12-31T15:29:47.194180,7.159325,0.765703,1.033699,-0.194255,0.316428,-1.152091
2025-12-31T15:29:47.203180,7.350751,0.459421,0.904486,-0.531452,0.062308,-1.121548
2025-12-31T15:29:47.213180,7.915457,-0.076570,0.837487,-0.772133,-0.153938,-1.086118
2025-12-31T15:29:47.223180,8.590233,-0.593420,0.598205,-0.894306,-0.267558,-1.018923
2025-12-31T15:29:47.232180,9.092725,-0.914058,0.387637,-0.890641,-0.262671,-0.932180
2025-12-31T15:29:47.242180,9.207581,-1.167697,0.339780,-0.794124,-0.162490,-0.835663
2025-12-31T15:29:47.252180,8.934799,-1.182054,0.330209,-0.626747,-0.018325,-0.740368
2025-12-31T15:29:47.261180,8.212167,-1.081555,0.306281,-0.438601,0.117286,-0.670729
2025-12-31T15:29:47.271180,7.341179,-1.033699,0.133998,-0.287106,0.179594,-0.624304
2025-12-31T15:29:47.280180,6.628118,-1.043270,0.124426,-0.150272,0.127059,-0.608421
2025-12-31T15:29:47.290180,6.216553,-1.191625,0.095712,-0.013439,-0.041538,-0.609643
2025-12-31T15:29:47.300180,6.498906,-1.067198,0.047856,0.146607,-0.288328,-0.603534
2025-12-31T15:29:47.309180,7.331608,-0.780060,0.196211,0.310319,-0.521678,-0.593760
2025-12-31T15:29:47.319180,8.331808,-0.306281,0.239282,0.430049,-0.624304,-0.541226
2025-12-31T15:29:47.328180,8.987441,0.167497,0.287138,0.482583,-0.527787,-0.438601
2025-12-31T15:29:47.338180,8.709874,0.607776,0.526420,0.483805,-0.266337,-0.313984
2025-12-31T15:29:47.348180,7.556533,0.775274,0.756131,0.404392,0.024434,-0.182037
2025-12-31T15:29:47.357180,5.991627,0.679561,0.760917,0.294436,0.204028,-0.078190
2025-12-31T15:29:47.367180,4.364508,0.579063,0.870987,0.213802,0.213802,-0.024434
2025-12-31T15:29:47.377180,3.211167,0.339780,1.076770,0.146607,0.076969,-0.013439
2025-12-31T15:29:47.386180,2.622533,0.311066,1.110269,0.090408,-0.134390,-0.006108
2025-12-31T15:29:47.396180,2.598605,0.181854,1.177268,0.030543,-0.332310,-0.009773
2025-12-31T15:29:47.405180,2.823530,0.124426,1.311266,-0.059864,-0.463035,0.006108
2025-12-31T15:29:47.415180,3.254238,-0.057427,1.272981,-0.168598,-0.525343,0.046425
2025-12-31T15:29:47.425180,3.632304,-0.229710,1.320838,-0.254119,-0.543669,0.094073
2025-12-31T15:29:47.434180,3.981656,-0.435493,1.368694,-0.304210,-0.538783,0.130725
2025-12-31T15:29:47.444180,4.211367,-0.507278,1.473978,-0.291993,-0.504574,0.161268
2025-12-31T15:29:47.453180,4.465006,-0.641276,1.521835,-0.233350,-0.439822,0.172263
2025-12-31T15:29:47.463180,4.546362,-0.512064,1.258624,-0.162490,-0.367740,0.195476
2025-12-31T15:29:47.473180,4.723431,-0.488135,1.086341,-0.079412,-0.331088,0.201585
2025-12-31T15:29:47.482180,5.101497,-0.373280,0.976271,0.000000,-0.362853,0.195476
2025-12-31T15:29:47.492180,5.790630,0.000000,0.813559,0.047647,-0.443488,0.186924
2025-12-31T15:29:47.502180,6.647261,0.272781,0.722632,0.042760,-0.524122,0.162490
2025-12-31T15:29:47.511180,7.647461,0.411565,0.665204,-0.008552,-0.588873,0.147829
2025-12-31T15:29:47.521180,8.786444,0.440279,0.545563,-0.065973,-0.664621,0.119729
2025-12-31T15:29:47.530180,10.073783,0.483350,0.248853,-0.105068,-0.750142,0.084299
2025-12-31T15:29:47.540180,11.600403,0.526420,-0.023928,-0.107512,-0.827111,0.045204
2025-12-31T15:29:47.550180,13.002598,0.689132,-0.301495,-0.065973,-0.893084,0.023212
2025-12-31T15:29:47.559180,14.620146,0.937986,-0.674775,-0.043982,-0.904080,0.026878
2025-12-31T15:29:47.569180,15.744772,1.071984,-0.574277,0.010995,-0.759916,0.075747
2025-12-31T15:29:47.578180,15.730415,1.268195,-0.177068,0.100181,-0.398284,0.164933
2025-12-31T15:29:47.588180,14.356935,1.397408,0.325423,0.167377,0.062308,0.294436
2025-12-31T15:29:47.598180,12.098111,1.282552,0.957129,0.222354,0.433714,0.401949
2025-12-31T15:29:47.607180,9.489934,1.177268,1.306481,0.312762,0.566882,0.461814
2025-12-31T15:29:47.617180,7.489534,1.009771,1.674975,0.444709,0.441044,0.463035
2025-12-31T15:29:47.627180,6.144768,1.076770,1.856830,0.605978,0.157603,0.431270
2025-12-31T15:29:47.636180,5.814558,1.282552,1.780260,0.768468,-0.168598,0.381179
2025-12-31T15:29:47.646180,6.307480,1.871187,1.698904,0.897971,-0.449596,0.315206
2025-12-31T15:29:47.655180,7.456035,2.675175,1.545763,0.950506,-0.616973,0.256563
2025-12-31T15:29:47.665180,8.733802,3.388236,1.368694,0.863763,-0.632856,0.204028
2025-12-31T15:29:47.675180,9.839286,3.838087,1.359123,0.642630,-0.498465,0.178372
2025-12-31T15:29:47.684180,10.418349,4.106083,1.205982,0.342084,-0.282219,0.175929
2025-12-31T15:29:47.694180,10.518848,4.149154,0.870987,-0.003665,-0.072082,0.171042
2025-12-31T15:29:47.703180,10.533205,3.957728,0.736989,-0.351858,0.053756,0.168598
2025-12-31T15:29:47.713180,10.518848,3.570091,0.507278,-0.670729,0.079412,0.166155
2025-12-31T15:29:47.723180,10.705488,3.053241,0.100498,-0.938288,0.041538,0.167377
2025-12-31T15:29:47.732180,11.069197,2.526820,0.033499,-1.123991,-0.010995,0.158824
2025-12-31T15:29:47.742180,11.380264,1.919043,-0.143569,-1.210734,-0.040317,0.150272
2025-12-31T15:29:47.752180,11.519047,1.416550,-0.110069,-1.182634,-0.021991,0.142942
2025-12-31T15:29:47.761180,11.471191,0.971485,-0.004785,-1.062905,0.030543,0.111177
2025-12-31T15:29:47.771180,11.298908,0.679561,-0.057427,-0.879645,0.087964,0.064751
2025-12-31T15:29:47.780180,10.877771,0.282353,0.196211,-0.646295,0.135612,0.004886
2025-12-31T15:29:47.790180,10.427920,-0.004785,0.287138,-0.382401,0.164933,-0.062308
2025-12-31T15:29:47.800180,9.958927,-0.081355,0.416351,-0.094073,0.188146,-0.127059
2025-12-31T15:29:47.809180,9.494720,-0.081355,0.468993,0.185702,0.205250,-0.183259
2025-12-31T15:29:47.819180,9.111868,0.105284,0.483350,0.428827,0.207694,-0.227241
2025-12-31T15:29:47.828180,8.858229,0.478564,0.516849,0.605978,0.182037,-0.261450
2025-12-31T15:29:47.838180,8.791230,0.832702,0.574277,0.697607,0.135612,-0.283441
2025-12-31T15:29:47.848180,8.853443,1.258624,0.655633,0.708603,0.072082,-0.294436
2025-12-31T15:29:47.857180,9.154939,1.703689,0.727418,0.641408,0.024434,-0.293215
2025-12-31T15:29:47.867180,9.489934,1.909472,0.803988,0.493579,-0.001221,-0.282219
2025-12-31T15:29:47.877180,9.829715,1.942971,0.861416,0.313984,0.007330,-0.256563
2025-12-31T15:29:47.886180,10.107282,1.904686,0.780060,0.135612,0.045204,-0.218689
2025-12-31T15:29:47.896180,10.217352,1.808973,0.674775,-0.026878,0.095294,-0.171042
2025-12-31T15:29:47.905180,10.231709,1.694118,0.593420,-0.171042,0.130725,-0.122173
2025-12-31T15:29:47.915180,10.183852,1.397408,0.550349,-0.280997,0.142942,-0.089186
2025-12-31T15:29:47.925180,10.164710,1.162911,0.382851,-0.357966,0.140498,-0.046425
2025-12-31T15:29:47.934180,10.131210,0.914058,0.330209,-0.392175,0.129503,-0.012217
2025-12-31T15:29:47.944180,10.140782,0.665204,0.440279,-0.372627,0.135612,0.013439
2025-12-31T15:29:47.953180,10.073783,0.445065,0.598205,-0.329867,0.151494,0.031764
2025-12-31T15:29:47.963180,9.896714,0.272781,0.813559,-0.278554,0.171042,0.057421
2025-12-31T15:29:47.973180,9.753144,0.110069,0.909272,-0.216246,0.183259,0.076969
2025-12-31T15:29:47.982180,9.571290,0.009571,0.937986,-0.168598,0.188146,0.108733
2025-12-31T15:29:47.992180,9.499505,-0.157926,0.914058,-0.136833,0.186924,0.147829
2025-12-31T15:29:48.002180,9.422935,-0.177068,0.837487,-0.103847,0.195476,0.184481
2025-12-31T15:29:48.011180,9.413364,-0.177068,0.770488,-0.074525,0.215024,0.228463
2025-12-31T15:29:48.021180,9.284151,-0.057427,0.708275,-0.053756,0.215024,0.251676
2025-12-31T15:29:48.030180,9.284151,-0.004785,0.818345,-0.037873,0.188146,0.272445
2025-12-31T15:29:48.040180,9.288937,0.009571,1.009771,-0.037873,0.168598,0.280997
2025-12-31T15:29:48.050180,9.164510,-0.038285,1.076770,-0.035430,0.201585,0.298102
2025-12-31T15:29:48.059180,8.920442,-0.162711,1.081555,-0.003665,0.268780,0.306654
2025-12-31T15:29:48.069180,8.470592,-0.253639,1.033699,0.046425,0.318871,0.307876
2025-12-31T15:29:48.078180,7.939385,-0.373280,1.134197,0.105068,0.322536,0.305432
2025-12-31T15:29:48.088180,7.585247,-0.445065,1.205982,0.172263,0.287106,0.302989
2025-12-31T15:29:48.098180,7.475177,-0.564706,1.292124,0.235793,0.238237,0.311541
2025-12-31T15:29:48.107180,7.446463,-0.650847,1.349551,0.290771,0.202807,0.333532
2025-12-31T15:29:48.117180,7.566105,-0.593420,1.105484,0.334754,0.196698,0.381179
2025-12-31T15:29:48.127180,7.537391,-0.588634,0.923629,0.350636,0.217467,0.450818
2025-12-31T15:29:48.136180,7.556533,-0.669990,0.842273,0.337197,0.259006,0.537561
2025-12-31T15:29:48.146180,7.460820,-0.669990,0.847059,0.310319,0.285884,0.637743
2025-12-31T15:29:48.155180,7.283751,-0.574277,0.947557,0.241902,0.289550,0.731816
2025-12-31T15:29:48.165180,7.159325,-0.526420,1.086341,0.125838,0.262671,0.829554
2025-12-31T15:29:48.175180,7.135396,-0.593420,1.182054,-0.026878,0.210137,0.919962
2025-12-31T15:29:48.184180,7.274180,-0.794417,1.024128,-0.184481,0.136833,0.995710
2025-12-31T15:29:48.194180,7.503891,-1.220339,0.722632,-0.273667,0.056199,1.043357
2025-12-31T15:29:48.203180,7.872386,-1.651047,0.435493,-0.254119,-0.003665,1.077566
2025-12-31T15:29:48.213180,8.063812,-1.981257,0.354137,-0.150272,-0.007330,1.104444
2025-12-31T15:29:48.223180,8.044669,-2.048256,0.291924,0.018325,0.040317,1.131322
2025-12-31T15:29:48.232180,7.896314,-1.938186,0.129212,0.202807,0.103847,1.167974
2025-12-31T15:29:48.242180,7.642675,-1.727617,0.172283,0.359188,0.140498,1.188743
2025-12-31T15:29:48.252180,7.360322,-1.531406,0.191425,0.488692,0.140498,1.192408
2025-12-31T15:29:48.261180,7.235895,-1.205982,0.143569,0.568104,0.108733,1.200960
2025-12-31T15:29:48.271180,7.350751,-1.038485,0.344566,0.593760,0.057421,1.204625
2025-12-31T15:29:48.280180,7.570890,-0.904486,0.588634,0.572991,-0.013439,1.197295
2025-12-31T15:29:48.290180,7.877171,-0.803988,0.689132,0.509461,-0.074525,1.192408
2025-12-31T15:29:48.300180,8.327022,-0.818345,0.751346,0.444709,-0.100181,1.191186
2025-12-31T15:29:48.309180,8.595018,-0.952343,0.756131,0.394618,-0.084299,1.211956
2025-12-31T15:29:48.319180,8.681160,-1.067198,0.564706,0.375071,-0.043982,1.241277
2025-12-31T15:29:48.328180,8.590233,-1.186840,0.583848,0.400727,0.013439,1.279151
2025-12-31T15:29:48.338180,8.226524,-1.210768,0.732203,0.467922,0.080634,1.310916
2025-12-31T15:29:48.348180,7.843672,-0.976271,0.669990,0.537561,0.139277,1.348790
2025-12-31T15:29:48.357180,7.479963,-0.866201,0.507278,0.571769,0.167377,1.372003
2025-12-31T15:29:48.367180,7.269395,-0.689132,0.358923,0.585208,0.149051,1.368337
2025-12-31T15:29:48.377180,7.250252,-0.569491,0.282353,0.564439,0.084299,1.342681
2025-12-31T15:29:48.386180,7.451249,-0.478564,0.535992,0.519235,0.014660,1.299920
2025-12-31T15:29:48.396180,7.733602,-0.454636,0.736989,0.434935,-0.053756,1.255938
2025-12-31T15:29:48.405180,8.183453,-0.617348,1.143769,0.315206,-0.119729,1.225395
2025-12-31T15:29:48.415180,8.824729,-0.818345,1.186840,0.195476,-0.207694,1.211956
2025-12-31T15:29:48.425180,9.638289,-0.899701,0.947557,0.069638,-0.294436,1.231504
2025-12-31T15:29:48.434180,10.336993,-1.191625,0.875773,-0.039095,-0.324980,1.275486
2025-12-31T15:29:48.444180,10.738987,-1.440479,0.775274,-0.102625,-0.252898,1.347568
2025-12-31T15:29:48.453180,10.619346,-1.741974,0.669990,-0.124616,-0.097738,1.441641
2025-12-31T15:29:48.463180,10.068997,-1.971685,0.713061,-0.101403,0.058643,1.517388
2025-12-31T15:29:48.473180,9.183653,-2.244467,0.760917,-0.052534,0.130725,1.572366
2025-12-31T15:29:48.482180,8.489734,-2.478964,0.856630,0.004886,0.094073,1.563814
2025-12-31T15:29:48.492180,8.226524,-2.660818,0.655633,0.106290,-0.002443,1.519832
2025-12-31T15:29:48.502180,8.317451,-2.723032,0.344566,0.219911,-0.116064,1.444085
2025-12-31T15:29:48.511180,8.690731,-2.761317,0.358923,0.323758,-0.223576,1.352455
2025-12-31T15:29:48.521180,9.394221,-2.852244,0.473778,0.420275,-0.300545,1.286481
2025-12-31T15:29:48.530180,10.054640,-2.785245,0.612562,0.489913,-0.323758,1.257160
2025-12-31T15:29:48.540180,10.547562,-2.660818,0.775274,0.538783,-0.280997,1.253495
2025-12-31T15:29:48.550180,10.715059,-2.584248,0.914058,0.546113,-0.172263,1.287703
2025-12-31T15:29:48.559180,10.403992,-2.565105,0.937986,0.476474,-0.047647,1.340238
2025-12-31T15:29:48.569180,9.643075,-2.761317,0.698704,0.399505,0.054977,1.393994
2025-12-31T15:29:48.578180,8.772087,-2.933600,0.516849,0.376292,0.072082,1.420872
2025-12-31T15:29:48.588180,8.116454,-3.177668,0.612562,0.388510,-0.028099,1.402546
2025-12-31T15:29:48.598180,7.987241,-3.282952,0.827916,0.438601,-0.201585,1.330464
2025-12-31T15:29:48.607180,8.508877,-3.249453,1.019342,0.513126,-0.371405,1.231504
2025-12-31T15:29:48.617180,9.293722,-3.302095,0.875773,0.570548,-0.443488,1.144761
2025-12-31T15:29:48.627180,10.107282,-3.359522,0.535992,0.599869,-0.386066,1.102000
2025-12-31T15:29:48.636180,10.375278,-3.393022,0.220139,0.597426,-0.244346,1.098335
2025-12-31T15:29:48.646180,10.269994,-3.483949,0.320638,0.565661,-0.081855,1.117883
2025-12-31T15:29:48.655180,9.757930,-3.431307,0.483350,0.519235,0.037873,1.144761
2025-12-31T15:29:48.665180,9.054440,-3.393022,0.952343,0.437379,0.067195,1.166752
2025-12-31T15:29:48.675180,8.561519,-3.378665,1.885544,0.295658,-0.026878,1.160643
2025-12-31T15:29:48.684180,8.590233,-3.503092,1.976471,0.028099,-0.228463,1.154535
2025-12-31T15:29:48.694180,9.178867,-4.096512,1.617548,-0.249232,-0.450818,1.126435
2025-12-31T15:29:48.703180,10.088140,-4.934000,1.473978,-0.361632,-0.577878,1.066570
2025-12-31T15:29:48.713180,11.006983,-5.608776,1.306481,-0.315206,-0.548556,1.031140
2025-12-31T15:29:48.723180,11.519047,-5.948556,0.583848,-0.167377,-0.375071,1.018923
2025-12-31T15:29:48.732180,11.509476,-6.072983,0.143569,0.068416,-0.130725,1.018923
2025-12-31T15:29:48.742180,10.906485,-5.991627,0.052642,0.271224,0.059864,1.021366
2025-12-31T15:29:48.752180,10.370493,-5.881557,0.291924,0.367740,0.118507,1.026253
2025-12-31T15:29:48.761180,9.954142,-5.766702,0.397208,0.376292,0.063529,1.015257
2025-12-31T15:29:48.771180,9.834500,-5.723631,0.464207,0.321315,-0.058643,1.000597
2025-12-31T15:29:48.780180,10.107282,-5.680560,0.775274,0.238237,-0.205250,0.971275
2025-12-31T15:29:48.790180,10.609775,-5.761916,1.182054,0.131946,-0.321315,0.959058
2025-12-31T15:29:48.800180,11.198409,-5.919843,1.564905,0.020769,-0.360410,0.981049
2025-12-31T15:29:48.809180,11.413763,-6.144768,1.631905,-0.096516,-0.287106,1.034805
2025-12-31T15:29:48.819180,11.227123,-6.455835,1.497906,-0.177150,-0.120951,1.111774
2025-12-31T15:29:48.828180,10.566704,-6.762116,1.119840,-0.204028,0.065973,1.191186
2025-12-31T15:29:48.838180,9.667003,-7.044469,0.832702,-0.186924,0.175929,1.254716
2025-12-31T15:29:48.848180,8.834301,-7.283751,0.708275,-0.140498,0.167377,1.279151
2025-12-31T15:29:48.857180,8.307880,-7.298108,0.669990,-0.078190,0.074525,1.268155
2025-12-31T15:29:48.867180,8.078169,-7.427321,0.698704,-0.058643,-0.061086,1.240056
2025-12-31T15:29:48.877180,8.226524,-7.647461,0.995414,-0.048869,-0.189368,1.209512
2025-12-31T15:29:48.886180,8.575876,-7.786244,1.316052,-0.015882,-0.268780,1.172861
2025-12-31T15:29:48.896180,8.987441,-7.925028,1.526620,0.015882,-0.277332,1.149648
2025-12-31T15:29:48.905180,9.054440,-8.063812,1.818545,0.087964,-0.167377,1.152091
2025-12-31T15:29:48.915180,8.738588,-8.001598,1.670190,0.179594,0.026878,1.182634
2025-12-31T15:29:48.925180,7.953742,-7.929814,1.306481,0.241902,0.208915,1.227838
2025-12-31T15:29:48.934180,7.077969,-7.905885,1.086341,0.293215,0.296880,1.248608
2025-12-31T15:29:48.944180,6.321837,-7.829315,0.856630,0.306654,0.249232,1.235169
2025-12-31T15:29:48.953180,6.053841,-7.953742,0.823130,0.257785,0.072082,1.181413
2025-12-31T15:29:48.963180,6.355336,-8.250452,0.799202,0.204028,-0.185702,1.099557
2025-12-31T15:29:48.973180,7.432106,-8.642875,0.765703,0.178372,-0.430049,1.022588
2025-12-31T15:29:48.982180,8.729016,-9.044869,0.813559,0.164933,-0.553443,0.985936
2025-12-31T15:29:48.992180,9.772287,-9.384650,0.684347,0.213802,-0.477696,1.009149
2025-12-31T15:29:49.002180,10.260423,-9.509077,0.669990,0.316428,-0.240680,1.084896
2025-12-31T15:29:49.011180,9.978070,-9.322436,0.650847,0.421496,0.053756,1.183856
2025-12-31T15:29:49.021180,9.059226,-8.973084,0.765703,0.491135,0.301767,1.270599
2025-12-31T15:29:49.030180,7.934599,-8.571090,0.880558,0.466700,0.401949,1.313359
2025-12-31T15:29:49.040180,7.010970,-8.236095,0.832702,0.354301,0.321315,1.292590
2025-12-31T15:29:49.050180,6.632904,-8.202595,1.000199,0.200363,0.125838,1.226617
2025-12-31T15:29:49.059180,6.762116,-8.279166,1.177268,0.028099,-0.102625,1.139874
2025-12-31T15:29:49.069180,7.369893,-8.575876,1.411765,-0.116064,-0.296880,1.050687
2025-12-31T15:29:49.078180,8.245666,-9.020941,1.588834,-0.189368,-0.392175,0.967610
2025-12-31T15:29:49.088180,8.944370,-9.365507,1.612762,-0.211359,-0.337197,0.922406
2025-12-31T15:29:49.098180,9.001798,-9.628718,1.225125,-0.160046,-0.156381,0.923628
2025-12-31T15:29:49.107180,8.566304,-9.810572,1.110269,-0.063529,0.052534,0.933401
2025-12-31T15:29:49.117180,7.810172,-9.868000,1.210768,0.020769,0.184481,0.924849
2025-12-31T15:29:49.127180,7.058826,-9.786644,1.349551,0.075747,0.202807,0.882089
2025-12-31T15:29:49.136180,6.518048,-9.710074,1.612762,0.094073,0.122173,0.794124
2025-12-31T15:29:49.146180,6.403193,-9.489934,1.799402,0.078190,-0.031764,0.669508
2025-12-31T15:29:49.155180,6.661618,-9.212367,1.919043,0.054977,-0.194255,0.510683
2025-12-31T15:29:49.165180,7.235895,-8.987441,2.239681,0.035430,-0.291993,0.360410
2025-12-31T15:29:49.175180,7.700103,-8.791230,2.579462,0.001221,-0.290771,0.248011
2025-12-31T15:29:49.184180,7.891528,-8.614161,2.579462,-0.031764,-0.191811,0.171042
2025-12-31T15:29:49.194180,7.791030,-8.456235,2.589034,-0.043982,-0.034208,0.105068
2025-12-31T15:29:49.203180,7.393821,-8.221738,2.560320,-0.048869,0.108733,0.035430
2025-12-31T15:29:49.213180,6.809973,-8.169096,2.354537,-0.051312,0.188146,-0.034208
2025-12-31T15:29:49.223180,6.417550,-8.173882,2.086541,-0.023212,0.206472,-0.128281
2025-12-31T15:29:49.232180,6.159125,-8.231309,1.837687,0.009773,0.184481,-0.224798
2025-12-31T15:29:49.242180,6.077769,-8.484948,1.636690,0.046425,0.130725,-0.317649
2025-12-31T15:29:49.252180,6.283552,-8.585447,1.655833,0.120951,0.078190,-0.419053
2025-12-31T15:29:49.261180,6.546762,-8.331808,1.808973,0.212581,0.039095,-0.521678
2025-12-31T15:29:49.271180,6.862615,-7.805387,2.053041,0.276111,0.024434,-0.620638
2025-12-31T15:29:49.280180,7.097111,-7.192824,2.378465,0.259006,0.032986,-0.712268
2025-12-31T15:29:49.290180,7.278966,-6.623332,2.684746,0.129503,0.068416,-0.803898
2025-12-31T15:29:49.300180,7.422535,-6.355336,2.756531,-0.067195,0.135612,-0.884532
2025-12-31T15:29:49.309180,7.374679,-6.417550,2.354537,-0.267558,0.222354,-0.962723
2025-12-31T15:29:49.319180,7.192824,-6.790830,1.794616,-0.411723,0.294436,-1.078787
2025-12-31T15:29:49.328180,7.030112,-7.235895,1.205982,-0.465479,0.312762,-1.214399
2025-12-31T15:29:49.338180,7.140182,-7.810172,0.631705,-0.453261,0.254119,-1.353677
2025-12-31T15:29:49.348180,7.532605,-8.126025,0.267996,-0.368962,0.136833,-1.513723
2025-12-31T15:29:49.357180,8.250452,-8.173882,0.282353,-0.199142,0.026878,-1.673770
2025-12-31T15:29:49.367180,9.011369,-7.680960,0.483350,-0.056199,-0.032986,-1.789834
2025-12-31T15:29:49.377180,9.772287,-7.006184,0.847059,0.002443,-0.025656,-1.859473
2025-12-31T15:29:49.386180,10.155139,-6.350551,1.421336,-0.056199,0.037873,-1.901012
2025-12-31T15:29:49.396180,10.399207,-5.905486,1.880758,-0.267558,0.113620,-1.918116
2025-12-31T15:29:49.405180,10.418349,-5.895914,1.684547,-0.557108,0.200363,-1.940107
2025-12-31T15:29:49.415180,10.298708,-6.288337,1.196411,-0.736703,0.288328,-1.996307
2025-12-31T15:29:49.425180,10.169496,-6.714260,0.703489,-0.747698,0.348193,-2.100154
2025-12-31T15:29:49.434180,10.021141,-6.948756,0.090927,-0.640186,0.360410,-2.227214
2025-12-31T15:29:49.444180,10.092925,-6.972685,-0.287138,-0.432492,0.339641,-2.362826
2025-12-31T15:29:49.453180,10.274780,-6.719045,-0.210568,-0.238237,0.270002,-2.493551
2025-12-31T15:29:49.463180,10.600204,-6.345765,-0.023928,-0.153938,0.163711,-2.593733
2025-12-31T15:29:49.473180,11.073982,-5.800201,0.258424,-0.149051,0.053756,-2.676810
2025-12-31T15:29:49.482180,11.576475,-5.192425,0.981057,-0.206472,-0.039095,-2.765997
2025-12-31T15:29:49.492180,12.055040,-4.709074,1.746760,-0.390953,-0.128281,-2.818531
2025-12-31T15:29:49.502180,12.820743,-4.857429,2.421536,-0.679282,-0.228463,-2.871066
2025-12-31T15:29:49.511180,13.682159,-5.599204,2.254038,-0.933401,-0.271224,-2.891835
2025-12-31T15:29:49.521180,14.447862,-6.608976,1.808973,-0.922406,-0.161268,-2.924822
2025-12-31T15:29:49.530180,14.615360,-6.991827,1.143769,-0.625525,0.123394,-2.939482
2025-12-31T15:29:49.540180,14.050654,-6.637689,0.358923,-0.180816,0.471587,-2.926043
2025-12-31T15:29:49.550180,12.882956,-5.623133,0.066999,0.259006,0.735481,-2.939482
2025-12-31T15:29:49.559180,11.753544,-4.374079,0.334995,0.508239,0.769690,-2.957808
2025-12-31T15:29:49.569180,11.150553,-3.168097,0.334995,0.497244,0.621860,-2.989573
2025-12-31T15:29:49.578180,11.184052,-2.277967,0.430708,0.318871,0.365297,-3.014008
2025-12-31T15:29:49.588180,11.844471,-1.852044,0.813559,-0.002443,0.063529,-2.998125
2025-12-31T15:29:49.598180,12.868599,-1.780260,0.636490,-0.397062,-0.166155,-2.935817
2025-12-31T15:29:49.607180,13.911870,-2.096112,0.703489,-0.736703,-0.257785,-2.827083
2025-12-31T15:29:49.617180,14.481362,-2.517249,1.071984,-0.987158,-0.219911,-2.698802
2025-12-31T15:29:49.627180,14.514861,-2.895315,1.153340,-1.144761,-0.112399,-2.550972
2025-12-31T15:29:49.636180,14.093725,-3.364308,1.225125,-1.211956,0.002443,-2.421469
2025-12-31T15:29:49.646180,13.471591,-3.775874,1.129412,-1.164308,0.062308,-2.332282
2025-12-31T15:29:49.655180,12.897313,-3.991228,1.014556,-0.981049,0.052534,-2.288300
2025-12-31T15:29:49.665180,12.547961,-3.890729,0.957129,-0.723264,0.017104,-2.285857
2025-12-31T15:29:49.675180,12.413963,-3.823730,0.669990,-0.439822,-0.007330,-2.269974
2025-12-31T15:29:49.684180,12.413963,-3.598805,0.382851,-0.133168,-0.001221,-2.240653
2025-12-31T15:29:49.694180,12.327822,-3.120240,0.200997,0.142942,0.034208,-2.172236
2025-12-31T15:29:49.703180,12.160324,-2.469392,-0.066999,0.350636,0.094073,-2.089158
2025-12-31T15:29:49.713180,11.672188,-1.761117,0.009571,0.485026,0.175929,-1.990198
2025-12-31T15:29:49.723180,10.963913,-1.004985,0.186640,0.499687,0.244346,-1.876577
2025-12-31T15:29:49.732180,10.198209,-0.430708,0.363709,0.401949,0.270002,-1.777617
2025-12-31T15:29:49.742180,9.394221,-0.009571,0.555134,0.267558,0.243124,-1.706757
2025-12-31T15:29:49.752180,8.743373,0.181854,1.158126,0.074525,0.151494,-1.671326
2025-12-31T15:29:49.761180,8.360522,0.129212,1.311266,-0.164933,-0.003665,-1.651779
2025-12-31T15:29:49.771180,8.240881,-0.181854,1.339980,-0.362853,-0.184481,-1.634675
2025-12-31T15:29:49.780180,8.580661,-0.564706,1.392622,-0.482583,-0.350636,-1.618792
2025-12-31T15:29:49.790180,9.131011,-0.823130,1.272981,-0.516791,-0.470366,-1.591914
2025-12-31T15:29:49.800180,9.695717,-0.794417,0.947557,-0.491135,-0.489913,-1.533271
2025-12-31T15:29:49.809180,10.030712,-0.818345,0.803988,-0.433714,-0.384845,-1.456302
2025-12-31T15:29:49.819180,9.891928,-0.473778,0.445065,-0.349414,-0.172263,-1.356120
2025-12-31T15:29:49.828180,9.097511,-0.258424,0.296710,-0.294436,0.057421,-1.270599
2025-12-31T15:29:49.838180,8.140382,-0.196211,0.172283,-0.299323,0.210137,-1.197295
2025-12-31T15:29:49.848180,7.197610,-0.445065,0.062213,-0.304210,0.234572,-1.155756
2025-12-31T15:29:49.857180,6.518048,-0.669990,0.148355,-0.267558,0.155159,-1.145982
2025-12-31T15:29:49.867180,6.178267,-0.904486,0.349352,-0.206472,0.000000,-1.138652
2025-12-31T15:29:49.877180,6.355336,-0.976271,0.363709,-0.124616,-0.183259,-1.120326
2025-12-31T15:29:49.886180,6.891329,-0.732203,0.564706,-0.031764,-0.356745,-1.093448
2025-12-31T15:29:49.896180,7.719245,-0.267996,0.679561,0.018325,-0.498465,-1.045801
2025-12-31T15:29:49.905180,8.566304,0.153140,0.727418,-0.012217,-0.542448,-0.949284
2025-12-31T15:29:49.915180,9.030512,0.521635,0.717846,-0.075747,-0.428827,-0.821002
2025-12-31T15:29:49.925180,8.796015,0.636490,0.799202,-0.164933,-0.177150,-0.687834
2025-12-31T15:29:49.934180,7.776673,0.626919,0.684347,-0.280997,0.094073,-0.551000
2025-12-31T15:29:49.944180,6.355336,0.186640,0.588634,-0.403170,0.251676,-0.443488
2025-12-31T15:29:49.953180,4.953142,-0.478564,0.406779,-0.459370,0.251676,-0.365297
2025-12-31T15:29:49.963180,3.905086,-1.000199,0.406779,-0.416610,0.123394,-0.323758
2025-12-31T15:29:49.973180,3.335594,-1.325623,0.521635,-0.280997,-0.090408,-0.312762
2025-12-31T15:29:49.982180,3.369094,-1.363908,0.588634,-0.098960,-0.323758,-0.315206
2025-12-31T15:29:49.992180,3.866801,-1.033699,0.770488,0.053756,-0.526565,-0.301767
2025-12-31T15:29:50.002180,4.608576,-0.622133,0.937986,0.155159,-0.643851,-0.257785
2025-12-31T15:29:50.011180,5.326423,-0.311066,1.368694,0.197920,-0.629191,-0.193033
2025-12-31T15:29:50.021180,5.541777,-0.287138,1.469193,0.163711,-0.466700,-0.081855
2025-12-31T15:29:50.030180,5.158925,-0.248853,1.335195,0.112399,-0.218689,0.046425
2025-12-31T15:29:50.040180,4.302295,-0.363709,1.330409,0.079412,0.013439,0.156381
2025-12-31T15:29:50.050180,3.148954,-0.406779,1.134197,0.061086,0.128281,0.249232
2025-12-31T15:29:50.059180,2.277967,-0.449850,1.019342,0.054977,0.091629,0.312762
2025-12-31T15:29:50.069180,1.909472,-0.378065,1.205982,0.057421,-0.065973,0.342084
2025-12-31T15:29:50.078180,2.091326,-0.062213,1.277767,0.040317,-0.284663,0.355523
2025-12-31T15:29:50.088180,3.000599,0.157926,1.349551,-0.009773,-0.499687,0.349414
2025-12-31T15:29:50.098180,4.378865,0.378065,1.497906,-0.107512,-0.640186,0.350636
2025-12-31T15:29:50.107180,5.828915,0.555134,1.426122,-0.230907,-0.673173,0.371405
2025-12-31T15:29:50.117180,7.068397,0.574277,1.014556,-0.348193,-0.604756,0.398284
2025-12-31T15:29:50.127180,8.030312,0.736989,0.468993,-0.427605,-0.474031,0.436157
2025-12-31T15:29:50.136180,8.671589,1.024128,0.038285,-0.480139,-0.361632,0.458148
2025-12-31T15:29:50.146180,9.121439,1.220339,-0.191425,-0.549778,-0.350636,0.461814
2025-12-31T15:29:50.155180,9.791430,1.287338,-0.157926,-0.618195,-0.459370,0.444709
2025-12-31T15:29:50.165180,10.801201,1.138983,-0.043070,-0.673173,-0.654847,0.417831
2025-12-31T15:29:50.175180,12.174681,1.024128,-0.267996,-0.695164,-0.857654,0.401949
2025-12-31T15:29:50.184180,13.792229,0.789631,-0.531206,-0.626747,-0.966388,0.398284
2025-12-31T15:29:50.194180,15.127424,0.722632,-0.459421,-0.456927,-0.855211,0.410501
2025-12-31T15:29:50.203180,15.649059,0.799202,-0.392422,-0.218689,-0.532674,0.466700
2025-12-31T15:29:50.213180,14.864213,1.052841,-0.023928,-0.007330,-0.090408,0.559552
2025-12-31T15:29:50.223180,12.887742,1.316052,0.358923,0.141720,0.327423,0.652403
2025-12-31T15:29:50.232180,10.566704,1.660618,0.684347,0.241902,0.566882,0.714712
2025-12-31T15:29:50.242180,8.374879,1.746760,0.981057,0.305432,0.546113,0.711046
2025-12-31T15:29:50.252180,6.795616,1.823330,1.306481,0.339641,0.317649,0.658512
2025-12-31T15:29:50.261180,6.120840,1.765903,1.521835,0.398284,0.002443,0.577878
2025-12-31T15:29:50.271180,6.216553,1.770688,1.703689,0.481361,-0.282219,0.487470
2025-12-31T15:29:50.280180,6.814758,2.005185,1.756331,0.546113,-0.493579,0.401949
2025-12-31T15:29:50.290180,7.767102,2.277967,1.756331,0.577878,-0.588873,0.340862
2025-12-31T15:29:50.300180,8.719445,2.598605,1.660618,0.546113,-0.568104,0.291993
2025-12-31T15:29:50.309180,9.494720,2.904886,1.507478,0.444709,-0.458148,0.268780
2025-12-31T15:29:50.319180,9.954142,3.048455,1.201196,0.290771,-0.320093,0.250454
2025-12-31T15:29:50.328180,10.226923,3.062812,1.057627,0.098960,-0.206472,0.235793
2025-12-31T15:29:50.338180,10.403992,2.890529,0.765703,-0.102625,-0.145385,0.222354
2025-12-31T15:29:50.348180,10.638489,2.531606,0.722632,-0.276111,-0.119729,0.205250
2025-12-31T15:29:50.357180,10.935199,2.215753,0.521635,-0.393397,-0.097738,0.191811
2025-12-31T15:29:50.367180,11.169695,1.981257,0.373280,-0.455705,-0.063529,0.184481
2025-12-31T15:29:50.377180,11.327622,1.808973,0.181854,-0.465479,-0.019547,0.177150
2025-12-31T15:29:50.386180,11.341979,1.751546,0.071784,-0.438601,0.025656,0.162490
2025-12-31T15:29:50.396180,11.303693,1.794616,0.110069,-0.405614,0.089186,0.149051
2025-12-31T15:29:50.405180,10.901699,1.665404,0.215354,-0.378736,0.158824,0.125838
2025-12-31T15:29:50.415180,10.423135,1.445264,0.311066,-0.339641,0.208915,0.091629
2025-12-31T15:29:50.425180,9.887142,1.067198,0.425922,-0.270002,0.208915,0.034208
2025-12-31T15:29:50.434180,9.537790,0.760917,0.358923,-0.152716,0.166155,-0.025656
2025-12-31T15:29:50.444180,9.360722,0.468993,0.368494,0.019547,0.094073,-0.084299
2025-12-31T15:29:50.453180,9.389435,0.492921,0.334995,0.227241,0.021991,-0.129503
2025-12-31T15:29:50.463180,9.686145,0.784845,0.473778,0.434935,-0.023212,-0.153938
2025-12-31T15:29:50.473180,9.896714,1.301695,0.468993,0.566882,-0.010995,-0.156381
2025-12-31T15:29:50.482180,9.891928,1.904686,0.588634,0.575434,0.061086,-0.129503
2025-12-31T15:29:50.492180,9.724431,2.301895,0.794417,0.472809,0.156381,-0.094073
2025-12-31T15:29:50.502180,9.317651,2.445464,0.813559,0.283441,0.218689,-0.062308
2025-12-31T15:29:50.511180,8.901300,2.268395,0.827916,0.065973,0.219911,-0.045204
2025-12-31T15:29:50.521180,8.719445,1.947757,0.808774,-0.096516,0.156381,-0.037873
2025-12-31T15:29:50.530180,8.863014,1.584048,0.717846,-0.193033,0.034208,-0.062308
2025-12-31T15:29:50.540180,9.418149,1.234696,0.564706,-0.221133,-0.086742,-0.085521
2025-12-31T15:29:50.550180,10.313065,1.134197,0.354137,-0.174707,-0.145385,-0.101403
2025-12-31T15:29:50.559180,10.963913,1.186840,0.244067,-0.100181,-0.100181,-0.108733
2025-12-31T15:29:50.569180,11.322836,1.349551,0.349352,-0.050090,0.028099,-0.081855
2025-12-31T15:29:50.578180,11.078768,1.454836,0.411565,-0.039095,0.200363,-0.036651
2025-12-31T15:29:50.588180,10.547562,1.517049,0.602991,-0.080634,0.350636,0.009773
2025-12-31T15:29:50.598180,9.791430,1.406979,0.693918,-0.168598,0.411723,0.035430
2025-12-31T15:29:50.607180,9.083154,1.134197,0.784845,-0.239459,0.373849,0.053756
2025-12-31T15:29:50.617180,8.882157,0.823130,0.760917,-0.255341,0.267558,0.056199
2025-12-31T15:29:50.627180,9.011369,0.531206,0.526420,-0.219911,0.122173,0.042760
2025-12-31T15:29:50.636180,9.446863,0.411565,0.550349,-0.140498,0.000000,0.032986
2025-12-31T15:29:50.646180,10.021141,0.449850,0.617348,-0.046425,-0.030543,0.040317
2025-12-31T15:29:50.655180,10.255637,0.507278,0.727418,0.030543,0.061086,0.070860
2025-12-31T15:29:50.665180,9.992427,0.502492,0.679561,0.079412,0.211359,0.112399
2025-12-31T15:29:50.675180,9.375078,0.521635,0.660419,0.108733,0.312762,0.151494
2025-12-31T15:29:50.684180,8.791230,0.401994,0.789631,0.140498,0.309097,0.166155
2025-12-31T15:29:50.694180,8.446663,0.358923,0.866201,0.174707,0.223576,0.161268
2025-12-31T15:29:50.703180,8.595018,0.425922,0.823130,0.221133,0.106290,0.145385
2025-12-31T15:29:50.713180,9.049655,0.641276,0.736989,0.263893,-0.008552,0.124616
2025-12-31T15:29:50.723180,9.714859,0.918843,0.746560,0.294436,-0.063529,0.113620
2025-12-31T15:29:50.732180,10.327422,1.311266,0.636490,0.279776,-0.023212,0.124616
2025-12-31T15:29:50.742180,10.533205,1.660618,0.760917,0.202807,0.108733,0.162490
2025-12-31T15:29:50.752180,10.164710,1.737189,0.899701,0.069638,0.293215,0.206472
2025-12-31T15:29:50.761180,9.255437,1.670190,0.856630,-0.069638,0.476474,0.250454
2025-12-31T15:29:50.771180,8.116454,1.249053,1.000199,-0.175929,0.564439,0.270002
2025-12-31T15:29:50.780180,7.121040,0.813559,1.182054,-0.227241,0.532674,0.268780
2025-12-31T15:29:50.790180,6.427121,0.248853,1.296909,-0.205250,0.420275,0.245567
2025-12-31T15:29:50.800180,6.216553,-0.205782,1.229910,-0.106290,0.300545,0.223576
2025-12-31T15:29:50.809180,6.269195,-0.416351,1.095912,0.045204,0.204028,0.207694
2025-12-31T15:29:50.819180,6.671189,-0.421136,1.014556,0.213802,0.123394,0.201585
2025-12-31T15:29:50.828180,7.159325,-0.378065,0.914058,0.349414,0.064751,0.223576
2025-12-31T15:29:50.838180,7.853243,-0.267996,0.861416,0.416610,0.031764,0.262671
2025-12-31T15:29:50.848180,8.350950,-0.086141,0.976271,0.417831,0.056199,0.334754
2025-12-31T15:29:50.857180,8.767302,0.028713,0.818345,0.368962,0.129503,0.431270
2025-12-31T15:29:50.867180,8.810372,0.220139,0.698704,0.270002,0.221133,0.547335
2025-12-31T15:29:50.877180,8.685946,0.263210,0.784845,0.136833,0.268780,0.651182
2025-12-31T15:29:50.886180,8.561519,0.248853,1.014556,-0.014660,0.257785,0.762359
2025-12-31T15:29:50.896180,8.547162,0.200997,0.918843,-0.193033,0.241902,0.863763
2025-12-31T15:29:50.905180,8.360522,0.066999,0.626919,-0.368962,0.265115,0.952949
2025-12-31T15:29:50.915180,8.092526,-0.234496,0.669990,-0.502131,0.332310,1.050687
2025-12-31T15:29:50.925180,7.513462,-0.569491,0.679561,-0.594982,0.386066,1.125213
2025-12-31T15:29:50.934180,6.972685,-1.134197,0.564706,-0.653625,0.392175,1.182634
2025-12-31T15:29:50.944180,6.374479,-1.584048,0.593420,-0.634077,0.334754,1.211956
2025-12-31T15:29:50.953180,6.116054,-2.048256,0.502492,-0.526565,0.223576,1.209512
2025-12-31T15:29:50.963180,5.958128,-2.368894,0.454636,-0.343306,0.090408,1.204625
2025-12-31T15:29:50.973180,6.259623,-2.622533,0.497707,-0.101403,-0.046425,1.191186
2025-12-31T15:29:50.982180,6.642475,-2.641676,0.449850,0.178372,-0.155159,1.186300
2025-12-31T15:29:50.992180,7.216752,-2.340180,0.540777,0.467922,-0.232128,1.189965
2025-12-31T15:29:51.002180,7.915457,-1.770688,0.454636,0.684168,-0.278554,1.210734
2025-12-31T15:29:51.011180,8.547162,-1.272981,0.382851,0.785572,-0.259006,1.249830
2025-12-31T15:29:51.021180,9.035298,-0.904486,0.406779,0.774576,-0.162490,1.321912
2025-12-31T15:29:51.030180,8.958727,-0.555134,0.445065,0.675616,-0.008552,1.415985
2025-12-31T15:29:51.040180,8.523234,-0.411565,0.559920,0.498465,0.153938,1.512502
2025-12-31T15:29:51.050180,7.719245,-0.468993,0.354137,0.278554,0.240680,1.578475
2025-12-31T15:29:51.059180,6.900900,-0.837487,0.358923,0.072082,0.186924,1.587027
2025-12-31T15:29:51.069180,6.522834,-1.244267,0.330209,-0.080634,0.002443,1.571145
2025-12-31T15:29:51.078180,6.704688,-1.799402,0.287138,-0.153938,-0.245567,1.530827
2025-12-31T15:29:51.088180,7.312465,-2.335394,0.373280,-0.130725,-0.469144,1.481958
2025-12-31T15:29:51.098180,8.092526,-2.675175,0.526420,-0.007330,-0.583987,1.461189
2025-12-31T15:29:51.107180,8.848657,-2.943171,0.674775,0.179594,-0.594982,1.451415
2025-12-31T15:29:51.117180,9.418149,-2.785245,0.612562,0.342084,-0.496022,1.483180
2025-12-31T15:29:51.127180,9.686145,-2.766102,0.430708,0.447153,-0.331088,1.536936
2025-12-31T15:29:51.136180,9.451649,-2.718246,0.445065,0.531452,-0.152716,1.593136
2025-12-31T15:29:51.146180,8.997012,-2.526820,0.291924,0.571769,-0.030543,1.639561
2025-12-31T15:29:51.155180,8.374879,-2.383251,0.277567,0.540004,0.001221,1.657887
2025-12-31T15:29:51.165180,7.915457,-2.325823,0.378065,0.465479,-0.070860,1.665218
2025-12-31T15:29:51.175180,7.786244,-2.440679,0.401994,0.379958,-0.234572,1.667661
2025-12-31T15:29:51.184180,8.126025,-2.488535,0.464207,0.291993,-0.447153,1.663996
2025-12-31T15:29:51.194180,8.925228,-2.842673,1.081555,0.229685,-0.646295,1.654222
2025-12-31T15:29:51.203180,10.035497,-3.187239,1.258624,0.201585,-0.756251,1.661553
2025-12-31T15:29:51.213180,11.188838,-3.483949,0.837487,0.215024,-0.702494,1.704313
2025-12-31T15:29:51.223180,11.839686,-3.732803,0.186640,0.315206,-0.489913,1.766621
2025-12-31T15:29:51.232180,11.782258,-3.708875,-0.267996,0.524122,-0.162490,1.860695
2025-12-31T15:29:51.242180,10.829915,-3.330809,-0.330209,0.726929,0.179594,1.969429
2025-12-31T15:29:51.252180,9.260223,-2.742174,-0.320638,0.806341,0.408057,2.063502
2025-12-31T15:29:51.261180,7.661817,-2.129612,-0.167497,0.745255,0.430049,2.133140
2025-12-31T15:29:51.271180,6.513263,-1.713260,0.153140,0.529009,0.218689,2.140471
2025-12-31T15:29:51.280180,6.106483,-1.737189,0.602991,0.193033,-0.174707,2.111149
2025-12-31T15:29:51.290180,6.728617,-2.120040,0.794417,-0.161268,-0.626747,2.051285
2025-12-31T15:29:51.300180,8.149953,-2.971885,0.717846,-0.408057,-0.972497,1.964542
2025-12-31T15:29:51.309180,9.848857,-3.948157,0.665204,-0.509461,-1.080009,1.892460
2025-12-31T15:29:51.319180,11.083554,-5.154139,0.488135,-0.461814,-0.930958,1.858251
2025-12-31T15:29:51.328180,11.686545,-6.072983,0.052642,-0.263893,-0.629191,1.863138
2025-12-31T15:29:51.338180,11.595618,-6.661618,0.062213,0.035430,-0.298102,1.849699
2025-12-31T15:29:51.348180,11.026126,-6.833901,0.057427,0.348193,-0.064751,1.813047
2025-12-31T15:29:51.357180,10.317851,-6.671189,0.043070,0.613308,0.004886,1.737300
2025-12-31T15:29:51.367180,9.958927,-6.183053,-0.191425,0.780685,-0.085521,1.629788
2025-12-31T15:29:51.377180,10.102497,-5.704489,-0.047856,0.873537,-0.273667,1.505171
2025-12-31T15:29:51.386180,10.643274,-5.335994,0.679561,0.869871,-0.453261,1.400102
2025-12-31T15:29:51.396180,11.461620,-5.201996,1.239482,0.709825,-0.540004,1.356120
2025-12-31T15:29:51.405180,12.035897,-5.455635,1.272981,0.488692,-0.471587,1.363450
2025-12-31T15:29:51.415180,12.131610,-5.919843,0.981057,0.293215,-0.282219,1.418428
2025-12-31T15:29:51.425180,11.571690,-6.446264,0.478564,0.158824,-0.067195,1.484402
2025-12-31T15:29:51.434180,10.695917,-7.049255,0.449850,0.116064,0.078190,1.527162
2025-12-31T15:29:51.444180,9.829715,-7.307680,0.555134,0.109955,0.105068,1.538158
2025-12-31T15:29:51.453180,9.178867,-7.503891,0.813559,0.087964,0.023212,1.510058
2025-12-31T15:29:51.463180,8.834301,-7.546962,1.287338,0.097738,-0.111177,1.435533
2025-12-31T15:29:51.473180,8.824729,-7.494320,1.502692,0.053756,-0.263893,1.358564
2025-12-31T15:29:51.482180,9.217152,-7.652246,1.464407,-0.014660,-0.398284,1.271821
2025-12-31T15:29:51.492180,9.638289,-7.881957,1.440479,-0.006108,-0.459370,1.191186
2025-12-31T15:29:51.502180,9.968498,-8.140382,1.253839,0.026878,-0.411723,1.158200
2025-12-31T15:29:51.511180,9.872786,-8.432306,1.014556,0.087964,-0.267558,1.158200
2025-12-31T15:29:51.521180,9.360722,-8.638089,0.957129,0.248011,-0.094073,1.161865
2025-12-31T15:29:51.530180,8.480163,-8.475377,0.569491,0.415388,0.042760,1.182634
2025-12-31T15:29:51.540180,7.637889,-8.417949,0.378065,0.499687,0.074525,1.213178
2025-12-31T15:29:51.550180,7.015755,-8.389236,0.483350,0.552222,-0.001221,1.221730
2025-12-31T15:29:51.559180,6.752545,-8.082954,0.516849,0.518013,-0.157603,1.211956
2025-12-31T15:29:51.569180,6.843472,-7.929814,0.751346,0.403170,-0.343306,1.180191
2025-12-31T15:29:51.578180,7.322037,-7.853243,1.225125,0.306654,-0.482583,1.127656
2025-12-31T15:29:51.588180,7.776673,-7.786244,1.588834,0.228463,-0.527787,1.086118
2025-12-31T15:29:51.598180,8.068597,-7.671389,1.732403,0.105068,-0.452040,1.080009
2025-12-31T15:29:51.607180,7.977670,-7.934599,1.483550,-0.046425,-0.312762,1.110552
2025-12-31T15:29:51.617180,7.580461,-8.154739,1.052841,-0.141720,-0.166155,1.148426
2025-12-31T15:29:51.627180,6.987041,-8.451449,0.602991,-0.169820,-0.062308,1.165530
2025-12-31T15:29:51.636180,6.355336,-8.805587,0.330209,-0.201585,-0.043982,1.175304
2025-12-31T15:29:51.646180,5.958128,-9.221938,-0.004785,-0.179594,-0.112399,1.145982
2025-12-31T15:29:51.655180,5.886343,-9.442077,-0.196211,-0.100181,-0.243124,1.084896
2025-12-31T15:29:51.665180,6.135197,-9.628718,-0.334995,-0.026878,-0.414166,1.012814
2025-12-31T15:29:51.675180,6.733402,-9.734002,-0.224925,0.046425,-0.579100,0.921184
2025-12-31T15:29:51.684180,7.542176,-9.614361,-0.181854,0.114842,-0.668286,0.851545
2025-12-31T15:29:51.694180,8.202595,-9.399007,-0.119641,0.163711,-0.619417,0.817337
2025-12-31T15:29:51.703180,8.403592,-9.049655,0.172283,0.178372,-0.454483,0.808785
2025-12-31T15:29:51.713180,7.992027,-8.819944,0.392422,0.142942,-0.265115,0.813672
2025-12-31T15:29:51.723180,7.499106,-8.628518,0.521635,0.054977,-0.136833,0.810007
2025-12-31T15:29:51.732180,6.972685,-8.767302,0.808774,-0.040317,-0.100181,0.769690
2025-12-31T15:29:51.742180,6.728617,-9.298508,0.928415,-0.113620,-0.140498,0.712268
2025-12-31T15:29:51.752180,6.900900,-9.920642,0.880558,-0.144164,-0.211359,0.665842
2025-12-31T15:29:51.761180,7.255038,-10.442277,0.583848,-0.072082,-0.238237,0.604756
2025-12-31T15:29:51.771180,7.647461,-10.566704,0.081355,0.096516,-0.196698,0.560774
2025-12-31T15:29:51.780180,7.834101,-10.475777,-0.133998,0.284663,-0.089186,0.549778
2025-12-31T15:29:51.790180,7.704888,-10.198209,-0.033499,0.432492,0.065973,0.536339
2025-12-31T15:29:51.800180,7.202396,-9.600004,0.267996,0.502131,0.224798,0.525343
2025-12-31T15:29:51.809180,6.518048,-8.906085,0.698704,0.450818,0.335975,0.487470
2025-12-31T15:29:51.819180,5.809773,-8.312665,1.076770,0.293215,0.356745,0.394618
2025-12-31T15:29:51.828180,5.379065,-7.972884,1.526620,0.078190,0.287106,0.259006
2025-12-31T15:29:51.838180,5.273781,-7.886743,2.076970,-0.166155,0.155159,0.086742
2025-12-31T15:29:51.848180,5.651846,-8.197810,2.292324,-0.411723,0.026878,-0.072082
2025-12-31T15:29:51.857180,6.216553,-8.886943,2.177468,-0.566882,-0.041538,-0.213802
2025-12-31T15:29:51.867180,6.709474,-9.394221,1.756331,-0.586430,-0.013439,-0.324980
2025-12-31T15:29:51.877180,6.967899,-9.858429,1.033699,-0.498465,0.081855,-0.388510
2025-12-31T15:29:51.886180,6.934399,-10.140782,0.669990,-0.326201,0.206472,-0.430049
2025-12-31T15:29:51.896180,6.738188,-10.231709,0.512064,-0.156381,0.304210,-0.443488
2025-12-31T15:29:51.905180,6.321837,-10.202995,0.320638,-0.015882,0.344527,-0.448374
2025-12-31T15:29:51.915180,6.001199,-10.212566,0.497707,0.111177,0.320093,-0.500909
2025-12-31T15:29:51.925180,5.967699,-10.040283,1.014556,0.211359,0.221133,-0.598647
2025-12-31T15:29:51.934180,6.345765,-9.714859,1.359123,0.296880,0.108733,-0.711046
2025-12-31T15:29:51.944180,6.876972,-9.169296,1.741974,0.404392,0.061086,-0.836885
2025-12-31T15:29:51.953180,7.441678,-8.370093,1.828116,0.482583,0.111177,-0.961501
2025-12-31T15:29:51.963180,7.642675,-7.494320,1.593619,0.520457,0.249232,-1.058018
2025-12-31T15:29:51.973180,7.475177,-6.608976,1.335195,0.516791,0.431270,-1.160643
2025-12-31T15:29:51.982180,6.987041,-5.938985,0.904486,0.357966,0.566882,-1.249830
2025-12-31T15:29:51.992180,6.494120,-6.001199,0.258424,0.021991,0.561995,-1.303586
2025-12-31T15:29:52.002180,6.360122,-6.446264,-0.244067,-0.310319,0.412944,-1.404989
2025-12-31T15:29:52.011180,6.853043,-7.211967,-0.157926,-0.597426,0.142942,-1.534493
2025-12-31T15:29:52.021180,7.944171,-8.097311,0.057427,-0.821002,-0.146607,-1.655444
2025-12-31T15:29:52.030180,9.394221,-8.786444,0.043070,-0.893084,-0.311541,-1.751961
2025-12-31T15:29:52.040180,10.829915,-9.131011,0.086141,-0.830776,-0.280997,-1.803273
2025-12-31T15:29:52.050180,11.542976,-9.044869,0.043070,-0.728151,-0.075747,-1.792278
2025-12-31T15:29:52.059180,11.423335,-8.695517,-0.272781,-0.620638,0.235793,-1.736078
2025-12-31T15:29:52.069180,10.485348,-8.178667,-0.081355,-0.503352,0.537561,-1.727526
2025-12-31T15:29:52.078180,9.159724,-7.585247,0.344566,-0.398284,0.717155,-1.782504
2025-12-31T15:29:52.088180,8.020741,-7.034898,0.598205,-0.307876,0.725707,-1.902233
2025-12-31T15:29:52.098180,7.484749,-6.302694,0.397208,-0.237015,0.587652,-2.094045
2025-12-31T15:29:52.107180,7.499106,-5.627918,-0.157926,-0.166155,0.382401,-2.351830
2025-12-31T15:29:52.117180,8.245666,-5.307280,-0.674775,-0.146607,0.156381,-2.599841
2025-12-31T15:29:52.127180,9.542576,-5.479563,-1.268195,-0.235793,-0.054977,-2.773327
2025-12-31T15:29:52.136180,11.006983,-5.924628,-1.363908,-0.356745,-0.218689,-2.866179
2025-12-31T15:29:52.146180,12.399606,-6.049055,-0.512064,-0.445931,-0.293215,-2.904052
2025-12-31T15:29:52.155180,13.485948,-5.838487,0.100498,-0.631634,-0.256563,-2.856405
2025-12-31T15:29:52.165180,13.897513,-5.977270,0.703489,-0.933401,-0.122173,-2.747671
2025-12-31T15:29:52.175180,13.978869,-6.695117,1.493121,-1.207069,0.065973,-2.638937
2025-12-31T15:29:52.184180,13.524233,-7.676174,0.947557,-1.363450,0.241902,-2.514320
2025-12-31T15:29:52.194180,12.792029,-8.394021,0.019142,-1.219286,0.387288,-2.439795
2025-12-31T15:29:52.203180,12.026326,-8.250452,-0.052642,-0.751364,0.499687,-2.443460
2025-12-31T15:29:52.213180,11.136196,-6.848258,-0.172283,-0.263893,0.560774,-2.470338
2025-12-31T15:29:52.223180,10.284351,-5.058426,-0.569491,0.050090,0.554665,-2.517985
2025-12-31T15:29:52.232180,9.690931,-3.220739,-0.588634,0.135612,0.461814,-2.583959
2025-12-31T15:29:52.242180,9.422935,-1.947757,-0.942772,-0.002443,0.312762,-2.663371
2025-12-31T15:29:52.252180,9.403792,-1.454836,-0.693918,-0.354301,0.112399,-2.724458
2025-12-31T15:29:52.261180,9.824929,-1.765903,-0.301495,-0.741590,-0.124616,-2.787988
2025-12-31T15:29:52.271180,10.872985,-2.502892,0.636490,-1.020144,-0.383623,-2.830748
2025-12-31T15:29:52.280180,12.399606,-3.340380,1.560120,-1.240056,-0.602312,-2.874731
2025-12-31T15:29:52.290180,13.998012,-4.460221,0.880558,-1.446528,-0.663399,-2.816088
2025-12-31T15:29:52.300180,15.079568,-5.694917,0.157926,-1.317025,-0.458148,-2.734232
2025-12-31T15:29:52.309180,15.141781,-6.106483,0.162711,-0.835663,-0.068416,-2.643824
2025-12-31T15:29:52.319180,14.227723,-5.570491,0.349352,-0.324980,0.302989,-2.536311
2025-12-31T15:29:52.328180,12.878171,-4.599005,0.468993,0.040317,0.532674,-2.470338
2025-12-31T15:29:52.338180,11.624332,-3.340380,-0.100498,0.279776,0.574213,-2.445903
2025-12-31T15:29:52.348180,10.791629,-2.067398,-0.512064,0.390953,0.464257,-2.456899
2025-12-31T15:29:52.357180,10.571490,-1.196411,-0.454636,0.321315,0.252898,-2.486221
2025-12-31T15:29:52.367180,10.805986,-0.890130,-0.454636,0.135612,0.036651,-2.481334
2025-12-31T15:29:52.377180,11.356336,-0.880558,-0.248853,-0.059864,-0.094073,-2.430021
2025-12-31T15:29:52.386180,11.873185,-1.287338,0.043070,-0.193033,-0.112399,-2.334726
2025-12-31T15:29:52.396180,12.007183,-1.655833,0.435493,-0.233350,-0.026878,-2.204001
2025-12-31T15:29:52.405180,11.571690,-1.679761,0.339780,-0.238237,0.094073,-2.042732
2025-12-31T15:29:52.415180,11.002198,-1.550549,0.325423,-0.222354,0.182037,-1.925446
2025-12-31T15:29:52.425180,10.389635,-1.325623,0.617348,-0.196698,0.189368,-1.844812
2025-12-31T15:29:52.434180,9.958927,-0.899701,0.923629,-0.210137,0.098960,-1.786169
2025-12-31T15:29:52.444180,10.001998,-0.669990,1.100698,-0.304210,-0.057421,-1.733635
2025-12-31T15:29:52.453180,10.351350,-0.588634,0.966700,-0.437379,-0.179594,-1.670105
2025-12-31T15:29:52.463180,10.676774,-0.684347,0.827916,-0.514348,-0.164933,-1.601688
2025-12-31T15:29:52.473180,10.566704,-0.717846,0.358923,-0.510683,-0.014660,-1.517388
2025-12-31T15:29:52.482180,10.006784,-0.693918,0.167497,-0.469144,0.191811,-1.445306
2025-12-31T15:29:52.492180,9.154939,-0.751346,0.000000,-0.394618,0.343306,-1.367116
2025-12-31T15:29:52.502180,8.312665,-0.866201,0.148355,-0.301767,0.375071,-1.306029
2025-12-31T15:29:52.511180,7.810172,-0.837487,0.315852,-0.224798,0.299323,-1.249830
2025-12-31T15:29:52.521180,7.532605,-0.722632,0.258424,-0.156381,0.183259,-1.178969
2025-12-31T15:29:52.530180,7.609175,-0.531206,0.488135,-0.102625,0.084299,-1.115439
2025-12-31T15:29:52.540180,7.685746,-0.401994,0.617348,-0.108733,0.036651,-1.032362
2025-12-31T15:29:52.550180,7.795816,-0.282353,0.579063,-0.149051,0.040317,-0.919962
2025-12-31T15:29:52.559180,7.657032,-0.191425,0.703489,-0.169820,0.085521,-0.817337
2025-12-31T15:29:52.569180,7.422535,-0.071784,0.818345,-0.197920,0.155159,-0.726929
2025-12-31T15:29:52.578180,6.996613,-0.066999,0.569491,-0.239459,0.204028,-0.642630
2025-12-31T15:29:52.588180,6.589833,-0.186640,0.234496,-0.257785,0.216246,-0.580321
2025-12-31T15:29:52.598180,6.297909,-0.234496,0.023928,-0.263893,0.179594,-0.529009
2025-12-31T15:29:52.607180,6.034698,-0.344566,-0.119641,-0.263893,0.108733,-0.469144
2025-12-31T15:29:52.617180,5.934200,-0.253639,-0.200997,-0.245567,0.036651,-0.405614
2025-12-31T15:29:52.627180,5.757131,-0.200997,0.028713,-0.228463,0.006108,-0.346971
2025-12-31T15:29:52.636180,5.441278,-0.090927,0.349352,-0.238237,0.019547,-0.277332
2025-12-31T15:29:52.646180,4.852644,-0.057427,0.722632,-0.268780,0.064751,-0.204028
2025-12-31T15:29:52.655180,4.010370,-0.181854,1.129412,-0.294436,0.114842,-0.151494
2025-12-31T15:29:52.665180,3.144168,-0.531206,1.335195,-0.331088,0.136833,-0.096516
2025-12-31T15:29:52.675180,2.359323,-0.990628,1.402194,-0.321315,0.106290,-0.048869
2025-12-31T15:29:52.684180,1.852044,-1.478764,1.239482,-0.227241,0.024434,-0.014660
2025-12-31T15:29:52.694180,1.828116,-1.670190,0.885344,-0.057421,-0.097738,0.012217
2025-12-31T15:29:52.703180,2.177468,-1.392622,0.598205,0.162490,-0.227241,0.039095
2025-12-31T15:29:52.713180,2.885744,-0.880558,0.636490,0.361632,-0.326201,0.052534
2025-12-31T15:29:52.723180,3.665804,-0.291924,0.851844,0.449596,-0.370184,0.079412
2025-12-31T15:29:52.732180,4.374079,0.205782,0.966700,0.416610,-0.346971,0.145385
2025-12-31T15:29:52.742180,4.876572,0.617348,1.249053,0.312762,-0.279776,0.200363
2025-12-31T15:29:52.752180,5.288137,0.952343,1.249053,0.136833,-0.211359,0.255341
2025-12-31T15:29:52.761180,5.618347,1.272981,1.057627,-0.068416,-0.171042,0.311541
2025-12-31T15:29:52.771180,6.034698,1.402194,0.885344,-0.284663,-0.189368,0.332310
2025-12-31T15:29:52.780180,6.623332,1.454836,0.555134,-0.518013,-0.280997,0.342084
2025-12-31T15:29:52.790180,7.590033,1.411765,0.023928,-0.739146,-0.409279,0.339641
2025-12-31T15:29:52.800180,8.776873,1.153340,-0.378065,-0.901636,-0.568104,0.317649
2025-12-31T15:29:52.809180,10.212566,0.885344,-0.674775,-0.988379,-0.726929,0.272445
2025-12-31T15:29:52.819180,11.753544,0.588634,-0.823130,-0.990823,-0.863763,0.216246
2025-12-31T15:29:52.828180,13.261022,0.105284,-1.105484,-0.911410,-0.935845,0.164933
2025-12-31T15:29:52.838180,14.682359,-0.172283,-1.287338,-0.713490,-0.894306,0.150272
2025-12-31T15:29:52.848180,15.419348,-0.382851,-1.033699,-0.398284,-0.647517,0.173485
2025-12-31T15:29:52.857180,15.093924,-0.258424,-0.512064,-0.012217,-0.245567,0.237015
2025-12-31T15:29:52.867180,13.538590,0.258424,-0.052642,0.335975,0.173485,0.345749
2025-12-31T15:29:52.877180,11.308479,0.866201,0.416351,0.580321,0.469144,0.439822
2025-12-31T15:29:52.886180,9.001798,1.167697,0.918843,0.713490,0.548556,0.504574
2025-12-31T15:29:52.896180,7.054041,1.383051,1.191625,0.752585,0.431270,0.540004
2025-12-31T15:29:52.905180,5.742774,1.459621,1.521835,0.780685,0.194255,0.546113
2025-12-31T15:29:52.915180,5.077569,1.440479,1.593619,0.814894,-0.112399,0.522900
2025-12-31T15:29:52.925180,5.326423,1.732403,1.383051,0.857654,-0.430049,0.475253
2025-12-31T15:29:52.934180,6.436692,2.244467,1.186840,0.882089,-0.712268,0.408057
2025-12-31T15:29:52.944180,7.944171,2.833101,1.028913,0.827111,-0.882089,0.335975
2025-12-31T15:29:52.953180,9.470791,3.105883,1.000199,0.685390,-0.875980,0.277332
2025-12-31T15:29:52.963180,10.657631,3.469592,0.818345,0.493579,-0.678060,0.243124
2025-12-31T15:29:52.973180,11.160124,3.522234,0.569491,0.261450,-0.375071,0.229685
2025-12-31T15:29:52.982180,11.064411,3.483949,0.425922,0.004886,-0.094073,0.219911
2025-12-31T15:29:52.992180,10.715059,3.105883,0.334995,-0.245567,0.070860,0.204028
2025-12-31T15:29:53.002180,10.427920,2.646461,0.124426,-0.458148,0.089186,0.189368
2025-12-31T15:29:53.011180,10.466206,2.072184,-0.081355,-0.581543,-0.006108,0.168598
2025-12-31T15:29:53.021180,10.748559,1.718046,-0.378065,-0.599869,-0.151494,0.145385
2025-12-31T15:29:53.030180,11.394621,1.440479,-0.311066,-0.519235,-0.271224,0.120951
2025-12-31T15:29:53.040180,11.935399,1.435693,-0.119641,-0.372627,-0.285884,0.111177
2025-12-31T15:29:53.050180,12.165110,1.469193,0.239282,-0.211359,-0.167377,0.117286
2025-12-31T15:29:53.059180,11.801401,1.540977,0.296710,-0.085521,0.041538,0.144164
2025-12-31T15:29:53.069180,10.834700,1.560120,0.210568,0.020769,0.238237,0.162490
2025-12-31T15:29:53.078180,9.667003,1.588834,0.148355,0.129503,0.335975,0.153938
2025-12-31T15:29:53.088180,8.719445,1.478764,0.306281,0.226020,0.311541,0.125838
2025-12-31T15:29:53.098180,8.044669,1.426122,0.258424,0.309097,0.200363,0.081855
2025-12-31T15:29:53.107180,7.862815,1.421336,0.349352,0.388510,0.064751,0.039095
2025-12-31T15:29:53.117180,8.087740,1.627119,0.320638,0.464257,-0.073303,-0.001221
2025-12-31T15:29:53.127180,8.614161,2.086541,0.368494,0.504574,-0.182037,-0.034208
2025-12-31T15:29:53.136180,9.432506,2.598605,0.421136,0.463035,-0.221133,-0.063529
2025-12-31T15:29:53.146180,9.978070,3.019742,0.373280,0.331088,-0.171042,-0.067195
2025-12-31T15:29:53.155180,10.322636,3.235096,0.315852,0.124616,-0.043982,-0.046425
2025-12-31T15:29:53.165180,10.336993,3.220739,0.220139,-0.119729,0.085521,-0.025656
2025-12-31T15:29:53.175180,10.159924,2.947957,0.066999,-0.348193,0.167377,-0.002443
2025-12-31T15:29:53.184180,9.963713,2.526820,-0.052642,-0.521678,0.163711,0.001221
2025-12-31T15:29:53.194180,9.858429,2.230110,-0.162711,-0.621860,0.097738,0.006108
2025-12-31T15:29:53.203180,10.179067,1.919043,-0.320638,-0.645073,-0.006108,-0.004886
2025-12-31T15:29:53.213180,10.600204,1.689332,-0.253639,-0.620638,-0.085521,-0.013439
2025-12-31T15:29:53.223180,10.968698,1.440479,0.000000,-0.561995,-0.089186,-0.020769
2025-12-31T15:29:53.232180,11.184052,1.191625,0.019142,-0.467922,-0.015882,-0.012217
2025-12-31T15:29:53.242180,11.016555,1.182054,0.023928,-0.326201,0.078190,-0.006108
2025-12-31T15:29:53.252180,10.681560,1.268195,0.043070,-0.175929,0.145385,-0.020769
2025-12-31T15:29:53.261180,10.317851,1.330409,0.110069,-0.046425,0.173485,-0.037873
2025-12-31T15:29:53.271180,10.049854,1.464407,0.272781,0.051312,0.180816,-0.057421
2025-12-31T15:29:53.280180,9.767501,1.646261,0.440279,0.097738,0.178372,-0.072082
2025-12-31T15:29:53.290180,9.619146,1.694118,0.612562,0.090408,0.173485,-0.076969
2025-12-31T15:29:53.300180,9.422935,1.670190,0.751346,0.040317,0.169820,-0.067195
2025-12-31T15:29:53.309180,9.312865,1.612762,0.727418,-0.040317,0.167377,-0.051312
2025-12-31T15:29:53.319180,9.169296,1.469193,0.722632,-0.136833,0.166155,-0.037873
2025-12-31T15:29:53.328180,9.111868,1.172483,0.689132,-0.224798,0.155159,-0.028099
2025-12-31T15:29:53.338180,9.131011,0.909272,0.655633,-0.283441,0.130725,-0.012217
2025-12-31T15:29:53.348180,9.241080,0.703489,0.579063,-0.301767,0.096516,-0.007330
2025-12-31T15:29:53.357180,9.442077,0.502492,0.588634,-0.267558,0.065973,-0.020769
2025-12-31T15:29:53.367180,9.753144,0.244067,0.521635,-0.230907,0.048869,-0.024434
2025-12-31T15:29:53.377180,9.978070,0.138783,0.397208,-0.173485,0.061086,-0.017104
2025-12-31T15:29:53.386180,10.155139,0.114855,0.354137,-0.079412,0.086742,0.001221
2025-12-31T15:29:53.396180,10.217352,0.387637,0.459421,0.000000,0.125838,0.035430
2025-12-31T15:29:53.405180,10.198209,0.583848,0.593420,0.008552,0.171042,0.076969
2025-12-31T15:29:53.415180,9.982855,0.765703,0.488135,-0.048869,0.230907,0.128281
2025-12-31T15:29:53.425180,9.686145,0.736989,0.454636,-0.144164,0.274889,0.178372
2025-12-31T15:29:53.434180,9.375078,0.569491,0.425922,-0.240680,0.260228,0.213802
2025-12-31T15:29:53.444180,9.092725,0.181854,0.425922,-0.301767,0.191811,0.235793
2025-12-31T15:29:53.453180,9.083154,-0.248853,0.569491,-0.290771,0.108733,0.245567
2025-12-31T15:29:53.463180,9.193224,-0.660419,0.660419,-0.205250,0.042760,0.241902
2025-12-31T15:29:53.473180,9.332008,-0.794417,0.636490,-0.052534,0.015882,0.259006
2025-12-31T15:29:53.482180,9.432506,-0.689132,0.646062,0.147829,0.026878,0.267558
2025-12-31T15:29:53.492180,9.437292,-0.531206,0.837487,0.337197,0.064751,0.287106
2025-12-31T15:29:53.502180,9.288937,-0.191425,1.158126,0.474031,0.128281,0.323758
2025-12-31T15:29:53.511180,9.049655,0.100498,0.937986,0.527787,0.218689,0.378736
2025-12-31T15:29:53.521180,8.566304,0.416351,0.971485,0.503352,0.326201,0.437379
2025-12-31T15:29:53.530180,7.939385,0.583848,1.081555,0.425162,0.405614,0.494800
2025-12-31T15:29:53.540180,7.365107,0.784845,1.062413,0.288328,0.431270,0.540004
