Timestamp,Acceleration_X,Acceleration_Y,Acceleration_Z,Gyro_X,Gyro_Y,Gyro_Z
2025-12-31T15:17:12.729775,9.743573,-1.493121,0.693918,0.007330,-0.025656,0.019547
2025-12-31T15:17:12.739775,9.753144,-1.469193,0.794417,0.025656,-0.028099,0.019547
2025-12-31T15:17:12.748775,9.748359,-1.402194,0.708275,0.034208,-0.031764,0.015882
2025-12-31T15:17:12.758775,9.762716,-1.359123,0.756131,0.031764,-0.039095,0.006108
2025-12-31T15:17:12.767775,9.815358,-1.335195,0.722632,0.021991,-0.040317,0.009773
2025-12-31T15:17:12.777775,9.858429,-1.344766,0.708275,0.007330,-0.043982,0.009773
2025-12-31T15:17:12.787775,9.868000,-1.373480,0.665204,-0.004886,-0.051312,0.000000
2025-12-31T15:17:12.796775,9.906285,-1.426122,0.646062,-0.015882,-0.051312,0.001221
2025-12-31T15:17:12.806775,9.934999,-1.454836,0.660419,-0.018325,-0.045204,0.008552
2025-12-31T15:17:12.816775,9.925428,-1.507478,0.660419,-0.007330,-0.030543,0.012217
2025-12-31T15:17:12.825775,9.834500,-1.502692,0.732203,0.009773,-0.020769,0.015882
2025-12-31T15:17:12.835775,9.705288,-1.493121,0.794417,0.024434,-0.012217,0.019547
2025-12-31T15:17:12.844775,9.705288,-1.363908,0.756131,0.031764,-0.010995,0.021991
2025-12-31T15:17:12.854775,9.681360,-1.349551,0.698704,0.032986,-0.026878,0.018325
2025-12-31T15:17:12.864775,9.705288,-1.263410,0.765703,0.020769,-0.050090,0.009773
2025-12-31T15:17:12.873775,9.844072,-1.253839,0.717846,-0.001221,-0.063529,0.010995
2025-12-31T15:17:12.883775,9.930213,-1.287338,0.851844,-0.020769,-0.052534,0.004886
2025-12-31T15:17:12.892775,9.887142,-1.316052,0.765703,-0.037873,-0.030543,0.003665
2025-12-31T15:17:12.902775,9.868000,-1.373480,0.727418,-0.050090,-0.008552,0.010995
2025-12-31T15:17:12.912775,9.786644,-1.392622,0.698704,-0.053756,0.000000,0.008552
2025-12-31T15:17:12.921775,9.724431,-1.483550,0.674775,-0.052534,-0.013439,0.004886
2025-12-31T15:17:12.931775,9.686145,-1.560120,0.732203,-0.039095,-0.031764,0.007330
2025-12-31T15:17:12.941775,9.805787,-1.517049,0.780060,-0.012217,-0.050090,0.001221
2025-12-31T15:17:12.950775,9.848857,-1.531406,0.684347,0.015882,-0.050090,-0.003665
2025-12-31T15:17:12.960775,9.844072,-1.473978,0.746560,0.043982,-0.032986,0.000000
2025-12-31T15:17:12.969775,9.801001,-1.416550,0.756131,0.062308,-0.015882,0.006108
2025-12-31T15:17:12.979775,9.791430,-1.244267,0.799202,0.057421,-0.008552,0.001221
2025-12-31T15:17:12.989775,9.710074,-1.253839,0.842273,0.026878,-0.009773,-0.001221
2025-12-31T15:17:12.998775,9.686145,-1.177268,0.760917,-0.012217,-0.019547,-0.001221
2025-12-31T15:17:13.008775,9.729216,-1.220339,0.698704,-0.056199,-0.031764,0.001221
2025-12-31T15:17:13.017775,9.734002,-1.378265,0.736989,-0.091629,-0.041538,0.003665
2025-12-31T15:17:13.027775,9.848857,-1.502692,0.689132,-0.105068,-0.050090,0.004886
2025-12-31T15:17:13.037775,9.844072,-1.646261,0.646062,-0.092851,-0.047647,0.003665
2025-12-31T15:17:13.046775,9.863214,-1.655833,0.655633,-0.054977,-0.039095,0.000000
2025-12-31T15:17:13.056775,9.906285,-1.670190,0.617348,-0.002443,-0.018325,0.001221
2025-12-31T15:17:13.066775,9.805787,-1.531406,0.617348,0.042760,-0.001221,0.003665
2025-12-31T15:17:13.075775,9.705288,-1.440479,0.703489,0.056199,-0.001221,0.001221
2025-12-31T15:17:13.085775,9.710074,-1.268195,0.669990,0.042760,-0.017104,0.004886
2025-12-31T15:17:13.094775,9.738787,-1.311266,0.727418,0.015882,-0.032986,0.006108
2025-12-31T15:17:13.104775,9.753144,-1.306481,0.713061,-0.017104,-0.043982,0.002443
2025-12-31T15:17:13.114775,9.767501,-1.349551,0.760917,-0.042760,-0.045204,0.003665
2025-12-31T15:17:13.123775,9.786644,-1.464407,0.717846,-0.057421,-0.036651,0.008552
2025-12-31T15:17:13.133775,9.829715,-1.502692,0.703489,-0.059864,-0.028099,0.013439
2025-12-31T15:17:13.142775,9.781858,-1.622333,0.655633,-0.046425,-0.025656,0.012217
2025-12-31T15:17:13.152775,9.815358,-1.603191,0.655633,-0.023212,-0.024434,0.010995
2025-12-31T15:17:13.162775,9.777073,-1.526620,0.626919,-0.003665,-0.025656,0.008552
2025-12-31T15:17:13.171775,9.743573,-1.478764,0.693918,0.009773,-0.029321,0.007330
2025-12-31T15:17:13.181775,9.762716,-1.430907,0.669990,0.010995,-0.030543,0.009773
2025-12-31T15:17:13.191775,9.810572,-1.416550,0.650847,0.007330,-0.031764,0.020769
2025-12-31T15:17:13.200775,9.777073,-1.435693,0.741775,-0.001221,-0.039095,0.017104
2025-12-31T15:17:13.210775,9.753144,-1.440479,0.693918,-0.010995,-0.042760,0.019547
2025-12-31T15:17:13.219775,9.815358,-1.531406,0.736989,-0.014660,-0.043982,0.024434
2025-12-31T15:17:13.229775,9.844072,-1.397408,0.732203,-0.013439,-0.047647,0.017104
2025-12-31T15:17:13.239775,9.896714,-1.459621,0.698704,-0.017104,-0.046425,0.015882
2025-12-31T15:17:13.248775,9.858429,-1.445264,0.679561,-0.019547,-0.040317,0.020769
2025-12-31T15:17:13.258775,9.901499,-1.488335,0.665204,-0.015882,-0.031764,0.025656
2025-12-31T15:17:13.267775,9.896714,-1.483550,0.693918,-0.007330,-0.025656,0.032986
2025-12-31T15:17:13.277775,9.772287,-1.445264,0.736989,-0.004886,-0.021991,0.036651
2025-12-31T15:17:13.287775,9.762716,-1.402194,0.717846,-0.001221,-0.024434,0.040317
2025-12-31T15:17:13.296775,9.729216,-1.440479,0.703489,-0.002443,-0.034208,0.037873
2025-12-31T15:17:13.306775,9.738787,-1.392622,0.713061,-0.002443,-0.041538,0.034208
2025-12-31T15:17:13.316775,9.796215,-1.450050,0.693918,0.006108,-0.046425,0.028099
2025-12-31T15:17:13.325775,9.772287,-1.464407,0.693918,0.013439,-0.043982,0.025656
2025-12-31T15:17:13.335775,9.853643,-1.416550,0.732203,0.014660,-0.041538,0.023212
2025-12-31T15:17:13.344775,9.820143,-1.416550,0.717846,0.017104,-0.037873,0.024434
2025-12-31T15:17:13.354775,9.863214,-1.344766,0.689132,0.015882,-0.036651,0.021991
2025-12-31T15:17:13.364775,9.848857,-1.368694,0.665204,0.002443,-0.034208,0.029321
2025-12-31T15:17:13.373775,9.820143,-1.339980,0.722632,-0.009773,-0.031764,0.032986
2025-12-31T15:17:13.383775,9.834500,-1.368694,0.751346,-0.021991,-0.032986,0.032986
2025-12-31T15:17:13.392775,9.786644,-1.349551,0.655633,-0.024434,-0.034208,0.030543
2025-12-31T15:17:13.402775,9.743573,-1.459621,0.741775,-0.017104,-0.035430,0.031764
2025-12-31T15:17:13.412775,9.781858,-1.488335,0.674775,-0.008552,-0.037873,0.021991
2025-12-31T15:17:13.421775,9.791430,-1.450050,0.660419,0.008552,-0.035430,0.014660
2025-12-31T15:17:13.431775,9.767501,-1.450050,0.713061,0.026878,-0.037873,0.004886
2025-12-31T15:17:13.441775,9.820143,-1.402194,0.736989,0.042760,-0.037873,0.007330
2025-12-31T15:17:13.450775,9.801001,-1.359123,0.693918,0.039095,-0.037873,0.007330
2025-12-31T15:17:13.460775,9.891928,-1.311266,0.631705,0.020769,-0.036651,0.008552
2025-12-31T15:17:13.469775,9.887142,-1.311266,0.717846,-0.002443,-0.040317,0.012217
2025-12-31T15:17:13.479775,9.863214,-1.359123,0.780060,-0.021991,-0.035430,0.020769
2025-12-31T15:17:13.489775,9.853643,-1.493121,0.746560,-0.025656,-0.028099,0.026878
2025-12-31T15:17:13.498775,9.777073,-1.512263,0.732203,-0.018325,-0.019547,0.025656
2025-12-31T15:17:13.508775,9.777073,-1.387837,0.674775,-0.008552,-0.009773,0.032986
2025-12-31T15:17:13.517775,9.676574,-1.426122,0.689132,-0.002443,-0.024434,0.023212
2025-12-31T15:17:13.527775,9.810572,-1.426122,0.684347,0.002443,-0.046425,0.014660
2025-12-31T15:17:13.537775,9.944570,-1.383051,0.665204,0.004886,-0.057421,0.007330
2025-12-31T15:17:13.546775,9.973284,-1.387837,0.622133,0.002443,-0.046425,0.002443
2025-12-31T15:17:13.556775,9.978070,-1.378265,0.703489,-0.001221,-0.021991,0.006108
2025-12-31T15:17:13.566775,9.853643,-1.416550,0.770488,-0.007330,-0.001221,0.003665
2025-12-31T15:17:13.575775,9.767501,-1.406979,0.655633,-0.006108,0.006108,0.009773
2025-12-31T15:17:13.585775,9.748359,-1.421336,0.660419,-0.003665,-0.006108,0.004886
2025-12-31T15:17:13.594775,9.671788,-1.445264,0.684347,0.002443,-0.026878,0.003665
2025-12-31T15:17:13.604775,9.667003,-1.464407,0.674775,0.004886,-0.043982,-0.001221
2025-12-31T15:17:13.614775,9.810572,-1.526620,0.703489,0.014660,-0.050090,0.000000
2025-12-31T15:17:13.623775,9.839286,-1.459621,0.727418,0.025656,-0.040317,0.004886
2025-12-31T15:17:13.633775,9.863214,-1.445264,0.665204,0.026878,-0.024434,0.012217
2025-12-31T15:17:13.642775,9.834500,-1.373480,0.665204,0.019547,-0.006108,0.015882
2025-12-31T15:17:13.652775,9.820143,-1.363908,0.741775,0.008552,0.001221,0.020769
2025-12-31T15:17:13.662775,9.748359,-1.330409,0.784845,-0.017104,-0.006108,0.019547
2025-12-31T15:17:13.671775,9.671788,-1.349551,0.741775,-0.042760,-0.017104,0.021991
2025-12-31T15:17:13.681775,9.690931,-1.402194,0.713061,-0.057421,-0.032986,0.021991
2025-12-31T15:17:13.691775,9.801001,-1.569691,0.655633,-0.054977,-0.041538,0.017104
2025-12-31T15:17:13.700775,9.815358,-1.588834,0.588634,-0.031764,-0.045204,0.008552
2025-12-31T15:17:13.710775,9.882357,-1.593619,0.593420,0.008552,-0.041538,0.006108
2025-12-31T15:17:13.719775,9.848857,-1.560120,0.646062,0.045204,-0.031764,0.008552
2025-12-31T15:17:13.729775,9.786644,-1.421336,0.631705,0.065973,-0.023212,0.003665
2025-12-31T15:17:13.739775,9.781858,-1.311266,0.641276,0.069638,-0.021991,0.004886
2025-12-31T15:17:13.748775,9.815358,-1.287338,0.684347,0.053756,-0.032986,0.007330
2025-12-31T15:17:13.758775,9.801001,-1.253839,0.703489,0.021991,-0.036651,0.006108
2025-12-31T15:17:13.767775,9.834500,-1.234696,0.713061,-0.010995,-0.032986,0.012217
2025-12-31T15:17:13.777775,9.801001,-1.354337,0.665204,-0.034208,-0.029321,0.017104
2025-12-31T15:17:13.787775,9.796215,-1.435693,0.612562,-0.042760,-0.026878,0.021991
2025-12-31T15:17:13.796775,9.791430,-1.493121,0.602991,-0.040317,-0.029321,0.017104
2025-12-31T15:17:13.806775,9.714859,-1.526620,0.703489,-0.026878,-0.031764,0.020769
2025-12-31T15:17:13.816775,9.786644,-1.502692,0.646062,-0.009773,-0.040317,0.010995
2025-12-31T15:17:13.825775,9.791430,-1.564905,0.574277,0.015882,-0.047647,0.004886
2025-12-31T15:17:13.835775,9.781858,-1.488335,0.689132,0.031764,-0.050090,0.003665
2025-12-31T15:17:13.844775,9.858429,-1.406979,0.646062,0.040317,-0.042760,0.008552
2025-12-31T15:17:13.854775,9.853643,-1.339980,0.713061,0.037873,-0.034208,0.012217
2025-12-31T15:17:13.864775,9.810572,-1.330409,0.669990,0.021991,-0.028099,0.015882
2025-12-31T15:17:13.873775,9.791430,-1.335195,0.679561,0.002443,-0.021991,0.024434
2025-12-31T15:17:13.883775,9.772287,-1.296909,0.646062,-0.017104,-0.021991,0.024434
2025-12-31T15:17:13.892775,9.724431,-1.354337,0.689132,-0.034208,-0.020769,0.026878
2025-12-31T15:17:13.902775,9.757930,-1.435693,0.655633,-0.046425,-0.034208,0.025656
2025-12-31T15:17:13.912775,9.753144,-1.478764,0.665204,-0.043982,-0.046425,0.014660
2025-12-31T15:17:13.921775,9.844072,-1.483550,0.626919,-0.026878,-0.050090,0.014660
2025-12-31T15:17:13.931775,9.839286,-1.536192,0.655633,-0.004886,-0.050090,0.013439
2025-12-31T15:17:13.941775,9.891928,-1.469193,0.631705,0.008552,-0.052534,0.007330
2025-12-31T15:17:13.950775,9.911071,-1.440479,0.598205,0.018325,-0.046425,0.009773
2025-12-31T15:17:13.960775,9.954142,-1.411765,0.602991,0.024434,-0.039095,0.012217
2025-12-31T15:17:13.969775,9.834500,-1.387837,0.650847,0.025656,-0.034208,0.015882
2025-12-31T15:17:13.979775,9.863214,-1.311266,0.736989,0.014660,-0.030543,0.023212
2025-12-31T15:17:13.989775,9.877571,-1.368694,0.732203,-0.004886,-0.025656,0.024434
2025-12-31T15:17:13.998775,9.762716,-1.368694,0.713061,-0.013439,-0.023212,0.032986
2025-12-31T15:17:14.008775,9.743573,-1.392622,0.765703,-0.026878,-0.024434,0.032986
2025-12-31T15:17:14.017775,9.695717,-1.354337,0.669990,-0.035430,-0.024434,0.036651
2025-12-31T15:17:14.027775,9.667003,-1.459621,0.717846,-0.029321,-0.032986,0.032986
2025-12-31T15:17:14.037775,9.767501,-1.483550,0.760917,-0.018325,-0.041538,0.026878
2025-12-31T15:17:14.046775,9.796215,-1.454836,0.717846,-0.004886,-0.046425,0.018325
2025-12-31T15:17:14.056775,9.877571,-1.373480,0.655633,0.007330,-0.043982,0.014660
2025-12-31T15:17:14.066775,9.853643,-1.335195,0.665204,0.012217,-0.036651,0.013439
2025-12-31T15:17:14.075775,9.915856,-1.383051,0.679561,0.004886,-0.030543,0.008552
2025-12-31T15:17:14.085775,9.882357,-1.397408,0.679561,-0.008552,-0.019547,0.015882
2025-12-31T15:17:14.094775,9.877571,-1.440479,0.717846,-0.020769,-0.015882,0.021991
2025-12-31T15:17:14.104775,9.877571,-1.473978,0.756131,-0.024434,-0.019547,0.018325
2025-12-31T15:17:14.114775,9.834500,-1.473978,0.655633,-0.019547,-0.020769,0.015882
2025-12-31T15:17:14.123775,9.820143,-1.478764,0.727418,-0.012217,-0.019547,0.021991
2025-12-31T15:17:14.133775,9.777073,-1.473978,0.751346,-0.002443,-0.021991,0.021991
2025-12-31T15:17:14.142775,9.829715,-1.430907,0.717846,0.002443,-0.017104,0.021991
2025-12-31T15:17:14.152775,9.767501,-1.450050,0.727418,-0.003665,-0.009773,0.026878
2025-12-31T15:17:14.162775,9.757930,-1.435693,0.732203,-0.009773,-0.001221,0.036651
2025-12-31T15:17:14.171775,9.762716,-1.378265,0.646062,-0.020769,-0.006108,0.040317
2025-12-31T15:17:14.181775,9.805787,-1.359123,0.641276,-0.036651,-0.025656,0.031764
2025-12-31T15:17:14.191775,9.863214,-1.402194,0.679561,-0.050090,-0.045204,0.023212
2025-12-31T15:17:14.200775,10.025926,-1.469193,0.669990,-0.050090,-0.039095,0.024434
2025-12-31T15:17:14.210775,10.068997,-1.531406,0.612562,-0.042760,-0.008552,0.030543
2025-12-31T15:17:14.219775,9.973284,-1.531406,0.679561,-0.031764,0.025656,0.032986
2025-12-31T15:17:14.229775,9.805787,-1.473978,0.622133,-0.017104,0.040317,0.035430
2025-12-31T15:17:14.239775,9.628718,-1.512263,0.689132,-0.010995,0.026878,0.031764
2025-12-31T15:17:14.248775,9.595218,-1.560120,0.722632,-0.009773,0.000000,0.029321
2025-12-31T15:17:14.258775,9.580861,-1.550549,0.732203,-0.003665,-0.031764,0.028099
2025-12-31T15:17:14.267775,9.686145,-1.588834,0.674775,0.003665,-0.046425,0.026878
2025-12-31T15:17:14.277775,9.781858,-1.517049,0.693918,0.018325,-0.043982,0.029321
2025-12-31T15:17:14.287775,9.877571,-1.459621,0.679561,0.024434,-0.032986,0.026878
2025-12-31T15:17:14.296775,9.896714,-1.402194,0.679561,0.023212,-0.013439,0.034208
2025-12-31T15:17:14.306775,9.858429,-1.368694,0.655633,0.018325,0.001221,0.037873
2025-12-31T15:17:14.316775,9.777073,-1.363908,0.626919,-0.006108,0.014660,0.039095
2025-12-31T15:17:14.325775,9.738787,-1.320838,0.708275,-0.030543,0.013439,0.040317
2025-12-31T15:17:14.335775,9.719645,-1.440479,0.698704,-0.052534,0.000000,0.036651
2025-12-31T15:17:14.344775,9.638289,-1.493121,0.665204,-0.061086,-0.019547,0.036651
2025-12-31T15:17:14.354775,9.757930,-1.603191,0.579063,-0.050090,-0.035430,0.031764
2025-12-31T15:17:14.364775,9.872786,-1.646261,0.660419,-0.023212,-0.046425,0.023212
2025-12-31T15:17:14.373775,9.868000,-1.674975,0.631705,0.008552,-0.035430,0.026878
2025-12-31T15:17:14.383775,9.887142,-1.564905,0.650847,0.040317,-0.026878,0.025656
2025-12-31T15:17:14.392775,9.853643,-1.497906,0.622133,0.054977,-0.019547,0.029321
2025-12-31T15:17:14.402775,9.791430,-1.392622,0.646062,0.051312,-0.020769,0.030543
2025-12-31T15:17:14.412775,9.801001,-1.368694,0.617348,0.036651,-0.023212,0.028099
2025-12-31T15:17:14.421775,9.781858,-1.325623,0.741775,0.017104,-0.020769,0.029321
2025-12-31T15:17:14.431775,9.848857,-1.406979,0.703489,-0.006108,-0.020769,0.025656
2025-12-31T15:17:14.441775,9.820143,-1.421336,0.698704,-0.021991,-0.018325,0.029321
2025-12-31T15:17:14.450775,9.791430,-1.473978,0.741775,-0.031764,-0.013439,0.029321
2025-12-31T15:17:14.460775,9.748359,-1.483550,0.727418,-0.032986,-0.010995,0.029321
2025-12-31T15:17:14.469775,9.700502,-1.569691,0.708275,-0.021991,-0.010995,0.028099
2025-12-31T15:17:14.479775,9.633503,-1.603191,0.708275,-0.004886,-0.015882,0.028099
2025-12-31T15:17:14.489775,9.628718,-1.550549,0.713061,0.015882,-0.023212,0.021991
2025-12-31T15:17:14.498775,9.657432,-1.598405,0.756131,0.031764,-0.034208,0.019547
2025-12-31T15:17:14.508775,9.734002,-1.536192,0.708275,0.046425,-0.039095,0.017104
2025-12-31T15:17:14.517775,9.753144,-1.473978,0.727418,0.047647,-0.046425,0.006108
2025-12-31T15:17:14.527775,9.930213,-1.387837,0.689132,0.041538,-0.043982,0.003665
2025-12-31T15:17:14.537775,9.925428,-1.378265,0.684347,0.030543,-0.036651,0.004886
2025-12-31T15:17:14.546775,9.930213,-1.387837,0.689132,0.010995,-0.020769,0.014660
2025-12-31T15:17:14.556775,9.911071,-1.454836,0.722632,-0.003665,-0.010995,0.020769
2025-12-31T15:17:14.566775,9.858429,-1.454836,0.650847,-0.006108,-0.001221,0.021991
2025-12-31T15:17:14.575775,9.848857,-1.507478,0.679561,-0.009773,-0.003665,0.024434
2025-12-31T15:17:14.585775,9.748359,-1.550549,0.765703,0.003665,-0.010995,0.019547
2025-12-31T15:17:14.594775,9.781858,-1.493121,0.669990,0.015882,-0.015882,0.021991
2025-12-31T15:17:14.604775,9.848857,-1.473978,0.669990,0.026878,-0.020769,0.014660
2025-12-31T15:17:14.614775,9.815358,-1.450050,0.765703,0.036651,-0.023212,0.014660
2025-12-31T15:17:14.623775,9.844072,-1.411765,0.780060,0.036651,-0.021991,0.014660
2025-12-31T15:17:14.633775,9.824929,-1.363908,0.736989,0.034208,-0.023212,0.017104
2025-12-31T15:17:14.642775,9.882357,-1.373480,0.708275,0.029321,-0.018325,0.024434
2025-12-31T15:17:14.652775,9.848857,-1.373480,0.679561,0.018325,-0.019547,0.020769
2025-12-31T15:17:14.662775,9.872786,-1.368694,0.703489,0.009773,-0.014660,0.024434
2025-12-31T15:17:14.671775,9.858429,-1.339980,0.732203,0.008552,-0.009773,0.026878
2025-12-31T15:17:14.681775,9.829715,-1.344766,0.722632,-0.002443,-0.009773,0.026878
2025-12-31T15:17:14.691775,9.805787,-1.373480,0.751346,-0.015882,-0.001221,0.030543
2025-12-31T15:17:14.700775,9.796215,-1.435693,0.765703,-0.013439,0.002443,0.024434
2025-12-31T15:17:14.710775,9.767501,-1.402194,0.722632,-0.001221,0.002443,0.021991
2025-12-31T15:17:14.719775,9.724431,-1.483550,0.636490,0.010995,-0.004886,0.010995
2025-12-31T15:17:14.729775,9.743573,-1.430907,0.722632,0.026878,-0.013439,0.003665
2025-12-31T15:17:14.739775,9.757930,-1.316052,0.703489,0.032986,-0.015882,-0.002443
2025-12-31T15:17:14.748775,9.858429,-1.330409,0.684347,0.035430,-0.025656,-0.013439
2025-12-31T15:17:14.758775,9.896714,-1.349551,0.669990,0.028099,-0.032986,-0.015882
2025-12-31T15:17:14.767775,10.011569,-1.359123,0.622133,0.015882,-0.035430,-0.018325
2025-12-31T15:17:14.777775,10.025926,-1.440479,0.665204,0.009773,-0.029321,-0.023212
2025-12-31T15:17:14.787775,10.045069,-1.430907,0.746560,0.015882,-0.012217,-0.020769
2025-12-31T15:17:14.796775,9.915856,-1.435693,0.713061,0.031764,0.010995,-0.008552
2025-12-31T15:17:14.806775,9.738787,-1.435693,0.751346,0.041538,0.020769,-0.004886
2025-12-31T15:17:14.816775,9.710074,-1.320838,0.693918,0.045204,0.014660,-0.006108
2025-12-31T15:17:14.825775,9.710074,-1.316052,0.736989,0.043982,-0.014660,-0.014660
2025-12-31T15:17:14.835775,9.772287,-1.272981,0.784845,0.028099,-0.040317,-0.026878
2025-12-31T15:17:14.844775,9.901499,-1.330409,0.660419,0.020769,-0.037873,-0.034208
2025-12-31T15:17:14.854775,9.911071,-1.368694,0.717846,0.021991,-0.018325,-0.036651
2025-12-31T15:17:14.864775,9.863214,-1.373480,0.717846,0.025656,0.002443,-0.037873
2025-12-31T15:17:14.873775,9.805787,-1.430907,0.741775,0.024434,0.009773,-0.036651
2025-12-31T15:17:14.883775,9.762716,-1.421336,0.713061,0.023212,0.000000,-0.037873
2025-12-31T15:17:14.892775,9.729216,-1.430907,0.708275,0.026878,-0.017104,-0.037873
2025-12-31T15:17:14.902775,9.786644,-1.373480,0.708275,0.030543,-0.028099,-0.037873
2025-12-31T15:17:14.912775,9.868000,-1.421336,0.732203,0.032986,-0.023212,-0.028099
2025-12-31T15:17:14.921775,9.872786,-1.426122,0.741775,0.031764,-0.009773,-0.023212
2025-12-31T15:17:14.931775,9.810572,-1.368694,0.746560,0.039095,0.006108,-0.014660
2025-12-31T15:17:14.941775,9.671788,-1.316052,0.741775,0.039095,0.021991,-0.014660
2025-12-31T15:17:14.950775,9.590432,-1.249053,0.756131,0.036651,0.024434,-0.010995
2025-12-31T15:17:14.960775,9.504291,-1.215553,0.808774,0.029321,0.008552,-0.021991
2025-12-31T15:17:14.969775,9.609575,-1.129412,0.713061,0.000000,-0.015882,-0.025656
2025-12-31T15:17:14.979775,9.724431,-1.229910,0.698704,-0.026878,-0.039095,-0.037873
2025-12-31T15:17:14.989775,9.844072,-1.277767,0.684347,-0.041538,-0.047647,-0.046425
2025-12-31T15:17:14.998775,9.949356,-1.325623,0.703489,-0.040317,-0.040317,-0.041538
2025-12-31T15:17:15.008775,10.006784,-1.397408,0.646062,-0.029321,-0.018325,-0.028099
2025-12-31T15:17:15.017775,9.901499,-1.411765,0.617348,-0.004886,0.004886,-0.019547
2025-12-31T15:17:15.027775,9.748359,-1.316052,0.626919,0.017104,0.012217,-0.018325
2025-12-31T15:17:15.037775,9.767501,-1.258624,0.665204,0.024434,-0.001221,-0.020769
2025-12-31T15:17:15.046775,9.757930,-1.182054,0.669990,0.023212,-0.020769,-0.024434
2025-12-31T15:17:15.056775,9.753144,-1.148554,0.717846,0.023212,-0.032986,-0.028099
2025-12-31T15:17:15.066775,9.743573,-1.086341,0.756131,0.014660,-0.035430,-0.029321
2025-12-31T15:17:15.075775,9.729216,-1.062413,0.646062,-0.004886,-0.026878,-0.035430
2025-12-31T15:17:15.085775,9.738787,-1.095912,0.674775,-0.019547,-0.020769,-0.043982
2025-12-31T15:17:15.094775,9.686145,-1.052841,0.708275,-0.030543,-0.023212,-0.042760
2025-12-31T15:17:15.104775,9.710074,-1.182054,0.689132,-0.045204,-0.036651,-0.059864
2025-12-31T15:17:15.114775,9.743573,-1.210768,0.689132,-0.050090,-0.050090,-0.068416
2025-12-31T15:17:15.123775,9.839286,-1.205982,0.636490,-0.050090,-0.059864,-0.072082
2025-12-31T15:17:15.133775,9.915856,-1.263410,0.669990,-0.040317,-0.059864,-0.072082
2025-12-31T15:17:15.142775,9.901499,-1.268195,0.717846,-0.029321,-0.050090,-0.069638
2025-12-31T15:17:15.152775,9.848857,-1.287338,0.655633,-0.018325,-0.030543,-0.057421
2025-12-31T15:17:15.162775,9.724431,-1.268195,0.693918,-0.006108,-0.023212,-0.053756
2025-12-31T15:17:15.171775,9.662217,-1.234696,0.765703,0.001221,-0.024434,-0.053756
2025-12-31T15:17:15.181775,9.619146,-1.201196,0.727418,0.002443,-0.031764,-0.057421
2025-12-31T15:17:15.191775,9.609575,-1.124626,0.775274,0.000000,-0.040317,-0.057421
2025-12-31T15:17:15.200775,9.614361,-1.129412,0.799202,-0.008552,-0.056199,-0.062308
2025-12-31T15:17:15.210775,9.734002,-1.134197,0.799202,-0.019547,-0.069638,-0.068416
2025-12-31T15:17:15.219775,9.781858,-1.172483,0.789631,-0.026878,-0.068416,-0.069638
2025-12-31T15:17:15.229775,9.858429,-1.191625,0.684347,-0.029321,-0.061086,-0.072082
2025-12-31T15:17:15.239775,9.930213,-1.253839,0.732203,-0.026878,-0.053756,-0.069638
2025-12-31T15:17:15.248775,9.987641,-1.268195,0.660419,-0.030543,-0.048869,-0.062308
2025-12-31T15:17:15.258775,9.877571,-1.229910,0.698704,-0.032986,-0.041538,-0.061086
2025-12-31T15:17:15.267775,9.829715,-1.292124,0.736989,-0.030543,-0.037873,-0.051312
2025-12-31T15:17:15.277775,9.834500,-1.229910,0.689132,-0.021991,-0.039095,-0.045204
2025-12-31T15:17:15.287775,9.786644,-1.272981,0.698704,-0.008552,-0.043982,-0.047647
2025-12-31T15:17:15.296775,9.815358,-1.292124,0.765703,-0.001221,-0.054977,-0.051312
2025-12-31T15:17:15.306775,9.810572,-1.272981,0.784845,0.018325,-0.063529,-0.050090
2025-12-31T15:17:15.316775,9.810572,-1.311266,0.813559,0.035430,-0.068416,-0.057421
2025-12-31T15:17:15.325775,9.887142,-1.191625,0.813559,0.042760,-0.059864,-0.053756
2025-12-31T15:17:15.335775,9.858429,-1.196411,0.813559,0.045204,-0.041538,-0.048869
2025-12-31T15:17:15.344775,9.757930,-1.062413,0.789631,0.035430,-0.030543,-0.043982
2025-12-31T15:17:15.354775,9.767501,-1.009771,0.813559,0.013439,-0.024434,-0.039095
2025-12-31T15:17:15.364775,9.700502,-1.043270,0.775274,-0.009773,-0.028099,-0.031764
2025-12-31T15:17:15.373775,9.705288,-1.019342,0.808774,-0.029321,-0.047647,-0.031764
2025-12-31T15:17:15.383775,9.863214,-1.062413,0.736989,-0.048869,-0.069638,-0.037873
2025-12-31T15:17:15.392775,10.006784,-1.124626,0.641276,-0.058643,-0.079412,-0.041538
2025-12-31T15:17:15.402775,10.045069,-1.201196,0.665204,-0.043982,-0.070860,-0.045204
2025-12-31T15:17:15.412775,10.059426,-1.115055,0.741775,-0.014660,-0.053756,-0.054977
2025-12-31T15:17:15.421775,9.973284,-1.182054,0.689132,0.021991,-0.036651,-0.063529
2025-12-31T15:17:15.431775,9.968498,-1.105484,0.717846,0.061086,-0.036651,-0.068416
2025-12-31T15:17:15.441775,9.963713,-0.961914,0.602991,0.091629,-0.058643,-0.086742
2025-12-31T15:17:15.450775,10.001998,-0.894915,0.650847,0.112399,-0.079412,-0.106290
2025-12-31T15:17:15.460775,10.145567,-0.842273,0.674775,0.116064,-0.086742,-0.114842
2025-12-31T15:17:15.469775,10.073783,-0.823130,0.698704,0.120951,-0.069638,-0.120951
2025-12-31T15:17:15.479775,10.097711,-0.732203,0.746560,0.125838,-0.046425,-0.127059
2025-12-31T15:17:15.489775,9.978070,-0.732203,0.713061,0.120951,-0.021991,-0.135612
2025-12-31T15:17:15.498775,9.820143,-0.660419,0.732203,0.117286,-0.014660,-0.153938
2025-12-31T15:17:15.508775,9.719645,-0.612562,0.794417,0.108733,-0.029321,-0.169820
2025-12-31T15:17:15.517775,9.662217,-0.564706,0.823130,0.084299,-0.052534,-0.183259
2025-12-31T15:17:15.527775,9.853643,-0.641276,0.851844,0.062308,-0.070860,-0.200363
2025-12-31T15:17:15.537775,9.906285,-0.617348,0.713061,0.041538,-0.078190,-0.196698
2025-12-31T15:17:15.546775,9.949356,-0.617348,0.756131,0.023212,-0.063529,-0.212581
2025-12-31T15:17:15.556775,9.963713,-0.722632,0.803988,0.020769,-0.046425,-0.218689
2025-12-31T15:17:15.566775,9.891928,-0.780060,0.760917,0.043982,-0.029321,-0.226020
2025-12-31T15:17:15.575775,9.848857,-0.818345,0.732203,0.078190,-0.015882,-0.248011
2025-12-31T15:17:15.585775,9.796215,-0.669990,0.842273,0.109955,-0.018325,-0.265115
2025-12-31T15:17:15.594775,9.820143,-0.622133,0.794417,0.119729,-0.048869,-0.288328
2025-12-31T15:17:15.604775,9.982855,-0.574277,0.746560,0.117286,-0.080634,-0.311541
2025-12-31T15:17:15.614775,10.179067,-0.545563,0.746560,0.114842,-0.091629,-0.328645
2025-12-31T15:17:15.623775,10.231709,-0.535992,0.827916,0.116064,-0.068416,-0.331088
2025-12-31T15:17:15.633775,10.255637,-0.488135,0.789631,0.119729,-0.025656,-0.327423
2025-12-31T15:17:15.642775,10.025926,-0.464207,0.784845,0.122173,0.018325,-0.321315
2025-12-31T15:17:15.652775,9.844072,-0.435493,0.784845,0.119729,0.040317,-0.317649
2025-12-31T15:17:15.662775,9.638289,-0.334995,0.837487,0.106290,0.034208,-0.312762
2025-12-31T15:17:15.671775,9.528219,-0.339780,0.957129,0.067195,0.021991,-0.307876
2025-12-31T15:17:15.681775,9.442077,-0.325423,1.014556,0.017104,0.037873,-0.302989
2025-12-31T15:17:15.691775,9.131011,-0.516849,1.138983,-0.010995,0.089186,-0.285884
2025-12-31T15:17:15.700775,8.719445,-0.679561,1.220339,-0.039095,0.145385,-0.276111
2025-12-31T15:17:15.710775,8.164310,-0.904486,1.339980,-0.042760,0.180816,-0.260228
2025-12-31T15:17:15.719775,7.700103,-1.225125,1.253839,-0.013439,0.178372,-0.251676
2025-12-31T15:17:15.729775,7.274180,-1.454836,1.215553,0.046425,0.134390,-0.251676
2025-12-31T15:17:15.739775,7.054041,-1.679761,1.301695,0.157603,0.054977,-0.257785
2025-12-31T15:17:15.748775,7.274180,-1.651047,1.383051,0.293215,-0.043982,-0.265115
2025-12-31T15:17:15.758775,7.814958,-1.617548,1.402194,0.420275,-0.141720,-0.278554
2025-12-31T15:17:15.767775,8.571090,-1.354337,1.234696,0.485026,-0.175929,-0.246789
2025-12-31T15:17:15.777775,9.284151,-1.186840,1.296909,0.502131,-0.100181,-0.168598
2025-12-31T15:17:15.787775,9.547362,-0.914058,1.287338,0.453261,0.074525,-0.063529
2025-12-31T15:17:15.796775,9.327222,-0.689132,1.158126,0.300545,0.282219,0.092851
2025-12-31T15:17:15.806775,8.690731,-0.631705,1.239482,0.092851,0.439822,0.241902
2025-12-31T15:17:15.816775,7.867600,-0.502492,1.349551,-0.123394,0.498465,0.370184
2025-12-31T15:17:15.825775,7.226324,-0.564706,1.497906,-0.386066,0.445931,0.476474
2025-12-31T15:17:15.835775,6.752545,-1.004985,1.560120,-0.629191,0.318871,0.561995
2025-12-31T15:17:15.844775,6.752545,-1.497906,1.416550,-0.796568,0.167377,0.626747
2025-12-31T15:17:15.854775,7.001398,-2.225325,1.167697,-0.884532,0.034208,0.685390
2025-12-31T15:17:15.864775,7.436892,-3.096312,0.818345,-0.829554,-0.047647,0.729372
2025-12-31T15:17:15.873775,7.724031,-3.799802,0.665204,-0.621860,-0.067195,0.777020
2025-12-31T15:17:15.883775,8.006384,-4.201796,0.847059,-0.340862,-0.029321,0.829554
2025-12-31T15:17:15.892775,8.068597,-4.393222,0.961914,-0.018325,0.063529,0.889419
2025-12-31T15:17:15.902775,7.824529,-4.402793,1.052841,0.332310,0.184481,0.939510
2025-12-31T15:17:15.912775,7.389036,-3.991228,1.009771,0.653625,0.287106,0.981049
2025-12-31T15:17:15.921775,6.958328,-3.388236,0.976271,0.880867,0.346971,1.023809
2025-12-31T15:17:15.931775,6.561119,-2.799602,0.679561,1.007927,0.361632,1.050687
2025-12-31T15:17:15.941775,6.221338,-2.048256,0.847059,1.043357,0.334754,1.053131
2025-12-31T15:17:15.950775,5.996413,-1.488335,1.081555,0.935845,0.271224,1.060461
2025-12-31T15:17:15.960775,6.015556,-1.186840,1.244267,0.687834,0.174707,1.066570
2025-12-31T15:17:15.969775,6.230910,-1.182054,1.244267,0.371405,0.064751,1.086118
2025-12-31T15:17:15.979775,6.604190,-1.397408,1.095912,0.023212,-0.034208,1.133765
2025-12-31T15:17:15.989775,6.915257,-2.033899,0.842273,-0.304210,-0.094073,1.204625
2025-12-31T15:17:15.998775,7.135396,-2.876172,0.789631,-0.536339,-0.102625,1.299920
2025-12-31T15:17:16.008775,7.106683,-3.747160,0.794417,-0.623082,-0.073303,1.407433
2025-12-31T15:17:16.017775,6.920042,-4.450650,0.593420,-0.581543,-0.024434,1.518610
2025-12-31T15:17:16.027775,6.575476,-5.029713,0.535992,-0.426383,0.012217,1.609018
2025-12-31T15:17:16.037775,6.245266,-5.264209,0.679561,-0.149051,0.009773,1.672548
2025-12-31T15:17:16.046775,6.144768,-5.067998,0.689132,0.177150,-0.025656,1.704313
2025-12-31T15:17:16.056775,6.197410,-4.479363,0.698704,0.488692,-0.070860,1.703091
2025-12-31T15:17:16.066775,6.508477,-3.756731,0.780060,0.717155,-0.112399,1.688431
2025-12-31T15:17:16.075775,6.867400,-3.086741,0.808774,0.795346,-0.157603,1.678657
2025-12-31T15:17:16.085775,7.389036,-2.775674,0.794417,0.729372,-0.184481,1.667661
2025-12-31T15:17:16.094775,7.848458,-2.742174,0.698704,0.592539,-0.172263,1.682322
2025-12-31T15:17:16.104775,8.135596,-2.818745,0.636490,0.416610,-0.139277,1.704313
2025-12-31T15:17:16.114775,8.303094,-3.091526,0.655633,0.254119,-0.094073,1.736078
2025-12-31T15:17:16.123775,8.269594,-3.393022,0.770488,0.138055,-0.046425,1.786169
2025-12-31T15:17:16.133775,8.197810,-3.780659,0.918843,0.057421,-0.003665,1.847256
2025-12-31T15:17:16.142775,8.092526,-4.110869,0.995414,0.019547,0.031764,1.912007
2025-12-31T15:17:16.152775,8.001598,-4.340580,0.904486,0.028099,0.061086,1.958433
2025-12-31T15:17:16.162775,7.920242,-4.555934,0.823130,0.072082,0.056199,1.965763
2025-12-31T15:17:16.171775,8.097311,-4.594219,0.957129,0.166155,0.024434,1.926668
2025-12-31T15:17:16.181775,8.394021,-4.551148,1.105484,0.251676,-0.021991,1.876577
2025-12-31T15:17:16.191775,8.781658,-4.465006,1.048056,0.260228,-0.054977,1.847256
2025-12-31T15:17:16.200775,9.178867,-4.465006,1.014556,0.191811,-0.073303,1.844812
2025-12-31T15:17:16.210775,9.647860,-4.512863,1.292124,0.039095,-0.109955,1.859473
2025-12-31T15:17:16.219775,10.078568,-4.627718,1.354337,-0.169820,-0.125838,1.915672
2025-12-31T15:17:16.229775,10.509276,-5.067998,1.349551,-0.368962,-0.096516,1.987755
2025-12-31T15:17:16.239775,10.762916,-5.589633,1.186840,-0.513126,0.004886,2.075719
2025-12-31T15:17:16.248775,10.533205,-6.302694,1.086341,-0.548556,0.147829,2.191784
2025-12-31T15:17:16.258775,10.001998,-6.982256,1.038485,-0.452040,0.293215,2.282192
2025-12-31T15:17:16.267775,9.241080,-7.546962,0.947557,-0.245567,0.390953,2.333504
2025-12-31T15:17:16.277775,8.413164,-7.934599,0.679561,0.042760,0.403170,2.317622
2025-12-31T15:17:16.287775,7.886743,-8.226524,0.899701,0.371405,0.284663,2.224770
2025-12-31T15:17:16.296775,7.901100,-8.274380,1.134197,0.697607,0.054977,2.070832
2025-12-31T15:17:16.306775,8.551947,-8.078169,1.196411,0.984714,-0.188146,1.925446
2025-12-31T15:17:16.316775,9.518648,-7.566105,1.253839,1.165530,-0.307876,1.833817
2025-12-31T15:17:16.325775,10.298708,-6.900900,1.272981,1.186300,-0.272445,1.822821
2025-12-31T15:17:16.335775,10.624132,-6.283552,1.220339,1.020144,-0.119729,1.897347
2025-12-31T15:17:16.344775,10.360921,-5.785845,1.143769,0.704938,0.069638,2.001194
2025-12-31T15:17:16.354775,9.710074,-5.642275,1.249053,0.324980,0.215024,2.102597
2025-12-31T15:17:16.364775,8.891728,-5.972485,1.579262,-0.068416,0.262671,2.172236
2025-12-31T15:17:16.373775,8.159525,-6.843472,1.713260,-0.463035,0.197920,2.206444
2025-12-31T15:17:16.383775,7.958527,-8.283951,1.473978,-0.746477,0.040317,2.213775
2025-12-31T15:17:16.392775,8.054240,-9.853643,1.406979,-0.729372,-0.108733,2.153910
2025-12-31T15:17:16.402775,8.379664,-11.030912,1.383051,-0.448374,-0.172263,2.072054
2025-12-31T15:17:16.412775,8.685946,-11.729616,1.124626,-0.009773,-0.135612,2.019520
2025-12-31T15:17:16.421775,8.800801,-11.700902,0.861416,0.542448,-0.010995,1.984089
2025-12-31T15:17:16.431775,8.609375,-11.073982,0.708275,1.026253,0.151494,1.997528
2025-12-31T15:17:16.441775,8.092526,-9.915856,0.646062,1.288925,0.273667,2.048841
2025-12-31T15:17:16.450775,7.609175,-8.508877,0.861416,1.290147,0.320093,2.123367
2025-12-31T15:17:16.460775,7.063612,-7.250252,1.335195,1.001818,0.287106,2.183231
2025-12-31T15:17:16.469775,6.637689,-6.498906,1.789831,0.469144,0.196698,2.229657
2025-12-31T15:17:16.479775,6.388836,-6.537191,1.938186,-0.162490,0.083077,2.246761
2025-12-31T15:17:16.489775,6.245266,-7.585247,2.134397,-0.789237,-0.023212,2.240653
2025-12-31T15:17:16.498775,6.139982,-9.288937,1.899901,-1.270599,-0.113620,2.232101
2025-12-31T15:17:16.508775,6.125625,-11.255837,1.808973,-1.387885,-0.138055,2.196670
2025-12-31T15:17:16.517775,6.068198,-12.792029,1.555334,-1.171639,-0.089186,2.138027
2025-12-31T15:17:16.527775,5.895914,-13.816157,1.201196,-0.711046,-0.010995,2.079384
2025-12-31T15:17:16.537775,5.656632,-14.031511,0.914058,-0.095294,0.067195,1.979202
2025-12-31T15:17:16.546775,5.417350,-13.586446,1.057627,0.521678,0.094073,1.860695
2025-12-31T15:17:16.556775,5.268995,-12.442677,1.325623,1.010370,0.065973,1.748295
2025-12-31T15:17:16.566775,5.288137,-11.078768,1.421336,1.236390,0.008552,1.661553
2025-12-31T15:17:16.575775,5.335994,-9.992427,1.928615,1.149648,-0.047647,1.605353
2025-12-31T15:17:16.585775,5.465206,-9.394221,2.297109,0.827111,-0.075747,1.578475
2025-12-31T15:17:16.594775,5.493920,-9.174081,2.617747,0.416610,-0.069638,1.562592
2025-12-31T15:17:16.604775,5.369493,-9.260223,2.861815,0.008552,-0.012217,1.534493
2025-12-31T15:17:16.614775,4.977071,-9.681360,2.919243,-0.333532,0.080634,1.501506
2025-12-31T15:17:16.623775,4.297509,-10.078568,2.579462,-0.548556,0.182037,1.451415
2025-12-31T15:17:16.633775,3.613162,-10.590632,2.531606,-0.623082,0.241902,1.346346
2025-12-31T15:17:16.642775,3.024527,-11.002198,2.641676,-0.582765,0.234572,1.171639
2025-12-31T15:17:16.652775,2.641676,-11.318050,2.675175,-0.465479,0.168598,0.951727
2025-12-31T15:17:16.662775,2.608176,-11.404192,2.761317,-0.265115,0.090408,0.693942
2025-12-31T15:17:16.671775,2.804388,-11.322836,2.842673,-0.046425,0.013439,0.420275
2025-12-31T15:17:16.681775,3.120240,-11.093125,2.837887,0.173485,-0.028099,0.160046
2025-12-31T15:17:16.691775,3.416950,-10.389635,2.861815,0.377514,-0.026878,-0.081855
2025-12-31T15:17:16.700775,3.656232,-9.446863,2.727817,0.488692,0.021991,-0.282219
2025-12-31T15:17:16.710775,3.699303,-8.819944,2.833101,0.444709,0.100181,-0.456927
2025-12-31T15:17:16.719775,3.651447,-8.604590,2.914457,0.278554,0.158824,-0.609643
2025-12-31T15:17:16.729775,3.512663,-8.628518,2.880958,0.052534,0.188146,-0.756251
2025-12-31T15:17:16.739775,3.488735,-9.044869,2.684746,-0.208915,0.168598,-0.934623
2025-12-31T15:17:16.748775,3.728017,-9.734002,2.254038,-0.425162,0.076969,-1.102000
2025-12-31T15:17:16.758775,4.158725,-10.542776,1.856830,-0.500909,-0.030543,-1.301142
2025-12-31T15:17:16.767775,4.838287,-11.107482,1.536192,-0.500909,-0.122173,-1.484402
2025-12-31T15:17:16.777775,5.723631,-11.533404,1.129412,-0.382401,-0.160046,-1.648114
2025-12-31T15:17:16.787775,6.340979,-11.389835,0.684347,-0.168598,-0.118507,-1.772730
2025-12-31T15:17:16.796775,6.699903,-11.021340,0.736989,0.015882,-0.031764,-1.892460
2025-12-31T15:17:16.806775,6.843472,-10.772487,1.057627,0.037873,0.023212,-1.960877
2025-12-31T15:17:16.816775,7.025327,-10.695917,1.229910,0.003665,0.047647,-2.017076
2025-12-31T15:17:16.825775,7.154539,-10.461420,1.406979,0.031764,0.079412,-2.140471
2025-12-31T15:17:16.835775,7.087540,-10.064211,1.545763,0.068416,0.118507,-2.273639
2025-12-31T15:17:16.844775,6.982256,-9.724431,1.445264,0.083077,0.144164,-2.387260
2025-12-31T15:17:16.854775,6.814758,-9.533005,1.249053,0.019547,0.136833,-2.470338
2025-12-31T15:17:16.864775,6.728617,-9.422935,0.904486,-0.096516,0.062308,-2.559524
2025-12-31T15:17:16.873775,6.867400,-9.341579,0.732203,-0.229685,-0.064751,-2.674367
2025-12-31T15:17:16.883775,7.393821,-9.657432,1.349551,-0.439822,-0.246789,-2.787988
2025-12-31T15:17:16.892775,8.322237,-10.011569,1.641476,-0.631634,-0.432492,-2.879618
2025-12-31T15:17:16.902775,9.422935,-9.863214,1.493121,-0.645073,-0.522900,-2.961474
2025-12-31T15:17:16.912775,10.298708,-9.427721,1.359123,-0.592539,-0.442266,-3.023782
2025-12-31T15:17:16.921775,10.782058,-9.044869,1.100698,-0.615752,-0.240680,-2.995682
2025-12-31T15:17:16.931775,10.662417,-8.762516,0.847059,-0.663399,0.017104,-2.934595
2025-12-31T15:17:16.941775,10.011569,-8.413164,0.631705,-0.722042,0.244346,-2.927265
2025-12-31T15:17:16.950775,9.054440,-8.135596,0.378065,-0.778242,0.379958,-2.966360
2025-12-31T15:17:16.960775,7.996813,-7.494320,0.220139,-0.786794,0.375071,-3.072651
2025-12-31T15:17:16.969775,7.355536,-6.805187,0.559920,-0.811228,0.199142,-3.240028
2025-12-31T15:17:16.979775,7.427321,-6.503691,1.158126,-0.932180,-0.150272,-3.462383
2025-12-31T15:17:16.989775,8.551947,-6.460621,1.598405,-1.104444,-0.605978,-3.689625
2025-12-31T15:17:16.998775,10.667203,-6.790830,1.607976,-1.293812,-0.983492,-3.861889
2025-12-31T15:17:17.008775,13.036097,-7.709674,1.076770,-1.490510,-1.154535,-3.853337
2025-12-31T15:17:17.017775,15.156138,-8.848657,0.473778,-1.490510,-0.994488,-3.749490
2025-12-31T15:17:17.027775,16.041483,-9.949356,0.244067,-1.266934,-0.529009,-3.555234
2025-12-31T15:17:17.037775,15.529418,-10.576275,-0.186640,-0.904080,0.058643,-3.292562
2025-12-31T15:17:17.046775,13.653445,-10.557133,-0.540777,-0.409279,0.570548,-3.049438
2025-12-31T15:17:17.056775,11.150553,-9.743573,-0.478564,0.152716,0.806341,-2.907717
2025-12-31T15:17:17.066775,9.044869,-8.456235,0.114855,0.674395,0.675616,-2.905274
2025-12-31T15:17:17.075775,8.025527,-6.628118,0.717846,1.049466,0.266337,-3.025004
2025-12-31T15:17:17.085775,8.001598,-4.780859,0.866201,1.204625,-0.238237,-3.180163
2025-12-31T15:17:17.094775,8.906085,-3.235096,0.957129,1.196073,-0.635299,-3.329214
2025-12-31T15:17:17.104775,10.226923,-2.014756,1.158126,1.058018,-0.824667,-3.400075
2025-12-31T15:17:17.114775,11.394621,-1.172483,1.277767,0.741590,-0.789237,-3.370753
2025-12-31T15:17:17.123775,12.126824,-0.679561,1.143769,0.270002,-0.588873,-3.247358
2025-12-31T15:17:17.133775,12.169895,-0.641276,0.899701,-0.283441,-0.323758,-3.092199
2025-12-31T15:17:17.142775,11.720045,-0.914058,0.823130,-0.850324,-0.102625,-2.939482
2025-12-31T15:17:17.152775,11.150553,-1.402194,0.914058,-1.351233,-0.012217,-2.833192
2025-12-31T15:17:17.162775,10.667203,-1.856830,0.736989,-1.734856,-0.068416,-2.762332
2025-12-31T15:17:17.171775,10.705488,-2.383251,0.732203,-2.006081,-0.219911,-2.729345
2025-12-31T15:17:17.181775,11.184052,-2.804388,0.741775,-2.140471,-0.384845,-2.704910
2025-12-31T15:17:17.191775,11.787044,-3.220739,0.622133,-2.124588,-0.452040,-2.654819
2025-12-31T15:17:17.200775,12.413963,-3.598805,0.267996,-1.981646,-0.362853,-2.566855
2025-12-31T15:17:17.210775,12.634103,-4.067798,0.593420,-1.684765,-0.157603,-2.487442
2025-12-31T15:17:17.219775,12.490533,-4.527220,1.048056,-1.263269,0.118507,-2.410473
2025-12-31T15:17:17.229775,12.002398,-4.651647,0.674775,-0.739146,0.404392,-2.306626
2025-12-31T15:17:17.239775,11.097911,-4.273581,-0.086141,-0.136833,0.673173,-2.183231
2025-12-31T15:17:17.248775,10.054640,-3.622733,-0.464207,0.436157,0.860098,-2.087936
2025-12-31T15:17:17.258775,8.982656,-2.737389,-0.411565,0.842993,0.905302,-1.976759
2025-12-31T15:17:17.267775,8.116454,-1.804188,-0.081355,1.011592,0.836885,-1.837482
2025-12-31T15:17:17.277775,7.403393,-0.899701,0.406779,0.952949,0.700051,-1.676213
2025-12-31T15:17:17.287775,7.030112,-0.023928,0.847059,0.733038,0.527787,-1.523497
2025-12-31T15:17:17.296775,6.848258,0.646062,1.134197,0.404392,0.337197,-1.382998
2025-12-31T15:17:17.306775,6.900900,1.071984,1.172483,0.003665,0.147829,-1.273042
2025-12-31T15:17:17.316775,7.245466,1.138983,1.344766,-0.419053,-0.012217,-1.177747
2025-12-31T15:17:17.325775,7.561319,0.914058,1.354337,-0.816115,-0.142942,-1.083674
2025-12-31T15:17:17.335775,8.039883,0.468993,1.129412,-1.145982,-0.226020,-1.001818
2025-12-31T15:17:17.344775,8.475377,-0.172283,0.851844,-1.367116,-0.246789,-0.924849
2025-12-31T15:17:17.354775,8.791230,-0.923629,0.330209,-1.444085,-0.202807,-0.840550
2025-12-31T15:17:17.364775,8.757730,-1.545763,0.081355,-1.351233,-0.076969,-0.737925
2025-12-31T15:17:17.373775,8.298308,-1.976471,0.038285,-1.136209,0.114842,-0.631634
2025-12-31T15:17:17.383775,7.527819,-2.187039,0.114855,-0.841772,0.305432,-0.533896
2025-12-31T15:17:17.392775,6.541976,-2.335394,0.181854,-0.525343,0.423940,-0.458148
2025-12-31T15:17:17.402775,5.680560,-2.258824,0.090927,-0.191811,0.409279,-0.414166
2025-12-31T15:17:17.412775,5.106283,-1.890329,0.162711,0.139277,0.279776,-0.428827
2025-12-31T15:17:17.421775,5.101497,-1.383051,0.306281,0.412944,0.058643,-0.455705
2025-12-31T15:17:17.431775,5.599204,-0.646062,0.516849,0.598647,-0.212581,-0.478918
2025-12-31T15:17:17.441775,6.637689,0.181854,0.665204,0.647517,-0.453261,-0.474031
2025-12-31T15:17:17.450775,7.853243,0.909272,0.363709,0.536339,-0.538783,-0.401949
2025-12-31T15:17:17.460775,8.652446,1.397408,0.110069,0.313984,-0.405614,-0.277332
2025-12-31T15:17:17.469775,8.618947,1.718046,0.277567,0.013439,-0.095294,-0.116064
2025-12-31T15:17:17.479775,7.704888,1.765903,0.526420,-0.353080,0.274889,0.050090
2025-12-31T15:17:17.489775,6.101697,1.383051,0.516849,-0.715933,0.558330,0.180816
2025-12-31T15:17:17.498775,4.412364,0.717846,0.497707,-0.963945,0.643851,0.237015
2025-12-31T15:17:17.508775,3.005385,0.023928,0.574277,-1.049466,0.516791,0.226020
2025-12-31T15:17:17.517775,2.268395,-0.593420,0.722632,-0.999375,0.222354,0.168598
2025-12-31T15:17:17.527775,2.349751,-0.933200,0.574277,-0.841772,-0.144164,0.097738
2025-12-31T15:17:17.537775,3.000599,-0.990628,0.354137,-0.626747,-0.494800,0.029321
2025-12-31T15:17:17.546775,4.244867,-0.937986,0.449850,-0.404392,-0.755029,-0.012217
2025-12-31T15:17:17.556775,5.661418,-0.698704,0.473778,-0.191811,-0.860098,-0.018325
2025-12-31T15:17:17.566775,6.752545,-0.459421,0.512064,-0.028099,-0.762359,0.015882
2025-12-31T15:17:17.575775,7.312465,-0.153140,0.344566,0.051312,-0.498465,0.081855
2025-12-31T15:17:17.585775,7.135396,0.043070,0.162711,0.100181,-0.174707,0.158824
2025-12-31T15:17:17.594775,6.417550,0.267996,0.258424,0.111177,0.062308,0.191811
2025-12-31T15:17:17.604775,5.690132,0.392422,0.258424,0.054977,0.101403,0.194255
2025-12-31T15:17:17.614775,5.350351,0.535992,0.210568,-0.029321,-0.059864,0.167377
2025-12-31T15:17:17.623775,5.690132,0.583848,0.239282,-0.133168,-0.364075,0.116064
2025-12-31T15:17:17.633775,6.786044,0.593420,0.311066,-0.259006,-0.728151,0.058643
2025-12-31T15:17:17.642775,8.389236,0.569491,0.239282,-0.375071,-1.028696,0.019547
2025-12-31T15:17:17.652775,10.231709,0.488135,0.129212,-0.482583,-1.194852,0.004886
2025-12-31T15:17:17.662775,11.944970,0.320638,-0.062213,-0.579100,-1.177747,0.045204
2025-12-31T15:17:17.671775,13.131810,0.023928,-0.033499,-0.596204,-0.978605,0.125838
2025-12-31T15:17:17.681775,13.624731,-0.258424,0.090927,-0.537561,-0.660956,0.212581
2025-12-31T15:17:17.691775,13.318450,-0.445065,0.019142,-0.427605,-0.299323,0.339641
2025-12-31T15:17:17.700775,12.375678,-0.382851,0.019142,-0.245567,0.017104,0.474031
2025-12-31T15:17:17.710775,11.160124,-0.033499,0.267996,-0.020769,0.175929,0.553443
2025-12-31T15:17:17.719775,10.140782,0.684347,0.698704,0.141720,0.150272,0.603534
2025-12-31T15:17:17.729775,9.509077,1.473978,0.933200,0.186924,0.028099,0.619417
2025-12-31T15:17:17.739775,9.174081,2.033899,1.258624,0.127059,-0.117286,0.619417
2025-12-31T15:17:17.748775,9.097511,2.344966,1.526620,0.006108,-0.239459,0.594982
2025-12-31T15:17:17.758775,9.226723,2.325823,1.627119,-0.122173,-0.306654,0.549778
2025-12-31T15:17:17.767775,9.274580,2.043470,1.617548,-0.206472,-0.317649,0.486248
2025-12-31T15:17:17.777775,9.399007,1.660618,1.579262,-0.204028,-0.298102,0.415388
2025-12-31T15:17:17.787775,9.509077,1.253839,1.646261,-0.108733,-0.277332,0.329867
2025-12-31T15:17:17.796775,9.710074,1.229910,1.435693,0.031764,-0.245567,0.248011
2025-12-31T15:17:17.806775,9.920642,1.478764,1.239482,0.166155,-0.173485,0.184481
2025-12-31T15:17:17.816775,9.887142,1.799402,1.095912,0.246789,-0.092851,0.133168
2025-12-31T15:17:17.825775,9.906285,2.201396,1.028913,0.233350,-0.039095,0.090408
2025-12-31T15:17:17.835775,9.920642,2.344966,1.148554,0.086742,-0.037873,0.069638
2025-12-31T15:17:17.844775,10.059426,2.249253,1.119840,-0.108733,-0.083077,0.054977
2025-12-31T15:17:17.854775,10.360921,1.957328,0.928415,-0.282219,-0.152716,0.043982
2025-12-31T15:17:17.864775,10.849057,1.545763,0.713061,-0.403170,-0.216246,0.036651
2025-12-31T15:17:17.873775,11.274980,1.091127,0.569491,-0.421496,-0.235793,0.035430
2025-12-31T15:17:17.883775,11.586047,0.880558,0.579063,-0.345749,-0.161268,0.034208
2025-12-31T15:17:17.892775,11.490334,0.646062,0.641276,-0.229685,-0.008552,0.045204
2025-12-31T15:17:17.902775,11.011769,0.550349,0.602991,-0.097738,0.157603,0.051312
2025-12-31T15:17:17.912775,10.332207,0.531206,0.425922,0.031764,0.276111,0.056199
2025-12-31T15:17:17.921775,9.590432,0.636490,0.411565,0.141720,0.299323,0.034208
2025-12-31T15:17:17.931775,9.178867,0.698704,0.483350,0.240680,0.245567,0.001221
2025-12-31T15:17:17.941775,8.997012,0.909272,0.559920,0.300545,0.157603,-0.040317
2025-12-31T15:17:17.950775,9.087940,1.134197,0.684347,0.293215,0.074525,-0.059864
2025-12-31T15:17:17.960775,9.389435,1.268195,0.617348,0.235793,0.015882,-0.046425
2025-12-31T15:17:17.969775,9.724431,1.416550,0.516849,0.141720,-0.024434,-0.029321
2025-12-31T15:17:17.979775,10.054640,1.383051,0.483350,0.012217,-0.029321,0.000000
2025-12-31T15:17:17.989775,10.241280,1.086341,0.411565,-0.114842,0.014660,0.037873
2025-12-31T15:17:17.998775,10.126425,0.808774,0.272781,-0.200363,0.092851,0.074525
2025-12-31T15:17:18.008775,9.920642,0.368494,0.114855,-0.216246,0.156381,0.100181
2025-12-31T15:17:18.017775,9.681360,0.062213,0.210568,-0.163711,0.171042,0.096516
2025-12-31T15:17:18.027775,9.451649,-0.215354,0.239282,-0.074525,0.150272,0.084299
2025-12-31T15:17:18.037775,9.466006,-0.330209,0.354137,0.032986,0.129503,0.072082
2025-12-31T15:17:18.046775,9.346365,-0.253639,0.454636,0.129503,0.130725,0.064751
2025-12-31T15:17:18.056775,9.332008,-0.296710,0.540777,0.185702,0.139277,0.063529
2025-12-31T15:17:18.066775,9.265009,-0.306281,0.588634,0.190589,0.153938,0.080634
2025-12-31T15:17:18.075775,9.126225,-0.344566,0.564706,0.174707,0.162490,0.109955
2025-12-31T15:17:18.085775,9.150153,-0.478564,0.665204,0.156381,0.157603,0.135612
2025-12-31T15:17:18.094775,9.040083,-0.583848,0.602991,0.144164,0.142942,0.161268
2025-12-31T15:17:18.104775,9.107082,-0.756131,0.497707,0.156381,0.112399,0.178372
2025-12-31T15:17:18.114775,9.336793,-0.880558,0.526420,0.206472,0.069638,0.190589
2025-12-31T15:17:18.123775,9.552147,-0.890130,0.545563,0.270002,0.036651,0.208915
2025-12-31T15:17:18.133775,9.863214,-0.765703,0.607776,0.328645,0.037873,0.241902
2025-12-31T15:17:18.142775,10.068997,-0.440279,0.473778,0.360410,0.103847,0.300545
2025-12-31T15:17:18.152775,9.920642,-0.210568,0.464207,0.335975,0.235793,0.394618
2025-12-31T15:17:18.162775,9.346365,-0.105284,0.636490,0.244346,0.388510,0.502131
2025-12-31T15:17:18.171775,8.532805,-0.110069,0.722632,0.117286,0.496022,0.625525
2025-12-31T15:17:18.181775,7.690531,-0.296710,0.775274,-0.007330,0.513126,0.722042
2025-12-31T15:17:18.191775,6.972685,-0.473778,0.808774,-0.095294,0.441044,0.786794
2025-12-31T15:17:18.200775,6.575476,-0.808774,0.803988,-0.131946,0.316428,0.831998
2025-12-31T15:17:18.210775,6.470192,-1.086341,0.866201,-0.085521,0.183259,0.851545
2025-12-31T15:17:18.219775,6.546762,-1.378265,0.842273,0.025656,0.057421,0.844215
2025-12-31T15:17:18.229775,6.924828,-1.521835,0.885344,0.183259,-0.047647,0.834441
2025-12-31T15:17:18.239775,7.542176,-1.512263,0.961914,0.361632,-0.107512,0.819780
2025-12-31T15:17:18.248775,8.154739,-1.335195,0.698704,0.525343,-0.098960,0.818559
2025-12-31T15:17:18.258775,8.618947,-1.033699,0.464207,0.631634,-0.004886,0.850324
2025-12-31T15:17:18.267775,8.762516,-0.875773,0.358923,0.664621,0.145385,0.897971
2025-12-31T15:17:18.277775,8.595018,-0.732203,0.445065,0.616973,0.310319,0.977384
2025-12-31T15:17:18.287775,7.977670,-0.636490,0.430708,0.529009,0.438601,1.075122
2025-12-31T15:17:18.296775,7.298108,-0.579063,0.473778,0.423940,0.486248,1.145982
2025-12-31T15:17:18.306775,6.728617,-0.655633,0.693918,0.293215,0.414166,1.196073
2025-12-31T15:17:18.316775,6.570690,-0.794417,0.947557,0.155159,0.246789,1.229060
2025-12-31T15:17:18.325775,6.829115,-1.038485,0.981057,0.069638,0.034208,1.243721
2025-12-31T15:17:18.335775,7.580461,-1.354337,1.038485,0.017104,-0.141720,1.241277
2025-12-31T15:17:18.344775,8.441878,-1.765903,0.885344,0.018325,-0.191811,1.248608
2025-12-31T15:17:18.354775,9.025726,-2.134397,0.626919,0.108733,-0.054977,1.280373
2025-12-31T15:17:18.364775,9.083154,-2.340180,0.267996,0.279776,0.213802,1.339016
2025-12-31T15:17:18.373775,8.370093,-2.249253,0.177068,0.456927,0.482583,1.412320
2025-12-31T15:17:18.383775,7.312465,-2.129612,0.177068,0.598647,0.646295,1.478293
2025-12-31T15:17:18.392775,6.254838,-2.005185,0.114855,0.698829,0.663399,1.525941
2025-12-31T15:17:18.402775,5.331208,-1.808973,0.124426,0.766024,0.555887,1.555262
2025-12-31T15:17:18.412775,4.862215,-1.588834,0.334995,0.794124,0.348193,1.566258
2025-12-31T15:17:18.421775,4.857429,-1.406979,0.555134,0.777020,0.075747,1.552819
2025-12-31T15:17:18.431775,5.379065,-1.239482,0.942772,0.723264,-0.195476,1.523497
2025-12-31T15:17:18.441775,6.283552,-1.134197,1.138983,0.592539,-0.404392,1.514945
2025-12-31T15:17:18.450775,7.312465,-1.316052,0.942772,0.430049,-0.486248,1.522275
2025-12-31T15:17:18.460775,8.087740,-1.579262,0.588634,0.310319,-0.405614,1.539380
2025-12-31T15:17:18.469775,8.571090,-1.952543,0.287138,0.245567,-0.221133,1.552819
2025-12-31T15:17:18.479775,8.508877,-2.282752,0.224925,0.232128,-0.024434,1.566258
2025-12-31T15:17:18.489775,8.207381,-2.746960,0.095712,0.262671,0.124616,1.563814
2025-12-31T15:17:18.498775,7.805387,-2.971885,0.143569,0.331088,0.208915,1.556484
2025-12-31T15:17:18.508775,7.412964,-3.249453,0.033499,0.406836,0.207694,1.550375
2025-12-31T15:17:18.517775,7.240681,-3.455235,-0.062213,0.520457,0.133168,1.533271
2025-12-31T15:17:18.527775,7.130611,-3.373879,-0.004785,0.654847,0.012217,1.496619
2025-12-31T15:17:18.537775,7.403393,-3.163311,0.320638,0.730594,-0.139277,1.464854
2025-12-31T15:17:18.546775,7.996813,-3.000599,0.617348,0.713490,-0.296880,1.453858
2025-12-31T15:17:18.556775,8.781658,-2.876172,0.933200,0.623082,-0.414166,1.440419
2025-12-31T15:17:18.566775,9.690931,-3.034099,1.363908,0.509461,-0.461814,1.428202
2025-12-31T15:17:18.575775,10.509276,-3.201596,1.306481,0.403170,-0.409279,1.435533
2025-12-31T15:17:18.585775,11.097911,-3.479164,0.842273,0.304210,-0.232128,1.478293
2025-12-31T15:17:18.594775,10.983055,-3.919443,0.382851,0.274889,0.052534,1.552819
2025-12-31T15:17:18.604775,10.289137,-4.034298,-0.052642,0.346971,0.361632,1.653000
2025-12-31T15:17:18.614775,9.107082,-4.063012,0.033499,0.412944,0.563217,1.729969
2025-12-31T15:17:18.623775,8.011170,-4.120440,0.306281,0.414166,0.570548,1.777617
2025-12-31T15:17:18.633775,7.350751,-4.235296,0.416351,0.392175,0.376292,1.794721
2025-12-31T15:17:18.642775,7.470392,-4.479363,0.569491,0.340862,0.042760,1.775174
2025-12-31T15:17:18.652775,8.389236,-4.747360,0.679561,0.272445,-0.357966,1.734856
2025-12-31T15:17:18.662775,9.930213,-5.091926,0.942772,0.251676,-0.689055,1.692096
2025-12-31T15:17:18.671775,11.576475,-5.111069,0.966700,0.251676,-0.830776,1.682322
2025-12-31T15:17:18.681775,12.916456,-5.240281,0.756131,0.223576,-0.737925,1.745852
2025-12-31T15:17:18.691775,13.375878,-5.312066,0.736989,0.190589,-0.452040,1.849699
2025-12-31T15:17:18.700775,12.921242,-5.369493,0.847059,0.145385,-0.094073,1.973094
2025-12-31T15:17:18.710775,11.686545,-5.508277,0.818345,0.059864,0.205250,2.070832
2025-12-31T15:17:18.719775,10.198209,-5.656632,0.799202,-0.002443,0.354301,2.106262
2025-12-31T15:17:18.729775,9.049655,-6.087340,0.531206,-0.007330,0.332310,2.065945
2025-12-31T15:17:18.739775,8.417949,-6.905686,0.847059,-0.002443,0.199142,1.982868
2025-12-31T15:17:18.748775,8.173882,-7.992027,0.990628,0.090408,-0.048869,1.913229
2025-12-31T15:17:18.758775,8.685946,-8.762516,0.760917,0.343306,-0.328645,1.847256
2025-12-31T15:17:18.767775,9.556933,-9.083154,0.559920,0.691499,-0.508239,1.793499
2025-12-31T15:17:18.777775,10.504491,-8.839086,0.674775,1.014036,-0.533896,1.786169
2025-12-31T15:17:18.787775,11.093125,-7.972884,1.009771,1.247386,-0.411723,1.848477
2025-12-31T15:17:18.796775,11.150553,-6.628118,1.325623,1.271821,-0.201585,1.949881
2025-12-31T15:17:18.806775,10.662417,-5.431707,1.785045,0.949284,-0.006108,2.067167
2025-12-31T15:17:18.816775,9.820143,-4.981856,2.172682,0.405614,0.105068,2.164905
2025-12-31T15:17:18.825775,8.973084,-5.211567,2.459821,-0.155159,0.147829,2.195449
2025-12-31T15:17:18.835775,8.274380,-6.096911,2.455035,-0.669508,0.111177,2.185675
2025-12-31T15:17:18.844775,7.867600,-7.570890,1.861615,-1.021366,0.017104,2.147801
2025-12-31T15:17:18.854775,7.829315,-9.188438,1.229910,-1.103222,-0.078190,2.100154
2025-12-31T15:17:18.864775,8.039883,-10.676774,0.957129,-0.901636,-0.125838,2.048841
2025-12-31T15:17:18.873775,8.078169,-11.495119,0.631705,-0.483805,-0.102625,2.013411
2025-12-31T15:17:18.883775,8.025527,-11.681759,0.430708,-0.012217,-0.040317,2.039067
2025-12-31T15:17:18.892775,7.800601,-11.107482,0.717846,0.362853,0.010995,2.084271
2025-12-31T15:17:18.902775,7.503891,-9.887142,1.430907,0.605978,0.024434,2.081828
2025-12-31T15:17:18.912775,7.255038,-8.513662,2.297109,0.641408,0.018325,2.052506
2025-12-31T15:17:18.921775,7.020541,-7.398607,2.890529,0.409279,-0.006108,2.012189
2025-12-31T15:17:18.931775,6.757331,-6.795616,3.129811,-0.028099,-0.041538,1.984089
2025-12-31T15:17:18.941775,6.556333,-7.010970,3.196810,-0.509461,-0.061086,1.944994
2025-12-31T15:17:18.950775,6.173482,-7.853243,2.751745,-0.952949,-0.051312,1.907120
2025-12-31T15:17:18.960775,5.857629,-9.274580,1.818545,-1.192408,-0.030543,1.877799
2025-12-31T15:17:18.969775,5.402993,-10.715059,1.282552,-1.070235,0.009773,1.778839
2025-12-31T15:17:18.979775,5.087140,-11.892328,1.076770,-0.768468,0.015882,1.681100
2025-12-31T15:17:18.989775,4.804787,-12.949955,0.751346,-0.373849,-0.045204,1.616349
2025-12-31T15:17:18.998775,4.780859,-13.323236,0.502492,0.175929,-0.114842,1.536936
2025-12-31T15:17:19.008775,4.867001,-12.897313,0.756131,0.682947,-0.178372,1.452637
2025-12-31T15:17:19.017775,5.225924,-12.035897,1.387837,1.005483,-0.234572,1.391550
2025-12-31T15:17:19.027775,5.412564,-10.791629,1.899901,1.177747,-0.216246,1.324355
2025-12-31T15:17:19.037775,5.503491,-9.485148,2.388036,1.130100,-0.131946,1.262047
2025-12-31T15:17:19.046775,5.268995,-8.633303,2.737389,0.841772,-0.028099,1.213178
2025-12-31T15:17:19.056775,4.890929,-8.288737,2.665604,0.361632,0.039095,1.197295
2025-12-31T15:17:19.066775,4.474578,-8.489734,2.545963,-0.133168,0.069638,1.136209
2025-12-31T15:17:19.075775,4.106083,-8.963513,2.148754,-0.541226,0.062308,1.037248
2025-12-31T15:17:19.085775,3.790230,-9.681360,1.464407,-0.807563,-0.001221,0.926071
2025-12-31T15:17:19.094775,3.732803,-10.360921,1.091127,-0.910189,-0.083077,0.799011
2025-12-31T15:17:19.104775,3.694518,-10.920842,0.933200,-0.849102,-0.152716,0.652403
2025-12-31T15:17:19.114775,3.823730,-11.193624,0.808774,-0.702494,-0.205250,0.504574
2025-12-31T15:17:19.123775,4.024727,-11.112268,1.028913,-0.483805,-0.226020,0.340862
2025-12-31T15:17:19.133775,4.249652,-10.753344,1.249053,-0.259006,-0.219911,0.151494
2025-12-31T15:17:19.142775,4.488935,-10.241280,1.411765,-0.153938,-0.224798,-0.023212
2025-12-31T15:17:19.152775,4.914857,-10.021141,1.560120,-0.127059,-0.228463,-0.213802
2025-12-31T15:17:19.162775,5.278566,-9.958927,1.497906,-0.125838,-0.222354,-0.411723
2025-12-31T15:17:19.171775,5.632704,-10.059426,1.435693,-0.171042,-0.194255,-0.585208
2025-12-31T15:17:19.181775,5.910271,-10.413563,0.957129,-0.267558,-0.150272,-0.704938
2025-12-31T15:17:19.191775,6.087340,-10.834700,0.708275,-0.306654,-0.086742,-0.807563
2025-12-31T15:17:19.200775,6.020341,-11.155338,0.808774,-0.252898,-0.021991,-0.934623
2025-12-31T15:17:19.210775,6.125625,-11.270194,1.009771,-0.178372,0.024434,-1.040914
2025-12-31T15:17:19.219775,6.259623,-11.193624,1.397408,-0.043982,0.083077,-1.148426
2025-12-31T15:17:19.229775,6.355336,-10.786844,1.584048,0.139277,0.160046,-1.274264
2025-12-31T15:17:19.239775,6.364908,-10.112068,1.655833,0.305432,0.254119,-1.398881
2025-12-31T15:17:19.248775,6.317051,-9.269794,1.808973,0.453261,0.361632,-1.551597
2025-12-31T15:17:19.258775,6.063412,-8.394021,1.933400,0.499687,0.453261,-1.721417
2025-12-31T15:17:19.267775,5.982056,-8.092526,1.718046,0.251676,0.421496,-1.813047
2025-12-31T15:17:19.277775,6.312266,-8.374879,1.349551,-0.151494,0.262671,-1.902233
2025-12-31T15:17:19.287775,6.934399,-9.030512,0.995414,-0.481361,0.084299,-2.042732
2025-12-31T15:17:19.296775,7.819744,-9.647860,0.655633,-0.708603,-0.041538,-2.146580
2025-12-31T15:17:19.306775,8.752945,-10.126425,0.416351,-0.784350,-0.062308,-2.225992
2025-12-31T15:17:19.316775,9.375078,-10.179067,0.339780,-0.670729,0.051312,-2.277305
2025-12-31T15:17:19.325775,9.518648,-9.743573,0.258424,-0.496022,0.255341,-2.295631
2025-12-31T15:17:19.335775,9.087940,-9.107082,0.258424,-0.390953,0.464257,-2.320065
2025-12-31T15:17:19.344775,8.346165,-8.528019,0.325423,-0.350636,0.585208,-2.405586
2025-12-31T15:17:19.354775,7.714460,-7.992027,0.440279,-0.328645,0.593760,-2.568076
2025-12-31T15:17:19.364775,7.374679,-7.594818,0.598205,-0.346971,0.482583,-2.785544
2025-12-31T15:17:19.373775,7.518248,-7.513462,0.870987,-0.415388,0.266337,-3.017673
2025-12-31T15:17:19.383775,8.336593,-7.771887,0.904486,-0.574213,-0.006108,-3.211928
2025-12-31T15:17:19.392775,9.762716,-8.216952,0.062213,-0.769690,-0.273667,-3.320662
2025-12-31T15:17:19.402775,11.437692,-8.738588,-0.507278,-0.841772,-0.412944,-3.395188
2025-12-31T15:17:19.412775,12.873385,-8.987441,-0.598205,-0.818559,-0.398284,-3.415957
2025-12-31T15:17:19.421775,13.873585,-9.145367,-0.650847,-0.790459,-0.284663,-3.335323
2025-12-31T15:17:19.431775,14.433505,-9.174081,-0.780060,-0.796568,-0.111177,-3.194824
2025-12-31T15:17:19.441775,14.419148,-9.336793,-0.842273,-0.808785,0.087964,-3.045773
2025-12-31T15:17:19.450775,13.954941,-9.609575,-0.631705,-0.734259,0.290771,-2.967582
2025-12-31T15:17:19.460775,13.060025,-9.686145,-0.177068,-0.502131,0.455705,-2.961474
2025-12-31T15:17:19.469775,12.074182,-9.274580,0.148355,-0.145385,0.549778,-2.982243
2025-12-31T15:17:19.479775,11.121839,-8.322237,0.349352,0.254119,0.572991,-3.035999
2025-12-31T15:17:19.489775,10.384850,-6.719045,0.358923,0.569326,0.544891,-3.114190
2025-12-31T15:17:19.498775,9.647860,-4.962714,0.090927,0.747698,0.511904,-3.198489
2025-12-31T15:17:19.508775,8.963513,-3.196810,-0.191425,0.849102,0.483805,-3.299893
2025-12-31T15:17:19.517775,8.408378,-1.775474,0.263210,0.742811,0.375071,-3.387857
2025-12-31T15:17:19.527775,8.327022,-1.057627,0.937986,0.304210,0.095294,-3.413514
2025-12-31T15:17:19.537775,9.020941,-1.014556,1.435693,-0.379958,-0.316428,-3.401296
2025-12-31T15:17:19.546775,10.480562,-1.670190,1.670190,-1.123991,-0.718377,-3.389079
2025-12-31T15:17:19.556775,12.323036,-2.947957,1.095912,-1.729969,-0.976162,-3.343875
2025-12-31T15:17:19.566775,14.074582,-4.249652,0.459421,-2.002415,-0.959058,-3.233919
2025-12-31T15:17:19.575775,15.079568,-5.292923,0.339780,-1.897347,-0.635299,-3.084868
2025-12-31T15:17:19.585775,14.907284,-5.661418,0.512064,-1.578475,-0.142942,-2.894278
2025-12-31T15:17:19.594775,13.548161,-5.417350,0.732203,-1.194852,0.323758,-2.708575
2025-12-31T15:17:19.604775,11.710473,-4.780859,0.894915,-0.842993,0.604756,-2.597398
2025-12-31T15:17:19.614775,10.006784,-4.072584,0.880558,-0.598647,0.636521,-2.564411
2025-12-31T15:17:19.623775,8.886943,-3.354737,0.473778,-0.454483,0.469144,-2.574185
2025-12-31T15:17:19.633775,8.365307,-2.943171,0.784845,-0.278554,0.190589,-2.652376
2025-12-31T15:17:19.642775,8.819944,-2.526820,1.043270,-0.112399,-0.123394,-2.746449
2025-12-31T15:17:19.652775,9.992427,-2.349751,0.641276,-0.003665,-0.393397,-2.740340
2025-12-31T15:17:19.662775,11.595618,-2.244467,-0.110069,0.123394,-0.450818,-2.670702
2025-12-31T15:17:19.671775,12.734601,-2.019542,-0.272781,0.234572,-0.251676,-2.537533
2025-12-31T15:17:19.681775,13.055240,-1.660618,-0.368494,0.244346,0.138055,-2.295631
2025-12-31T15:17:19.691775,12.131610,-1.091127,-0.650847,0.194255,0.591317,-2.017076
2025-12-31T15:17:19.700775,10.518848,-0.425922,-0.291924,0.079412,0.927293,-1.810604
2025-12-31T15:17:19.710775,8.776873,-0.019142,-0.066999,-0.151494,0.993266,-1.663996
2025-12-31T15:17:19.719775,7.499106,0.229710,-0.033499,-0.452040,0.797789,-1.568701
2025-12-31T15:17:19.729775,6.805187,0.306281,0.028713,-0.719599,0.463035,-1.539380
2025-12-31T15:17:19.739775,6.709474,0.291924,0.162711,-0.954171,0.076969,-1.538158
2025-12-31T15:17:19.748775,6.967899,-0.047856,0.205782,-1.128878,-0.280997,-1.525941
2025-12-31T15:17:19.758775,7.728816,-0.406779,0.200997,-1.220508,-0.532674,-1.500284
2025-12-31T15:17:19.767775,8.408378,-1.024128,0.803988,-1.182634,-0.641408,-1.473406
2025-12-31T15:17:19.777775,9.092725,-1.808973,1.009771,-1.044579,-0.597426,-1.411098
2025-12-31T15:17:19.787775,9.437292,-2.579462,0.330209,-0.772133,-0.375071,-1.287703
2025-12-31T15:17:19.796775,9.145367,-3.062812,-0.157926,-0.312762,-0.001221,-1.159421
2025-12-31T15:17:19.806775,8.197810,-2.962314,-0.502492,0.235793,0.354301,-1.053131
2025-12-31T15:17:19.816775,6.891329,-2.388036,-0.646062,0.731816,0.565661,-0.974940
2025-12-31T15:17:19.825775,5.819344,-1.507478,-0.861416,1.086118,0.602312,-0.927293
2025-12-31T15:17:19.835775,5.044070,-0.387637,-0.693918,1.275486,0.485026,-0.895528
2025-12-31T15:17:19.844775,4.704289,0.789631,-0.315852,1.242499,0.260228,-0.866206
2025-12-31T15:17:19.854775,4.670789,1.655833,-0.100498,0.968832,-0.010995,-0.810007
2025-12-31T15:17:19.864775,4.996213,2.153540,0.057427,0.561995,-0.270002,-0.731816
2025-12-31T15:17:19.873775,5.412564,2.378465,0.392422,0.107512,-0.475253,-0.659734
2025-12-31T15:17:19.883775,5.862415,2.100898,0.698704,-0.344527,-0.607199,-0.582765
2025-12-31T15:17:19.892775,6.216553,1.330409,1.076770,-0.713490,-0.647517,-0.511904
2025-12-31T15:17:19.902775,6.503691,0.200997,1.124626,-0.915075,-0.599869,-0.458148
2025-12-31T15:17:19.912775,6.446264,-0.914058,0.617348,-0.915075,-0.447153,-0.397062
2025-12-31T15:17:19.921775,6.092126,-1.847259,0.196211,-0.691499,-0.217467,-0.348193
2025-12-31T15:17:19.931775,5.350351,-2.411965,0.071784,-0.307876,0.013439,-0.304210
2025-12-31T15:17:19.941775,4.431507,-2.359323,0.047856,0.114842,0.160046,-0.265115
2025-12-31T15:17:19.950775,3.546163,-1.971685,0.205782,0.475253,0.206472,-0.229685
2025-12-31T15:17:19.960775,2.876172,-1.344766,0.392422,0.715933,0.130725,-0.199142
2025-12-31T15:17:19.969775,2.627319,-0.602991,0.799202,0.812450,-0.050090,-0.145385
2025-12-31T15:17:19.979775,2.995813,0.124426,0.981057,0.786794,-0.295658,-0.094073
2025-12-31T15:17:19.989775,3.818944,0.636490,1.239482,0.645073,-0.531452,-0.042760
2025-12-31T15:17:19.998775,4.900500,0.904486,1.287338,0.447153,-0.679282,0.021991
2025-12-31T15:17:20.008775,5.948556,0.885344,1.249053,0.230907,-0.709825,0.092851
2025-12-31T15:17:20.017775,6.714260,0.703489,1.081555,0.040317,-0.624304,0.169820
2025-12-31T15:17:20.027775,7.298108,0.411565,0.693918,-0.097738,-0.470366,0.241902
2025-12-31T15:17:20.037775,7.499106,0.272781,0.392422,-0.160046,-0.318871,0.298102
2025-12-31T15:17:20.046775,7.542176,0.210568,0.133998,-0.161268,-0.228463,0.339641
2025-12-31T15:17:20.056775,7.690531,0.315852,0.028713,-0.155159,-0.250454,0.366519
2025-12-31T15:17:20.066775,8.164310,0.602991,0.062213,-0.166155,-0.379958,0.371405
2025-12-31T15:17:20.075775,9.073583,0.904486,-0.047856,-0.211359,-0.551000,0.359188
2025-12-31T15:17:20.085775,10.193424,1.210768,-0.038285,-0.288328,-0.701273,0.353080
2025-12-31T15:17:20.094775,11.466405,1.469193,-0.167497,-0.405614,-0.792902,0.349414
2025-12-31T15:17:20.104775,12.672388,1.483550,-0.320638,-0.531452,-0.774576,0.370184
2025-12-31T15:17:20.114775,13.505090,1.335195,-0.291924,-0.613308,-0.634077,0.412944
2025-12-31T15:17:20.123775,13.730016,1.205982,-0.129212,-0.632856,-0.401949,0.469144
2025-12-31T15:17:20.133775,13.251451,0.914058,0.043070,-0.576656,-0.155159,0.532674
2025-12-31T15:17:20.142775,12.265608,0.693918,0.349352,-0.416610,0.068416,0.583987
2025-12-31T15:17:20.152775,10.959127,0.545563,0.545563,-0.179594,0.229685,0.632856
2025-12-31T15:17:20.162775,9.638289,0.646062,0.665204,0.090408,0.298102,0.674395
2025-12-31T15:17:20.171775,8.360522,0.894915,0.784845,0.354301,0.272445,0.685390
2025-12-31T15:17:20.181775,7.527819,1.335195,0.890130,0.609643,0.194255,0.679282
2025-12-31T15:17:20.191775,7.039684,1.875972,1.014556,0.819780,0.084299,0.627969
2025-12-31T15:17:20.200775,6.958328,2.589034,1.071984,0.924849,-0.048869,0.571769
2025-12-31T15:17:20.210775,7.302894,3.230310,1.110269,0.916297,-0.205250,0.507018
2025-12-31T15:17:20.219775,7.929814,3.718446,1.019342,0.781907,-0.338419,0.425162
2025-12-31T15:17:20.229775,8.939585,3.972085,0.837487,0.544891,-0.421496,0.361632
2025-12-31T15:17:20.239775,9.891928,4.177868,0.665204,0.248011,-0.415388,0.305432
2025-12-31T15:17:20.248775,10.628917,4.134797,0.258424,-0.086742,-0.326201,0.272445
2025-12-31T15:17:20.258775,11.231909,3.828516,0.057427,-0.437379,-0.212581,0.263893
2025-12-31T15:17:20.267775,11.533404,3.412165,-0.215354,-0.757472,-0.125838,0.282219
2025-12-31T15:17:20.277775,11.547761,2.804388,-0.579063,-0.981049,-0.086742,0.306654
2025-12-31T15:17:20.287775,11.595618,2.301895,-0.483350,-1.071457,-0.068416,0.306654
2025-12-31T15:17:20.296775,11.485548,1.823330,-0.306281,-1.056796,-0.053756,0.310319
2025-12-31T15:17:20.306775,11.332407,1.349551,-0.100498,-0.954171,-0.028099,0.311541
2025-12-31T15:17:20.316775,11.045269,0.923629,0.186640,-0.759916,0.029321,0.287106
2025-12-31T15:17:20.325775,10.576275,0.535992,0.277567,-0.500909,0.114842,0.249232
2025-12-31T15:17:20.335775,9.963713,0.320638,0.138783,-0.199142,0.208915,0.211359
2025-12-31T15:17:20.344775,9.322436,0.315852,0.019142,0.135612,0.267558,0.156381
2025-12-31T15:17:20.354775,8.757730,0.717846,0.076570,0.452040,0.262671,0.089186
2025-12-31T15:17:20.364775,8.389236,1.153340,0.009571,0.674395,0.200363,0.034208
2025-12-31T15:17:20.373775,8.350950,1.698904,0.052642,0.772133,0.100181,-0.003665
2025-12-31T15:17:20.383775,8.575876,2.301895,0.119641,0.750142,-0.001221,-0.029321
2025-12-31T15:17:20.392775,8.968299,2.737389,0.215354,0.615752,-0.086742,-0.034208
2025-12-31T15:17:20.402775,9.494720,2.971885,0.071784,0.390953,-0.128281,-0.021991
2025-12-31T15:17:20.412775,9.987641,2.957528,0.014356,0.147829,-0.123394,-0.009773
2025-12-31T15:17:20.421775,10.470991,2.775674,-0.071784,-0.094073,-0.076969,0.007330
2025-12-31T15:17:20.431775,10.585847,2.517249,-0.090927,-0.309097,0.008552,0.032986
2025-12-31T15:17:20.441775,10.523633,2.081755,0.004785,-0.475253,0.111177,0.050090
2025-12-31T15:17:20.450775,10.231709,1.689332,0.047856,-0.585208,0.200363,0.067195
2025-12-31T15:17:20.460775,9.872786,1.225125,-0.004785,-0.637743,0.248011,0.079412
2025-12-31T15:17:20.469775,9.590432,0.856630,-0.153140,-0.618195,0.223576,0.086742
2025-12-31T15:17:20.479775,9.585647,0.583848,-0.277567,-0.535117,0.120951,0.076969
2025-12-31T15:17:20.489775,9.853643,0.574277,-0.215354,-0.434935,-0.003665,0.058643
2025-12-31T15:17:20.498775,10.332207,0.622133,-0.095712,-0.340862,-0.062308,0.053756
2025-12-31T15:17:20.508775,10.609775,0.531206,0.019142,-0.245567,-0.017104,0.062308
2025-12-31T15:17:20.517775,10.509276,0.641276,0.172283,-0.133168,0.111177,0.063529
2025-12-31T15:17:20.527775,10.016355,0.617348,0.263210,-0.041538,0.238237,0.050090
2025-12-31T15:17:20.537775,9.509077,0.631705,0.349352,0.039095,0.310319,0.030543
2025-12-31T15:17:20.546775,8.920442,0.473778,0.703489,0.116064,0.310319,-0.012217
2025-12-31T15:17:20.556775,8.671589,0.344566,0.904486,0.172263,0.248011,-0.050090
2025-12-31T15:17:20.566775,8.647660,0.291924,0.914058,0.217467,0.167377,-0.081855
2025-12-31T15:17:20.575775,8.853443,0.277567,0.756131,0.251676,0.112399,-0.083077
2025-12-31T15:17:20.585775,9.188438,0.373280,0.507278,0.256563,0.096516,-0.052534
2025-12-31T15:17:20.594775,9.394221,0.531206,0.569491,0.206472,0.118507,-0.006108
2025-12-31T15:17:20.604775,9.432506,0.693918,0.655633,0.111177,0.169820,0.068416
2025-12-31T15:17:20.614775,9.231509,0.669990,0.870987,-0.015882,0.246789,0.146607
2025-12-31T15:17:20.623775,8.786444,0.387637,0.851844,-0.135612,0.323758,0.217467
2025-12-31T15:17:20.633775,8.231309,0.143569,0.847059,-0.186924,0.378736,0.262671
2025-12-31T15:17:20.642775,7.695317,-0.239282,0.851844,-0.171042,0.394618,0.273667
2025-12-31T15:17:20.652775,7.259823,-0.693918,1.067198,-0.073303,0.364075,0.265115
2025-12-31T15:17:20.662775,6.953542,-0.861416,1.196411,0.096516,0.277332,0.240680
2025-12-31T15:17:20.671775,7.101897,-0.827916,0.985842,0.288328,0.164933,0.213802
2025-12-31T15:17:20.681775,7.537391,-0.574277,0.655633,0.475253,0.087964,0.190589
2025-12-31T15:17:20.691775,8.044669,-0.095712,0.478564,0.593760,0.057421,0.184481
2025-12-31T15:17:20.700775,8.681160,0.344566,0.483350,0.581543,0.047647,0.206472
2025-12-31T15:17:20.710775,9.183653,0.693918,0.315852,0.456927,0.084299,0.268780
2025-12-31T15:17:20.719775,9.322436,0.818345,0.330209,0.261450,0.178372,0.359188
2025-12-31T15:17:20.729775,9.073583,0.813559,0.387637,0.052534,0.315206,0.465479
2025-12-31T15:17:20.739775,8.480163,0.449850,0.478564,-0.146607,0.431270,0.553443
2025-12-31T15:17:20.748775,7.733602,0.004785,0.435493,-0.243124,0.460592,0.626747
2025-12-31T15:17:20.758775,7.192824,-0.287138,0.425922,-0.189368,0.388510,0.643851
2025-12-31T15:17:20.767775,7.001398,-0.521635,0.488135,-0.067195,0.278554,0.618195
2025-12-31T15:17:20.777775,6.982256,-0.689132,0.425922,0.090408,0.205250,0.599869
2025-12-31T15:17:20.787775,7.049255,-0.583848,0.430708,0.273667,0.180816,0.579100
2025-12-31T15:17:20.796775,7.216752,-0.387637,0.334995,0.417831,0.188146,0.563217
2025-12-31T15:17:20.806775,7.317251,-0.081355,0.200997,0.499687,0.200363,0.549778
2025-12-31T15:17:20.816775,7.432106,0.239282,0.301495,0.516791,0.221133,0.537561
2025-12-31T15:17:20.825775,7.451249,0.334995,0.483350,0.443488,0.239459,0.549778
2025-12-31T15:17:20.835775,7.436892,0.253639,0.598205,0.304210,0.240680,0.575434
2025-12-31T15:17:20.844775,7.508677,-0.138783,0.789631,0.179594,0.224798,0.614530
2025-12-31T15:17:20.854775,7.676174,-0.468993,0.727418,0.094073,0.185702,0.648738
2025-12-31T15:17:20.864775,7.963313,-0.775274,0.703489,0.058643,0.144164,0.692721
2025-12-31T15:17:20.873775,8.269594,-0.899701,0.708275,0.048869,0.150272,0.769690
2025-12-31T15:17:20.883775,8.336593,-1.062413,0.502492,0.048869,0.230907,0.867428
2025-12-31T15:17:20.892775,8.006384,-1.268195,0.440279,0.054977,0.356745,0.974940
2025-12-31T15:17:20.902775,7.369893,-1.593619,0.445065,0.080634,0.452040,1.081231
2025-12-31T15:17:20.912775,6.704688,-2.057827,0.526420,0.162490,0.459370,1.166752
2025-12-31T15:17:20.921775,6.345765,-2.684746,0.751346,0.346971,0.371405,1.207069
2025-12-31T15:17:20.931775,6.340979,-3.038884,0.746560,0.627969,0.218689,1.238834
2025-12-31T15:17:20.941775,6.786044,-3.177668,0.454636,0.940732,0.070860,1.273042
2025-12-31T15:17:20.950775,7.441678,-3.053241,0.334995,1.257160,-0.003665,1.319468
2025-12-31T15:17:20.960775,8.059026,-2.493321,0.224925,1.530827,0.023212,1.403768
2025-12-31T15:17:20.969775,8.422735,-1.536192,0.153140,1.659109,0.123394,1.529606
2025-12-31T15:17:20.979775,8.427521,-0.526420,0.244067,1.576031,0.235793,1.666440
2025-12-31T15:17:20.989775,8.159525,0.296710,0.382851,1.266934,0.312762,1.811825
2025-12-31T15:17:20.998775,7.795816,0.722632,0.607776,0.772133,0.299323,1.958433
2025-12-31T15:17:21.008775,7.566105,0.507278,0.899701,0.210137,0.168598,2.062280
2025-12-31T15:17:21.017775,7.805387,-0.186640,0.904486,-0.300545,-0.070860,2.106262
2025-12-31T15:17:21.027775,8.480163,-1.134197,0.598205,-0.664621,-0.329867,2.108706
2025-12-31T15:17:21.037775,9.370293,-2.273181,0.234496,-0.801455,-0.480139,2.086715
2025-12-31T15:17:21.046775,10.241280,-3.220739,-0.047856,-0.724486,-0.455705,2.061058
2025-12-31T15:17:21.056775,10.638489,-3.976871,-0.076570,-0.483805,-0.279776,2.056171
2025-12-31T15:17:21.066775,10.351350,-4.589433,-0.196211,-0.129503,-0.019547,2.064724
2025-12-31T15:17:21.075775,9.638289,-4.718646,-0.253639,0.291993,0.201585,2.073276
2025-12-31T15:17:21.085775,8.776873,-4.642075,-0.047856,0.731816,0.306654,2.057393
2025-12-31T15:17:21.094775,8.145168,-4.106083,0.052642,1.103222,0.265115,2.029293
2025-12-31T15:17:21.104775,7.982456,-3.278166,0.110069,1.367116,0.102625,2.014633
2025-12-31T15:17:21.114775,8.331808,-2.244467,0.411565,1.441641,-0.112399,2.006081
2025-12-31T15:17:21.123775,9.073583,-1.402194,0.602991,1.263269,-0.306654,2.026850
2025-12-31T15:17:21.133775,9.872786,-0.870987,0.789631,0.879645,-0.401949,2.097710
2025-12-31T15:17:21.142775,10.466206,-0.890130,0.866201,0.365297,-0.364075,2.178344
2025-12-31T15:17:21.152775,10.633703,-1.478764,0.856630,-0.168598,-0.245567,2.246761
2025-12-31T15:17:21.162775,10.432706,-2.646461,0.679561,-0.576656,-0.122173,2.271196
2025-12-31T15:17:21.171775,9.939785,-4.130011,0.334995,-0.768468,-0.058643,2.257757
2025-12-31T15:17:21.181775,9.528219,-5.584847,0.315852,-0.691499,-0.089186,2.172236
2025-12-31T15:17:21.191775,9.533005,-6.786044,0.459421,-0.419053,-0.227241,2.039067
2025-12-31T15:17:21.200775,9.925428,-7.451249,0.272781,-0.001221,-0.415388,1.908342
2025-12-31T15:17:21.210775,10.681560,-7.389036,0.028713,0.486248,-0.546113,1.791056
2025-12-31T15:17:21.219775,11.380264,-6.776473,-0.344566,0.908967,-0.544891,1.737300
2025-12-31T15:17:21.229775,11.724830,-5.694917,-0.215354,1.181413,-0.404392,1.759291
2025-12-31T15:17:21.239775,11.408978,-4.469792,0.373280,1.273042,-0.157603,1.809382
2025-12-31T15:17:21.248775,10.628917,-3.531806,1.076770,1.089783,0.061086,1.901012
2025-12-31T15:17:21.258775,9.509077,-3.589233,1.536192,0.638964,0.138055,1.976759
2025-12-31T15:17:21.267775,8.767302,-4.670789,1.761117,0.139277,0.018325,1.992641
2025-12-31T15:17:21.277775,8.762516,-6.417550,2.005185,-0.163711,-0.251676,1.924225
2025-12-31T15:17:21.287775,9.475577,-8.221738,1.990828,-0.179594,-0.540004,1.838703
2025-12-31T15:17:21.296775,10.715059,-9.614361,1.545763,0.106290,-0.703716,1.754404
2025-12-31T15:17:21.306775,11.839686,-10.140782,0.890130,0.638964,-0.653625,1.700648
2025-12-31T15:17:21.316775,12.457034,-9.791430,0.454636,1.205847,-0.410501,1.740965
2025-12-31T15:17:21.325775,12.351750,-8.839086,0.315852,1.615127,-0.092851,1.842369
2025-12-31T15:17:21.335775,11.413763,-7.369893,0.435493,1.791056,0.201585,1.973094
2025-12-31T15:17:21.344775,10.207781,-5.924628,0.803988,1.639561,0.372627,2.073276
2025-12-31T15:17:21.354775,9.097511,-4.981856,1.234696,1.174082,0.376292,2.153910
2025-12-31T15:17:21.364775,8.226524,-4.823930,1.933400,0.553443,0.240680,2.175901
2025-12-31T15:17:21.373775,7.934599,-5.498706,2.143969,-0.128281,0.010995,2.184453
2025-12-31T15:17:21.383775,8.068597,-6.905686,1.775474,-0.701273,-0.222354,2.204001
2025-12-31T15:17:21.392775,8.417949,-8.475377,1.593619,-0.949284,-0.331088,2.195449
2025-12-31T15:17:21.402775,8.743373,-9.829715,1.493121,-0.834441,-0.273667,2.169792
2025-12-31T15:17:21.412775,8.671589,-10.581061,1.450050,-0.456927,-0.111177,2.162462
2025-12-31T15:17:21.421775,8.207381,-10.767701,1.306481,0.036651,0.074525,2.150245
2025-12-31T15:17:21.431775,7.542176,-10.432706,1.277767,0.478918,0.172263,2.111149
2025-12-31T15:17:21.441775,7.082754,-9.815358,1.196411,0.808785,0.155159,2.017076
2025-12-31T15:17:21.450775,6.714260,-9.121439,1.167697,0.951727,0.068416,1.921781
2025-12-31T15:17:21.460775,6.652046,-8.657232,1.320838,0.845437,-0.041538,1.887573
2025-12-31T15:17:21.469775,6.790830,-8.499305,1.402194,0.590095,-0.142942,1.881464
2025-12-31T15:17:21.479775,6.896114,-8.336593,1.421336,0.338419,-0.190589,1.865582
2025-12-31T15:17:21.489775,6.987041,-8.317451,1.612762,0.085521,-0.189368,1.817934
2025-12-31T15:17:21.498775,6.910471,-8.863014,1.828116,-0.161268,-0.153938,1.770287
2025-12-31T15:17:21.508775,6.800401,-9.571290,1.718046,-0.328645,-0.107512,1.738522
2025-12-31T15:17:21.517775,6.561119,-10.380064,1.775474,-0.366519,-0.062308,1.666440
2025-12-31T15:17:21.527775,6.417550,-11.193624,1.761117,-0.266337,-0.025656,1.546710
2025-12-31T15:17:21.537775,6.226124,-11.720045,1.947757,0.010995,0.024434,1.376889
2025-12-31T15:17:21.546775,6.025127,-11.868400,2.210968,0.331088,0.051312,1.238834
2025-12-31T15:17:21.556775,5.886343,-11.380264,2.143969,0.590095,0.039095,1.165530
2025-12-31T15:17:21.566775,5.752345,-10.413563,2.244467,0.756251,0.034208,1.077566
2025-12-31T15:17:21.575775,5.670989,-9.379864,2.584248,0.708603,0.023212,0.999375
2025-12-31T15:17:21.585775,5.603990,-8.772087,2.981456,0.450818,0.000000,0.929736
2025-12-31T15:17:21.594775,5.580062,-8.417949,2.995813,0.095294,-0.006108,0.857654
2025-12-31T15:17:21.604775,5.493920,-8.671589,2.938386,-0.333532,-0.003665,0.797789
2025-12-31T15:17:21.614775,5.484349,-9.585647,2.756531,-0.735481,-0.014660,0.723264
2025-12-31T15:17:21.623775,5.450849,-10.758130,2.617747,-0.965166,-0.032986,0.596204
2025-12-31T15:17:21.633775,5.484349,-11.944970,2.383251,-0.990823,-0.046425,0.450818
2025-12-31T15:17:21.642775,5.584847,-12.993026,2.163111,-0.838106,-0.032986,0.310319
2025-12-31T15:17:21.652775,5.651846,-13.423734,1.885544,-0.499687,0.008552,0.173485
2025-12-31T15:17:21.662775,5.580062,-13.026526,1.847259,-0.023212,0.069638,0.030543
2025-12-31T15:17:21.671775,5.388636,-11.992826,1.957328,0.438601,0.130725,-0.106290
2025-12-31T15:17:21.681775,5.197210,-10.561918,2.153540,0.747698,0.153938,-0.222354
2025-12-31T15:17:21.691775,5.053641,-9.145367,2.522035,0.836885,0.144164,-0.331088
2025-12-31T15:17:21.700775,5.024927,-8.126025,2.828316,0.734259,0.111177,-0.427605
2025-12-31T15:17:21.710775,5.154139,-7.475177,2.852244,0.485026,0.069638,-0.519235
2025-12-31T15:17:21.719775,5.407779,-7.412964,2.866601,0.134390,0.025656,-0.599869
2025-12-31T15:17:21.729775,5.737988,-7.709674,2.761317,-0.196698,0.007330,-0.701273
2025-12-31T15:17:21.739775,5.886343,-8.025527,2.560320,-0.379958,0.048869,-0.810007
2025-12-31T15:17:21.748775,5.929414,-8.408378,2.306680,-0.454483,0.145385,-0.924849
2025-12-31T15:17:21.758775,5.718846,-8.953942,2.029113,-0.519235,0.213802,-1.016479
2025-12-31T15:17:21.767775,5.627918,-9.518648,1.612762,-0.518013,0.205250,-1.120326
2025-12-31T15:17:21.777775,5.680560,-9.978070,1.679761,-0.427605,0.140498,-1.280373
2025-12-31T15:17:21.787775,6.135197,-10.279565,1.966900,-0.315206,0.017104,-1.436754
2025-12-31T15:17:21.796775,6.886543,-10.250852,2.062613,-0.140498,-0.092851,-1.600466
2025-12-31T15:17:21.806775,7.685746,-9.748359,2.100898,0.090408,-0.127059,-1.756848
2025-12-31T15:17:21.816775,8.303094,-8.824729,2.196611,0.257785,-0.084299,-1.898568
2025-12-31T15:17:21.825775,8.614161,-7.968099,1.919043,0.339641,0.034208,-1.992641
2025-12-31T15:17:21.835775,8.571090,-6.905686,1.617548,0.337197,0.200363,-2.073276
2025-12-31T15:17:21.844775,8.159525,-6.226124,1.311266,0.217467,0.346971,-2.160019
2025-12-31T15:17:21.854775,7.714460,-6.082555,0.947557,-0.075747,0.399505,-2.235766
2025-12-31T15:17:21.864775,7.389036,-6.848258,0.425922,-0.566882,0.262671,-2.268753
2025-12-31T15:17:21.873775,7.657032,-8.106882,-0.143569,-0.994488,-0.028099,-2.332282
2025-12-31T15:17:21.883775,8.437092,-9.183653,-0.301495,-1.176526,-0.345749,-2.466673
2025-12-31T15:17:21.892775,9.767501,-9.954142,0.756131,-1.064127,-0.591317,-2.668258
2025-12-31T15:17:21.902775,11.327622,-9.934999,1.698904,-0.759916,-0.649960,-2.811201
2025-12-31T15:17:21.912775,12.394821,-9.202795,1.531406,-0.511904,-0.531452,-2.740340
2025-12-31T15:17:21.921775,12.772887,-8.408378,0.870987,-0.434935,-0.261450,-2.585181
2025-12-31T15:17:21.931775,12.222537,-7.795816,0.535992,-0.482583,0.081855,-2.470338
2025-12-31T15:17:21.941775,11.021340,-7.144968,0.311066,-0.572991,0.387288,-2.409251
2025-12-31T15:17:21.950775,9.432506,-6.508477,-0.210568,-0.664621,0.555887,-2.414138
2025-12-31T15:17:21.960775,7.992027,-5.938985,-0.248853,-0.737925,0.515570,-2.525316
2025-12-31T15:17:21.969775,7.082754,-5.321637,-0.354137,-0.811228,0.254119,-2.713462
2025-12-31T15:17:21.979775,7.058826,-4.742574,-0.244067,-0.862541,-0.155159,-2.957808
2025-12-31T15:17:21.989775,7.886743,-4.331008,0.382851,-0.882089,-0.596204,-3.279123
2025-12-31T15:17:21.998775,9.743573,-4.465006,0.459421,-0.946840,-0.967610,-3.551569
2025-12-31T15:17:22.008775,12.050254,-5.254638,0.425922,-0.939510,-1.134987,-3.723833
2025-12-31T15:17:22.017775,14.299507,-5.967699,0.880558,-0.814894,-1.012814,-3.792250
2025-12-31T15:17:22.027775,15.802200,-6.503691,1.038485,-0.690277,-0.641408,-3.689625
2025-12-31T15:17:22.037775,15.955341,-6.843472,0.550349,-0.574213,-0.102625,-3.452609
2025-12-31T15:17:22.046775,14.658431,-6.943971,0.023928,-0.394618,0.455705,-3.189937
2025-12-31T15:17:22.056775,12.418749,-6.632904,-0.143569,-0.190589,0.822224,-2.973691
2025-12-31T15:17:22.066775,10.121639,-6.001199,-0.421136,-0.015882,0.851545,-2.847853
2025-12-31T15:17:22.075775,8.451449,-5.134997,-0.148355,0.103847,0.564439,-2.842966
2025-12-31T15:17:22.085775,7.858029,-4.096512,0.622133,0.151494,0.065973,-2.963917
2025-12-31T15:17:22.094775,8.360522,-3.182454,1.406979,0.089186,-0.514348,-3.143511
2025-12-31T15:17:22.104775,10.078568,-2.397608,1.249053,-0.102625,-1.003040,-3.285232
2025-12-31T15:17:22.114775,12.409178,-2.048256,0.588634,-0.310319,-1.220508,-3.353649
2025-12-31T15:17:22.123775,14.371292,-2.005185,0.224925,-0.475253,-1.071457,-3.316997
2025-12-31T15:17:22.133775,15.476776,-2.273181,0.186640,-0.619417,-0.624304,-3.152063
2025-12-31T15:17:22.142775,15.347564,-2.608176,0.148355,-0.736703,-0.036651,-2.911383
2025-12-31T15:17:22.152775,14.017154,-3.053241,0.133998,-0.807563,0.497244,-2.656041
2025-12-31T15:17:22.162775,12.150753,-3.297309,0.239282,-0.813672,0.800233,-2.448347
2025-12-31T15:17:22.171775,10.370493,-3.282952,0.325423,-0.764803,0.811228,-2.313957
2025-12-31T15:17:22.181775,9.226723,-2.914457,0.425922,-0.725707,0.597426,-2.245540
2025-12-31T15:17:22.191775,8.733802,-2.536391,0.684347,-0.734259,0.256563,-2.208888
2025-12-31T15:17:22.200775,8.934799,-2.096112,0.598205,-0.770911,-0.123394,-2.179566
2025-12-31T15:17:22.210775,9.729216,-1.598405,0.478564,-0.822224,-0.452040,-2.136806
2025-12-31T15:17:22.219775,10.633703,-1.134197,0.200997,-0.896749,-0.631634,-2.070832
2025-12-31T15:17:22.229775,11.298908,-0.866201,0.081355,-0.959058,-0.625525,-1.966985
2025-12-31T15:17:22.239775,11.514262,-1.019342,0.157926,-0.993266,-0.469144,-1.869247
2025-12-31T15:17:22.248775,11.059626,-1.579262,0.119641,-0.993266,-0.259006,-1.760513
2025-12-31T15:17:22.258775,10.341779,-2.632104,0.196211,-0.904080,-0.103847,-1.644448
2025-12-31T15:17:22.267775,9.566504,-3.766302,0.296710,-0.610865,-0.045204,-1.555262
2025-12-31T15:17:22.277775,8.973084,-4.431507,0.401994,-0.125838,-0.074525,-1.492954
2025-12-31T15:17:22.287775,8.757730,-4.479363,0.148355,0.438601,-0.145385,-1.437976
2025-12-31T15:17:22.296775,8.810372,-3.938585,-0.033499,1.023809,-0.197920,-1.374446
2025-12-31T15:17:22.306775,8.944370,-2.708675,-0.186640,1.519832,-0.207694,-1.295034
2025-12-31T15:17:22.316775,9.054440,-1.249053,-0.272781,1.784947,-0.175929,-1.187521
2025-12-31T15:17:22.325775,9.020941,0.133998,-0.248853,1.810604,-0.092851,-1.067792
2025-12-31T15:17:22.335775,8.733802,1.277767,0.052642,1.628566,0.023212,-0.961501
2025-12-31T15:17:22.344775,8.092526,1.923829,0.239282,1.249830,0.123394,-0.847880
2025-12-31T15:17:22.354775,7.412964,2.115255,0.430708,0.772133,0.169820,-0.740368
2025-12-31T15:17:22.364775,6.695117,1.904686,0.732203,0.299323,0.156381,-0.645073
2025-12-31T15:17:22.373775,6.049055,1.440479,0.837487,-0.135612,0.078190,-0.547335
2025-12-31T15:17:22.383775,5.541777,0.775274,0.722632,-0.488692,-0.051312,-0.458148
2025-12-31T15:17:22.392775,5.316851,0.110069,0.583848,-0.703716,-0.208915,-0.368962
2025-12-31T15:17:22.402775,5.469992,-0.411565,0.392422,-0.796568,-0.372627,-0.290771
2025-12-31T15:17:22.412775,5.814558,-0.813559,0.210568,-0.772133,-0.491135,-0.217467
2025-12-31T15:17:22.421775,6.254838,-1.033699,0.086141,-0.640186,-0.518013,-0.167377
2025-12-31T15:17:22.431775,6.532405,-1.172483,0.138783,-0.470366,-0.442266,-0.109955
2025-12-31T15:17:22.441775,6.508477,-1.244267,0.119641,-0.276111,-0.305432,-0.042760
2025-12-31T15:17:22.450775,6.206981,-1.186840,0.167497,-0.059864,-0.131946,0.003665
2025-12-31T15:17:22.460775,5.623133,-0.971485,0.258424,0.158824,0.034208,0.042760
2025-12-31T15:17:22.469775,4.876572,-0.665204,0.411565,0.339641,0.149051,0.085521
2025-12-31T15:17:22.479775,4.173082,-0.133998,0.344566,0.463035,0.189368,0.119729
2025-12-31T15:17:22.489775,3.646661,0.445065,0.468993,0.505796,0.157603,0.150272
2025-12-31T15:17:22.498775,3.349951,1.062413,0.751346,0.466700,0.054977,0.174707
2025-12-31T15:17:22.508775,3.349951,1.689332,0.890130,0.313984,-0.067195,0.189368
2025-12-31T15:17:22.517775,3.555734,1.904686,0.861416,0.032986,-0.189368,0.211359
2025-12-31T15:17:22.527775,3.952942,2.000399,0.818345,-0.288328,-0.270002,0.238237
2025-12-31T15:17:22.537775,4.287938,1.775474,0.746560,-0.582765,-0.299323,0.244346
2025-12-31T15:17:22.546775,4.627718,1.354337,0.626919,-0.827111,-0.289550,0.237015
2025-12-31T15:17:22.556775,4.862215,0.799202,0.492921,-0.970053,-0.288328,0.221133
2025-12-31T15:17:22.566775,5.211567,0.378065,0.358923,-0.973718,-0.321315,0.190589
2025-12-31T15:17:22.575775,5.647061,0.095712,0.296710,-0.889419,-0.384845,0.130725
2025-12-31T15:17:22.585775,6.379265,-0.009571,0.062213,-0.767246,-0.461814,0.072082
2025-12-31T15:17:22.594775,7.240681,-0.043070,-0.229710,-0.605978,-0.524122,0.028099
2025-12-31T15:17:22.604775,8.231309,0.157926,-0.315852,-0.460592,-0.566882,-0.014660
2025-12-31T15:17:22.614775,9.317651,0.315852,-0.478564,-0.390953,-0.588873,-0.032986
2025-12-31T15:17:22.623775,10.322636,0.425922,-0.799202,-0.370184,-0.590095,-0.023212
2025-12-31T15:17:22.633775,11.217552,0.660419,-0.866201,-0.346971,-0.560774,-0.013439
2025-12-31T15:17:22.642775,11.911470,0.918843,-0.933200,-0.361632,-0.519235,-0.015882
2025-12-31T15:17:22.652775,12.504890,0.894915,-0.851844,-0.432492,-0.463035,0.021991
2025-12-31T15:17:22.662775,12.744173,0.780060,-0.741775,-0.470366,-0.364075,0.083077
2025-12-31T15:17:22.671775,12.662817,0.674775,-0.698704,-0.460592,-0.244346,0.141720
2025-12-31T15:17:22.681775,12.145967,0.512064,-0.602991,-0.406836,-0.106290,0.223576
2025-12-31T15:17:22.691775,11.404192,0.334995,-0.215354,-0.296880,0.034208,0.295658
2025-12-31T15:17:22.700775,10.418349,0.248853,-0.023928,-0.147829,0.149051,0.368962
2025-12-31T15:17:22.710775,9.308079,0.291924,0.119641,0.004886,0.180816,0.437379
2025-12-31T15:17:22.719775,8.441878,0.421136,0.368494,0.155159,0.127059,0.464257
2025-12-31T15:17:22.729775,7.881957,0.641276,0.598205,0.301767,0.010995,0.449596
2025-12-31T15:17:22.739775,7.747959,0.928415,0.746560,0.433714,-0.139277,0.397062
2025-12-31T15:17:22.748775,8.011170,1.325623,0.885344,0.547335,-0.288328,0.323758
2025-12-31T15:17:22.758775,8.662017,1.823330,0.957129,0.574213,-0.410501,0.263893
2025-12-31T15:17:22.767775,9.556933,2.043470,0.741775,0.511904,-0.465479,0.219911
2025-12-31T15:17:22.777775,10.327422,2.330609,0.488135,0.409279,-0.405614,0.189368
2025-12-31T15:17:22.787775,10.825129,2.541177,0.416351,0.252898,-0.250454,0.183259
2025-12-31T15:17:22.796775,10.868200,2.507678,0.282353,0.041538,-0.070860,0.197920
2025-12-31T15:17:22.806775,10.691131,2.340180,0.210568,-0.179594,0.061086,0.210137
2025-12-31T15:17:22.816775,10.303494,2.057827,0.234496,-0.362853,0.114842,0.216246
2025-12-31T15:17:22.825775,10.107282,1.660618,0.239282,-0.502131,0.087964,0.211359
2025-12-31T15:17:22.835775,10.212566,1.182054,-0.028713,-0.560774,0.015882,0.210137
2025-12-31T15:17:22.844775,10.418349,0.847059,-0.215354,-0.503352,-0.056199,0.200363
2025-12-31T15:17:22.854775,10.734202,0.736989,-0.205782,-0.356745,-0.080634,0.184481
2025-12-31T15:17:22.864775,11.030912,0.789631,-0.177068,-0.188146,-0.039095,0.180816
2025-12-31T15:17:22.873775,10.978270,1.014556,-0.215354,-0.021991,0.076969,0.196698
2025-12-31T15:17:22.883775,10.624132,1.301695,-0.133998,0.113620,0.229685,0.221133
2025-12-31T15:17:22.892775,10.064211,1.636690,-0.019142,0.180816,0.343306,0.240680
2025-12-31T15:17:22.902775,9.499505,1.775474,0.014356,0.182037,0.371405,0.249232
2025-12-31T15:17:22.912775,9.001798,1.981257,-0.114855,0.151494,0.309097,0.246789
2025-12-31T15:17:22.921775,8.906085,2.277967,-0.138783,0.074525,0.191811,0.224798
2025-12-31T15:17:22.931775,9.135796,2.311466,-0.033499,-0.037873,0.073303,0.205250
2025-12-31T15:17:22.941775,9.427721,2.239681,-0.114855,-0.146607,0.002443,0.186924
2025-12-31T15:17:22.950775,9.834500,2.105683,-0.277567,-0.240680,-0.004886,0.162490
2025-12-31T15:17:22.960775,10.025926,1.966900,-0.440279,-0.298102,0.036651,0.135612
2025-12-31T15:17:22.969775,10.059426,1.761117,-0.368494,-0.309097,0.098960,0.106290
2025-12-31T15:17:22.979775,10.078568,1.593619,-0.516849,-0.267558,0.156381,0.075747
2025-12-31T15:17:22.989775,9.992427,1.593619,-0.535992,-0.207694,0.177150,0.030543
2025-12-31T15:17:22.998775,9.958927,1.679761,-0.579063,-0.142942,0.156381,-0.013439
2025-12-31T15:17:23.008775,10.107282,1.785045,-0.569491,-0.096516,0.119729,-0.045204
2025-12-31T15:17:23.017775,10.135996,1.890329,-0.421136,-0.107512,0.120951,-0.072082
2025-12-31T15:17:23.027775,10.011569,1.823330,-0.105284,-0.155159,0.164933,-0.073303
2025-12-31T15:17:23.037775,9.767501,1.660618,-0.047856,-0.211359,0.221133,-0.063529
2025-12-31T15:17:23.046775,9.379864,1.373480,-0.110069,-0.246789,0.259006,-0.068416
2025-12-31T15:17:23.056775,9.020941,1.028913,-0.004785,-0.234572,0.246789,-0.089186
2025-12-31T15:17:23.066775,8.834301,0.660419,0.143569,-0.168598,0.190589,-0.112399
2025-12-31T15:17:23.075775,8.690731,0.492921,0.229710,-0.079412,0.128281,-0.142942
2025-12-31T15:17:23.085775,8.867800,0.354137,0.143569,0.012217,0.068416,-0.167377
2025-12-31T15:17:23.094775,9.097511,0.483350,0.014356,0.114842,0.012217,-0.171042
2025-12-31T15:17:23.104775,9.442077,0.698704,0.095712,0.174707,-0.028099,-0.171042
2025-12-31T15:17:23.114775,9.695717,0.847059,0.215354,0.160046,-0.019547,-0.157603
2025-12-31T15:17:23.123775,9.829715,0.851844,0.244067,0.117286,0.039095,-0.118507
2025-12-31T15:17:23.133775,9.705288,0.564706,0.172283,0.063529,0.094073,-0.085521
2025-12-31T15:17:23.142775,9.623932,0.205782,0.224925,0.036651,0.108733,-0.058643
2025-12-31T15:17:23.152775,9.556933,-0.047856,0.301495,0.072082,0.101403,-0.048869
2025-12-31T15:17:23.162775,9.399007,-0.153140,0.473778,0.144164,0.129503,-0.037873
2025-12-31T15:17:23.171775,9.178867,-0.267996,0.626919,0.208915,0.188146,-0.020769
2025-12-31T15:17:23.181775,8.891728,-0.291924,0.612562,0.248011,0.233350,-0.004886
2025-12-31T15:17:23.191775,8.633303,-0.334995,0.521635,0.265115,0.249232,0.019547
2025-12-31T15:17:23.200775,8.374879,-0.301495,0.497707,0.262671,0.238237,0.034208
2025-12-31T15:17:23.210775,8.212167,-0.445065,0.502492,0.241902,0.206472,0.057421
2025-12-31T15:17:23.219775,8.169096,-0.440279,0.483350,0.216246,0.173485,0.078190
2025-12-31T15:17:23.229775,8.193024,-0.660419,0.602991,0.205250,0.139277,0.108733
2025-12-31T15:17:23.239775,8.274380,-0.851844,0.698704,0.218689,0.090408,0.136833
2025-12-31T15:17:23.248775,8.508877,-0.947557,0.693918,0.255341,0.031764,0.162490
2025-12-31T15:17:23.258775,8.815158,-1.038485,0.827916,0.326201,0.010995,0.202807
2025-12-31T15:17:23.267775,9.073583,-0.942772,0.827916,0.419053,0.050090,0.257785
2025-12-31T15:17:23.277775,9.135796,-0.780060,0.636490,0.480139,0.163711,0.337197
2025-12-31T15:17:23.287775,8.733802,-0.574277,0.535992,0.492357,0.316428,0.441044
2025-12-31T15:17:23.296775,8.260023,-0.334995,0.540777,0.499687,0.454483,0.546113
2025-12-31T15:17:23.306775,7.441678,-0.110069,0.622133,0.471587,0.532674,0.626747
2025-12-31T15:17:23.316775,6.728617,0.105284,0.689132,0.409279,0.532674,0.681725
2025-12-31T15:17:23.325775,6.173482,0.253639,0.827916,0.342084,0.496022,0.711046
2025-12-31T15:17:23.335775,5.718846,0.277567,1.033699,0.271224,0.426383,0.725707
2025-12-31T15:17:23.344775,5.436492,0.162711,1.148554,0.222354,0.337197,0.730594
2025-12-31T15:17:23.354775,5.278566,-0.100498,1.205982,0.229685,0.227241,0.719599
2025-12-31T15:17:23.364775,5.541777,-0.306281,1.196411,0.268780,0.098960,0.720820
2025-12-31T15:17:23.373775,6.034698,-0.440279,0.918843,0.334754,-0.006108,0.730594
2025-12-31T15:17:23.383775,6.518048,-0.516849,0.693918,0.430049,-0.024434,0.753807
2025-12-31T15:17:23.392775,6.943971,-0.382851,0.492921,0.516791,0.032986,0.794124
2025-12-31T15:17:23.402775,7.264609,-0.315852,0.387637,0.551000,0.127059,0.862541
2025-12-31T15:17:23.412775,7.240681,-0.334995,0.406779,0.542448,0.207694,0.922406
2025-12-31T15:17:23.421775,7.121040,-0.373280,0.492921,0.536339,0.265115,0.976162
2025-12-31T15:17:23.431775,6.943971,-0.387637,0.492921,0.514348,0.296880,1.038470
2025-12-31T15:17:23.441775,6.982256,-0.464207,0.646062,0.504574,0.267558,1.093448
2025-12-31T15:17:23.450775,7.082754,-0.583848,0.866201,0.500909,0.178372,1.119104
2025-12-31T15:17:23.460775,7.676174,-0.646062,0.727418,0.493579,0.089186,1.171639
2025-12-31T15:17:23.469775,8.149953,-0.665204,0.416351,0.496022,0.085521,1.247386
2025-12-31T15:17:23.479775,8.523234,-0.684347,0.143569,0.487470,0.164933,1.337794
2025-12-31T15:17:23.489775,8.623732,-0.588634,-0.191425,0.454483,0.276111,1.455080
2025-12-31T15:17:23.498775,8.561519,-0.483350,-0.157926,0.408057,0.360410,1.562592
2025-12-31T15:17:23.508775,8.370093,-0.421136,0.023928,0.333532,0.381179,1.640783
2025-12-31T15:17:23.517775,8.231309,-0.468993,0.057427,0.193033,0.329867,1.700648
2025-12-31T15:17:23.527775,8.173882,-0.717846,0.119641,0.042760,0.217467,1.732413
2025-12-31T15:17:23.537775,8.303094,-1.081555,0.320638,-0.036651,0.084299,1.737300
2025-12-31T15:17:23.546775,8.652446,-1.392622,0.473778,-0.069638,-0.009773,1.739743
2025-12-31T15:17:23.556775,9.064012,-1.741974,0.330209,-0.072082,-0.029321,1.765400
2025-12-31T15:17:23.566775,9.241080,-1.923829,0.028713,-0.031764,0.045204,1.813047
2025-12-31T15:17:23.575775,9.250652,-1.971685,-0.143569,0.015882,0.167377,1.864360
2025-12-31T15:17:23.585775,9.068797,-2.163111,0.004785,0.024434,0.263893,1.898568
2025-12-31T15:17:23.594775,8.805587,-2.488535,-0.148355,-0.010995,0.279776,1.923003
2025-12-31T15:17:23.604775,8.638089,-2.828316,-0.478564,-0.040317,0.210137,1.933998
2025-12-31T15:17:23.614775,8.666803,-3.172882,-0.373280,-0.054977,0.064751,1.905899
2025-12-31T15:17:23.623775,8.968299,-3.560520,-0.205782,-0.075747,-0.134390,1.869247
2025-12-31T15:17:23.633775,9.576076,-3.833301,0.004785,-0.054977,-0.324980,1.833817
2025-12-31T15:17:23.642775,10.265208,-3.986442,0.354137,0.012217,-0.433714,1.810604
2025-12-31T15:17:23.652775,10.825129,-4.072584,0.579063,0.078190,-0.431270,1.826486
2025-12-31T15:17:23.662775,11.073982,-4.043870,0.569491,0.153938,-0.322536,1.871690
2025-12-31T15:17:23.671775,11.021340,-4.015156,0.602991,0.246789,-0.147829,1.919338
2025-12-31T15:17:23.681775,10.557133,-4.005585,0.244067,0.301767,0.021991,1.976759
2025-12-31T15:17:23.691775,10.059426,-4.120440,-0.052642,0.293215,0.131946,2.037846
2025-12-31T15:17:23.700775,9.499505,-4.555934,-0.038285,0.311541,0.178372,2.052506
2025-12-31T15:17:23.710775,9.040083,-4.852644,0.033499,0.372627,0.142942,2.024406
2025-12-31T15:17:23.719775,8.858229,-5.077569,0.047856,0.430049,0.028099,1.974316
2025-12-31T15:17:23.729775,9.025726,-5.087140,0.177068,0.500909,-0.135612,1.901012
2025-12-31T15:17:23.739775,9.370293,-5.225924,0.358923,0.535117,-0.324980,1.835038
2025-12-31T15:17:23.748775,10.169496,-5.144568,0.339780,0.543669,-0.492357,1.793499
2025-12-31T15:17:23.758775,11.030912,-4.986642,0.555134,0.569326,-0.566882,1.758069
2025-12-31T15:17:23.767775,11.748758,-4.833501,0.665204,0.583987,-0.507018,1.744630
2025-12-31T15:17:23.777775,12.035897,-4.675575,0.679561,0.613308,-0.293215,1.773952
2025-12-31T15:17:23.787775,11.653046,-4.613361,0.660419,0.635299,-0.030543,1.822821
2025-12-31T15:17:23.796775,10.829915,-4.938785,0.933200,0.625525,0.164933,1.868025
2025-12-31T15:17:23.806775,10.030712,-5.560919,0.885344,0.619417,0.232128,1.881464
2025-12-31T15:17:23.816775,9.437292,-6.159125,0.856630,0.702494,0.200363,1.854586
2025-12-31T15:17:23.825775,9.193224,-6.671189,0.923629,0.846659,0.075747,1.778839
2025-12-31T15:17:23.835775,9.547362,-6.786044,0.775274,1.012814,-0.114842,1.699426
2025-12-31T15:17:23.844775,10.375278,-6.417550,0.732203,1.200960,-0.272445,1.623679
2025-12-31T15:17:23.854775,11.279765,-5.580062,0.918843,1.277929,-0.294436,1.590692
2025-12-31T15:17:23.864775,11.983255,-4.637290,1.253839,1.156978,-0.157603,1.632231
2025-12-31T15:17:23.873775,11.992826,-3.785445,1.373480,0.873537,0.101403,1.712865
2025-12-31T15:17:23.883775,11.423335,-3.177668,1.631905,0.433714,0.384845,1.802052
2025-12-31T15:17:23.892775,10.303494,-3.316452,1.722832,-0.146607,0.566882,1.863138
2025-12-31T15:17:23.902775,9.207581,-4.220939,1.703689,-0.692721,0.588873,1.875355
2025-12-31T15:17:23.912775,8.451449,-5.603990,1.703689,-1.069013,0.471587,1.839925
2025-12-31T15:17:23.921775,8.020741,-6.996613,1.746760,-1.225395,0.278554,1.767843
2025-12-31T15:17:23.931775,8.054240,-8.370093,1.445264,-1.172861,0.109955,1.704313
2025-12-31T15:17:23.941775,8.298308,-9.365507,1.220339,-0.916297,0.020769,1.666440
2025-12-31T15:17:23.950775,8.532805,-9.710074,0.751346,-0.563217,0.013439,1.660331
2025-12-31T15:17:23.960775,8.609375,-9.461220,0.306281,-0.244346,0.063529,1.710422
2025-12-31T15:17:23.969775,8.365307,-8.896514,0.449850,0.009773,0.140498,1.734856
2025-12-31T15:17:23.979775,7.920242,-8.102097,0.861416,0.130725,0.213802,1.742187
2025-12-31T15:17:23.989775,7.259823,-7.642675,1.182054,0.092851,0.245567,1.710422
2025-12-31T15:17:23.998775,6.771687,-7.781459,1.450050,-0.019547,0.221133,1.631009
2025-12-31T15:17:24.008775,6.508477,-8.441878,1.751546,-0.142942,0.119729,1.521054
2025-12-31T15:17:24.017775,6.752545,-9.542576,1.727617,-0.213802,-0.025656,1.398881
2025-12-31T15:17:24.027775,7.326822,-10.662417,1.454836,-0.116064,-0.158824,1.269377
2025-12-31T15:17:24.037775,8.082954,-11.528619,1.330409,0.146607,-0.196698,1.152091
2025-12-31T15:17:24.046775,8.681160,-11.777472,0.904486,0.447153,-0.123394,1.114217
2025-12-31T15:17:24.056775,8.858229,-11.447263,0.306281,0.730594,0.031764,1.174082
2025-12-31T15:17:24.066775,8.441878,-10.552347,0.387637,0.939510,0.207694,1.243721
2025-12-31T15:17:24.075775,7.752745,-9.499505,0.837487,0.927293,0.316428,1.287703
2025-12-31T15:17:24.085775,6.982256,-8.647660,1.330409,0.714712,0.327423,1.306029
2025-12-31T15:17:24.094775,6.474977,-8.331808,1.923829,0.381179,0.261450,1.290147
2025-12-31T15:17:24.104775,6.202196,-8.470592,2.512463,-0.021991,0.134390,1.247386
2025-12-31T15:17:24.114775,6.321837,-8.977870,2.579462,-0.404392,-0.009773,1.215621
2025-12-31T15:17:24.123775,6.652046,-9.748359,2.277967,-0.675616,-0.101403,1.186300
2025-12-31T15:17:24.133775,6.953542,-10.447063,1.899901,-0.761137,-0.106290,1.152091
2025-12-31T15:17:24.142775,7.082754,-10.992627,1.665404,-0.659734,-0.030543,1.116661
2025-12-31T15:17:24.152775,6.953542,-11.169695,1.517049,-0.455705,0.097738,1.092226
2025-12-31T15:17:24.162775,6.518048,-11.231909,1.421336,-0.238237,0.223576,1.065348
2025-12-31T15:17:24.171775,6.005984,-10.992627,1.555334,-0.052534,0.300545,1.020144
2025-12-31T15:17:24.181775,5.460421,-10.762916,1.727617,0.081855,0.305432,0.943175
2025-12-31T15:17:24.191775,5.216353,-10.547562,1.919043,0.127059,0.238237,0.845437
2025-12-31T15:17:24.200775,5.173282,-10.470991,2.038684,0.091629,0.125838,0.746477
2025-12-31T15:17:24.210775,5.450849,-10.408778,1.990828,0.018325,-0.006108,0.625525
2025-12-31T15:17:24.219775,5.848058,-10.461420,2.005185,-0.032986,-0.117286,0.492357
2025-12-31T15:17:24.229775,6.355336,-10.475777,1.938186,-0.035430,-0.162490,0.370184
2025-12-31T15:17:24.239775,6.537191,-10.241280,2.072184,0.015882,-0.113620,0.266337
2025-12-31T15:17:24.248775,6.374479,-9.767501,1.986042,0.096516,-0.004886,0.157603
2025-12-31T15:17:24.258775,5.900700,-9.174081,2.057827,0.195476,0.117286,0.041538
2025-12-31T15:17:24.267775,5.359922,-8.532805,2.378465,0.300545,0.204028,-0.118507
2025-12-31T15:17:24.277775,4.800002,-7.901100,2.498106,0.354301,0.205250,-0.316428
2025-12-31T15:17:24.287775,4.666004,-7.417750,2.388036,0.359188,0.117286,-0.544891
2025-12-31T15:17:24.296775,4.938785,-7.121040,2.373680,0.317649,-0.028099,-0.794124
2025-12-31T15:17:24.306775,5.513063,-7.039684,2.153540,0.166155,-0.195476,-1.005483
2025-12-31T15:17:24.316775,6.388836,-7.384250,1.947757,-0.054977,-0.326201,-1.159421
2025-12-31T15:17:24.325775,7.350751,-7.743173,1.569691,-0.237015,-0.368962,-1.292590
2025-12-31T15:17:24.335775,8.073383,-8.035098,1.239482,-0.367740,-0.294436,-1.402546
2025-12-31T15:17:24.344775,8.312665,-8.240881,0.933200,-0.454483,-0.129503,-1.486845
2025-12-31T15:17:24.354775,8.250452,-8.408378,1.000199,-0.454483,0.046425,-1.584584
2025-12-31T15:17:24.364775,7.896314,-8.484948,1.411765,-0.459370,0.140498,-1.722639
2025-12-31T15:17:24.373775,7.666603,-8.700302,1.569691,-0.515570,0.105068,-1.838703
2025-12-31T15:17:24.383775,7.786244,-8.858229,1.368694,-0.499687,0.010995,-2.003637
2025-12-31T15:17:24.392775,8.164310,-9.111868,1.043270,-0.478918,-0.095294,-2.174679
2025-12-31T15:17:24.402775,8.829515,-9.260223,0.674775,-0.426383,-0.173485,-2.290744
2025-12-31T15:17:24.412775,9.446863,-8.977870,0.373280,-0.265115,-0.162490,-2.381152
2025-12-31T15:17:24.421775,9.595218,-8.360522,0.291924,-0.139277,-0.054977,-2.432464
2025-12-31T15:17:24.431775,9.466006,-7.680960,0.387637,-0.134390,0.085521,-2.443460
2025-12-31T15:17:24.441775,8.872586,-6.939185,0.411565,-0.219911,0.188146,-2.443460
2025-12-31T15:17:24.450775,8.279166,-6.317051,0.655633,-0.405614,0.193033,-2.478890
2025-12-31T15:17:24.460775,7.925028,-5.972485,0.808774,-0.675616,0.057421,-2.583959
2025-12-31T15:17:24.469775,8.059026,-6.058626,1.205982,-0.910189,-0.188146,-2.755001
2025-12-31T15:17:24.479775,8.915657,-6.436692,1.387837,-1.095892,-0.455705,-2.951700
2025-12-31T15:17:24.489775,10.332207,-6.891329,1.019342,-1.209512,-0.632856,-3.099529
2025-12-31T15:17:24.498775,11.600403,-7.283751,0.062213,-1.100778,-0.610865,-3.222924
2025-12-31T15:17:24.508775,12.557533,-7.192824,-0.382851,-0.846659,-0.412944,-3.299893
2025-12-31T15:17:24.517775,12.916456,-7.240681,-0.282353,-0.638964,-0.167377,-3.308445
2025-12-31T15:17:24.527775,12.916456,-7.403393,-0.244067,-0.577878,0.018325,-3.236363
2025-12-31T15:17:24.537775,12.691531,-7.599604,-0.425922,-0.574213,0.087964,-3.141068
2025-12-31T15:17:24.546775,12.433106,-7.518248,-0.421136,-0.583987,0.062308,-3.054325
2025-12-31T15:17:24.556775,12.236894,-7.460820,-0.435493,-0.649960,-0.035430,-2.932152
2025-12-31T15:17:24.566775,12.232109,-7.441678,0.263210,-0.686612,-0.179594,-2.830748
2025-12-31T15:17:24.575775,12.720244,-7.465606,1.091127,-0.678060,-0.334754,-2.768440
2025-12-31T15:17:24.585775,13.409377,-7.594818,0.818345,-0.664621,-0.432492,-2.664593
2025-12-31T15:17:24.594775,14.069796,-7.508677,0.583848,-0.470366,-0.334754,-2.577850
2025-12-31T15:17:24.604775,13.878371,-6.881757,0.157926,-0.095294,-0.023212,-2.492329
2025-12-31T15:17:24.614775,12.830314,-5.670989,-0.325423,0.271224,0.350636,-2.389704
2025-12-31T15:17:24.623775,11.236694,-4.331008,-0.746560,0.505796,0.615752,-2.329839
2025-12-31T15:17:24.633775,9.762716,-3.192025,-0.756131,0.590095,0.665842,-2.323730
2025-12-31T15:17:24.642775,8.551947,-2.349751,-0.454636,0.489913,0.507018,-2.356717
2025-12-31T15:17:24.652775,8.054240,-1.914258,-0.066999,0.256563,0.206472,-2.409251
2025-12-31T15:17:24.662775,8.293523,-1.564905,0.344566,-0.008552,-0.163711,-2.467895
2025-12-31T15:17:24.671775,9.183653,-1.272981,0.679561,-0.295658,-0.529009,-2.502103
2025-12-31T15:17:24.681775,10.494919,-1.253839,0.717846,-0.634077,-0.800233,-2.492329
2025-12-31T15:17:24.691775,11.834900,-1.325623,0.468993,-0.938288,-0.890641,-2.447125
2025-12-31T15:17:24.700775,12.815957,-1.584048,0.483350,-1.178969,-0.750142,-2.359161
2025-12-31T15:17:24.710775,12.978669,-1.842473,0.334995,-1.358564,-0.421496,-2.240653
2025-12-31T15:17:24.719775,12.232109,-2.230110,0.004785,-1.436754,-0.042760,-2.119701
2025-12-31T15:17:24.729775,11.011769,-2.660818,-0.076570,-1.411098,0.224798,-2.061058
2025-12-31T15:17:24.739775,9.801001,-3.110669,-0.157926,-1.260825,0.267558,-2.069610
2025-12-31T15:17:24.748775,9.068797,-3.517449,-0.205782,-0.990823,0.113620,-2.139249
2025-12-31T15:17:24.758775,9.044869,-3.565305,-0.296710,-0.638964,-0.141720,-2.238209
2025-12-31T15:17:24.767775,9.485148,-3.512663,-0.612562,-0.223576,-0.383623,-2.315178
2025-12-31T15:17:24.777775,10.289137,-2.991028,-0.492921,0.218689,-0.524122,-2.359161
2025-12-31T15:17:24.787775,10.997412,-2.206182,-0.129212,0.583987,-0.524122,-2.333504
2025-12-31T15:17:24.796775,11.375478,-1.301695,0.009571,0.753807,-0.399505,-2.210109
2025-12-31T15:17:24.806775,11.164910,-0.722632,0.205782,0.728151,-0.219911,-2.042732
2025-12-31T15:17:24.816775,10.494919,-0.473778,0.440279,0.582765,-0.065973,-1.882686
2025-12-31T15:17:24.825775,9.786644,-0.559920,0.598205,0.398284,0.007330,-1.744630
2025-12-31T15:17:24.835775,9.221938,-0.861416,0.564706,0.233350,-0.007330,-1.637118
2025-12-31T15:17:24.844775,8.805587,-1.124626,0.334995,0.149051,-0.092851,-1.562592
2025-12-31T15:17:24.854775,8.719445,-1.363908,0.172283,0.158824,-0.201585,-1.503949
2025-12-31T15:17:24.864775,8.949156,-1.373480,-0.047856,0.233350,-0.320093,-1.442863
2025-12-31T15:17:24.873775,9.422935,-0.870987,-0.306281,0.322536,-0.400727,-1.369559
2025-12-31T15:17:24.883775,9.877571,-0.325423,-0.459421,0.342084,-0.394618,-1.262047
2025-12-31T15:17:24.892775,9.944570,0.234496,-0.358923,0.283441,-0.278554,-1.117883
2025-12-31T15:17:24.902775,9.600004,0.693918,-0.047856,0.141720,-0.079412,-0.976162
2025-12-31T15:17:24.912775,8.867800,0.894915,0.234496,-0.074525,0.128281,-0.857654
2025-12-31T15:17:24.921775,7.843672,0.717846,0.507278,-0.301767,0.249232,-0.768468
2025-12-31T15:17:24.931775,6.948756,0.229710,0.775274,-0.499687,0.238237,-0.717155
2025-12-31T15:17:24.941775,6.388836,-0.282353,0.780060,-0.651182,0.105068,-0.695164
2025-12-31T15:17:24.950775,6.159125,-0.827916,0.641276,-0.669508,-0.102625,-0.695164
2025-12-31T15:17:24.960775,6.470192,-1.263410,0.746560,-0.544891,-0.315206,-0.703716
2025-12-31T15:17:24.969775,7.173682,-1.402194,0.626919,-0.357966,-0.469144,-0.685390
2025-12-31T15:17:24.979775,8.039883,-1.272981,0.306281,-0.129503,-0.494800,-0.623082
2025-12-31T15:17:24.989775,8.585447,-0.775274,0.119641,0.094073,-0.343306,-0.529009
2025-12-31T15:17:24.998775,8.566304,-0.143569,0.047856,0.240680,-0.041538,-0.397062
2025-12-31T15:17:25.008775,7.757530,0.406779,0.253639,0.268780,0.300545,-0.255341
2025-12-31T15:17:25.017775,6.441478,0.622133,0.641276,0.184481,0.553443,-0.153938
2025-12-31T15:17:25.027775,5.134997,0.756131,0.818345,0.064751,0.638964,-0.089186
2025-12-31T15:17:25.037775,3.991228,0.713061,0.957129,-0.045204,0.557108,-0.070860
2025-12-31T15:17:25.046775,3.220739,0.588634,1.148554,-0.136833,0.359188,-0.086742
2025-12-31T15:17:25.056775,3.019742,0.387637,1.253839,-0.166155,0.118507,-0.101403
2025-12-31T15:17:25.066775,3.101098,0.258424,1.239482,-0.150272,-0.096516,-0.087964
2025-12-31T15:17:25.075775,3.699303,0.200997,0.990628,-0.141720,-0.246789,-0.062308
2025-12-31T15:17:25.085775,4.249652,0.196211,0.746560,-0.125838,-0.289550,-0.015882
2025-12-31T15:17:25.094775,4.685146,0.401994,0.435493,-0.084299,-0.223576,0.035430
2025-12-31T15:17:25.104775,4.785645,0.674775,0.301495,-0.081855,-0.079412,0.083077
2025-12-31T15:17:25.114775,4.637290,0.760917,0.248853,-0.136833,0.042760,0.128281
2025-12-31T15:17:25.123775,4.393222,0.799202,0.186640,-0.204028,0.073303,0.156381
2025-12-31T15:17:25.133775,4.436293,0.708275,0.291924,-0.267558,-0.008552,0.156381
2025-12-31T15:17:25.142775,4.752145,0.435493,0.411565,-0.306654,-0.152716,0.152716
2025-12-31T15:17:25.152775,5.465206,0.358923,0.215354,-0.310319,-0.296880,0.142942
2025-12-31T15:17:25.162775,6.451049,0.454636,-0.071784,-0.305432,-0.367740,0.157603
2025-12-31T15:17:25.171775,7.298108,0.569491,-0.373280,-0.323758,-0.367740,0.189368
2025-12-31T15:17:25.181775,8.097311,0.698704,-0.574277,-0.367740,-0.309097,0.240680
2025-12-31T15:17:25.191775,8.752945,0.799202,-0.803988,-0.465479,-0.232128,0.279776
2025-12-31T15:17:25.200775,9.178867,0.918843,-1.028913,-0.604756,-0.172263,0.321315
2025-12-31T15:17:25.210775,9.580861,0.914058,-1.258624,-0.736703,-0.180816,0.331088
2025-12-31T15:17:25.219775,10.155139,0.813559,-1.435693,-0.857654,-0.290771,0.312762
2025-12-31T15:17:25.229775,11.006983,0.780060,-1.584048,-0.961501,-0.459370,0.298102
2025-12-31T15:17:25.239775,11.983255,0.526420,-1.646261,-1.027475,-0.610865,0.280997
2025-12-31T15:17:25.248775,12.806386,0.277567,-1.584048,-1.028696,-0.656069,0.315206
2025-12-31T15:17:25.258775,13.318450,-0.119641,-1.191625,-0.973718,-0.546113,0.405614
2025-12-31T15:17:25.267775,12.993026,-0.512064,-0.545563,-0.825889,-0.302989,0.520457
2025-12-31T15:17:25.277775,11.944970,-0.746560,0.066999,-0.582765,-0.013439,0.671951
2025-12-31T15:17:25.287775,10.389635,-0.823130,0.397208,-0.257785,0.199142,0.811228
2025-12-31T15:17:25.296775,8.896514,-0.689132,0.574277,0.107512,0.260228,0.913854
2025-12-31T15:17:25.306775,7.752745,-0.220139,0.602991,0.447153,0.166155,0.967610
2025-12-31T15:17:25.316775,7.216752,0.473778,0.564706,0.763581,-0.024434,0.965166
2025-12-31T15:17:25.325775,7.221538,1.282552,0.780060,0.977384,-0.252898,0.900415
2025-12-31T15:17:25.335775,7.795816,1.981257,0.488135,1.047022,-0.456927,0.811228
2025-12-31T15:17:25.344775,8.657232,2.569891,0.387637,0.995710,-0.579100,0.724486
2025-12-31T15:17:25.354775,9.614361,2.919243,0.445065,0.857654,-0.598647,0.630412
2025-12-31T15:17:25.364775,10.533205,3.125026,0.339780,0.675616,-0.524122,0.554665
2025-12-31T15:17:25.373775,11.126625,3.440878,0.291924,0.463035,-0.368962,0.480139
2025-12-31T15:17:25.383775,11.289337,3.617947,0.282353,0.217467,-0.189368,0.405614
2025-12-31T15:17:25.392775,11.207981,3.646661,0.229710,-0.053756,-0.035430,0.355523
2025-12-31T15:17:25.402775,10.944770,3.369094,0.186640,-0.343306,0.052534,0.326201
2025-12-31T15:17:25.412775,10.609775,2.981456,-0.004785,-0.596204,0.074525,0.305432
2025-12-31T15:17:25.421775,10.351350,2.335394,-0.066999,-0.758694,0.050090,0.274889
2025-12-31T15:17:25.431775,10.169496,1.660618,-0.090927,-0.791681,0.015882,0.239459
2025-12-31T15:17:25.441775,10.078568,1.210768,-0.052642,-0.686612,-0.017104,0.196698
2025-12-31T15:17:25.450775,10.011569,0.765703,0.043070,-0.515570,-0.054977,0.156381
2025-12-31T15:17:25.460775,10.011569,0.507278,-0.052642,-0.284663,-0.086742,0.120951
2025-12-31T15:17:25.469775,10.016355,0.425922,-0.009571,0.008552,-0.098960,0.054977
2025-12-31T15:17:25.479775,10.083354,0.559920,0.076570,0.306654,-0.074525,-0.018325
2025-12-31T15:17:25.489775,10.016355,0.789631,0.110069,0.544891,-0.025656,-0.068416
2025-12-31T15:17:25.498775,9.839286,1.091127,0.028713,0.722042,0.025656,-0.102625
2025-12-31T15:17:25.508775,9.734002,1.478764,-0.095712,0.834441,0.057421,-0.127059
2025-12-31T15:17:25.517775,9.714859,1.957328,-0.162711,0.856432,0.061086,-0.140498
2025-12-31T15:17:25.527775,9.757930,2.230110,-0.177068,0.795346,0.042760,-0.140498
2025-12-31T15:17:25.537775,9.906285,2.584248,-0.267996,0.668286,0.019547,-0.130725
2025-12-31T15:17:25.546775,10.121639,2.866601,-0.287138,0.474031,0.010995,-0.114842
2025-12-31T15:17:25.556775,10.341779,2.861815,-0.167497,0.223576,0.019547,-0.089186
2025-12-31T15:17:25.566775,10.351350,2.737389,-0.023928,-0.037873,0.057421,-0.067195
2025-12-31T15:17:25.575775,10.284351,2.244467,-0.014356,-0.279776,0.108733,-0.045204
2025-12-31T15:17:25.585775,10.078568,1.718046,-0.086141,-0.453261,0.153938,-0.042760
2025-12-31T15:17:25.594775,9.858429,1.057627,-0.167497,-0.510683,0.183259,-0.058643
2025-12-31T15:17:25.604775,9.609575,0.449850,-0.110069,-0.461814,0.172263,-0.074525
2025-12-31T15:17:25.614775,9.480363,0.043070,-0.177068,-0.316428,0.116064,-0.103847
2025-12-31T15:17:25.623775,9.552147,-0.148355,-0.215354,-0.114842,0.053756,-0.139277
2025-12-31T15:17:25.633775,9.700502,-0.071784,-0.143569,0.105068,0.050090,-0.152716
2025-12-31T15:17:25.642775,9.757930,0.167497,0.009571,0.296880,0.114842,-0.152716
2025-12-31T15:17:25.652775,9.609575,0.425922,0.019142,0.409279,0.212581,-0.144164
2025-12-31T15:17:25.662775,9.360722,0.775274,0.043070,0.430049,0.288328,-0.138055
2025-12-31T15:17:25.671775,8.977870,0.890130,0.205782,0.388510,0.322536,-0.135612
2025-12-31T15:17:25.681775,8.767302,0.914058,0.406779,0.312762,0.328645,-0.124616
2025-12-31T15:17:25.691775,8.523234,0.875773,0.483350,0.201585,0.323758,-0.114842
2025-12-31T15:17:25.700775,8.446663,0.717846,0.497707,0.100181,0.299323,-0.097738
2025-12-31T15:17:25.710775,8.465806,0.708275,0.349352,0.014660,0.241902,-0.065973
2025-12-31T15:17:25.719775,8.590233,0.631705,0.306281,-0.081855,0.175929,-0.032986
2025-12-31T15:17:25.729775,8.681160,0.387637,0.397208,-0.171042,0.146607,0.003665
2025-12-31T15:17:25.739775,8.729016,0.004785,0.282353,-0.221133,0.169820,0.043982
2025-12-31T15:17:25.748775,8.638089,-0.354137,0.153140,-0.213802,0.222354,0.085521
2025-12-31T15:17:25.758775,8.403592,-0.617348,0.263210,-0.141720,0.261450,0.105068
2025-12-31T15:17:25.767775,8.130811,-0.861416,0.325423,-0.009773,0.272445,0.105068
2025-12-31T15:17:25.777775,7.958527,-0.928415,0.445065,0.145385,0.268780,0.098960
2025-12-31T15:17:25.787775,7.944171,-0.933200,0.449850,0.280997,0.229685,0.086742
2025-12-31T15:17:25.796775,8.149953,-0.727418,0.263210,0.400727,0.131946,0.079412
2025-12-31T15:17:25.806775,8.633303,-0.382851,0.000000,0.483805,0.012217,0.076969
2025-12-31T15:17:25.816775,9.312865,-0.162711,-0.086141,0.499687,-0.040317,0.092851
2025-12-31T15:17:25.825775,9.705288,-0.019142,0.062213,0.460592,0.041538,0.151494
2025-12-31T15:17:25.835775,9.571290,0.028713,0.224925,0.398284,0.263893,0.260228
2025-12-31T15:17:25.844775,8.805587,0.019142,0.378065,0.309097,0.503352,0.367740
2025-12-31T15:17:25.854775,7.752745,-0.196211,0.440279,0.215024,0.630412,0.450818
2025-12-31T15:17:25.864775,6.881757,-0.421136,0.531206,0.152716,0.602312,0.507018
2025-12-31T15:17:25.873775,6.326622,-0.775274,0.574277,0.120951,0.461814,0.532674
2025-12-31T15:17:25.883775,6.369693,-0.780060,0.665204,0.134390,0.266337,0.549778
2025-12-31T15:17:25.892775,6.800401,-0.923629,0.368494,0.173485,0.094073,0.577878
2025-12-31T15:17:25.902775,7.542176,-0.813559,0.172283,0.206472,-0.013439,0.614530
2025-12-31T15:17:25.912775,8.283951,-0.650847,0.114855,0.211359,-0.031764,0.675616
2025-12-31T15:17:25.921775,8.767302,-0.488135,0.000000,0.161268,0.042760,0.788015
2025-12-31T15:17:25.931775,8.858229,-0.464207,-0.038285,0.061086,0.193033,0.932180
2025-12-31T15:17:25.941775,8.432306,-0.454636,0.167497,-0.053756,0.355523,1.077566
2025-12-31T15:17:25.950775,7.776673,-0.655633,0.449850,-0.163711,0.455705,1.213178
2025-12-31T15:17:25.960775,7.197610,-0.923629,0.545563,-0.251676,0.455705,1.326799
2025-12-31T15:17:25.969775,6.991827,-1.263410,0.736989,-0.294436,0.364075,1.420872
2025-12-31T15:17:25.979775,7.197610,-1.655833,0.459421,-0.310319,0.241902,1.524719
2025-12-31T15:17:25.989775,7.728816,-1.890329,-0.071784,-0.299323,0.160046,1.632231
2025-12-31T15:17:25.998775,8.073383,-2.062613,-0.459421,-0.243124,0.149051,1.764178
2025-12-31T15:17:26.008775,8.360522,-2.158325,-0.641276,-0.180816,0.168598,1.899790
2025-12-31T15:17:26.017775,8.365307,-2.076970,-0.689132,-0.138055,0.184481,2.040289
2025-12-31T15:17:26.027775,8.159525,-2.009970,-0.794417,-0.107512,0.173485,2.156353
2025-12-31T15:17:26.037775,7.968099,-1.880758,-0.315852,-0.069638,0.103847,2.217440
2025-12-31T15:17:26.046775,7.920242,-1.756331,0.244067,-0.030543,-0.008552,2.250427
2025-12-31T15:17:26.056775,8.006384,-1.631905,0.679561,0.000000,-0.111177,2.261422
2025-12-31T15:17:26.066775,8.255237,-1.521835,0.665204,0.046425,-0.133168,2.241874
2025-12-31T15:17:26.075775,8.379664,-1.402194,0.272781,0.106290,-0.051312,2.221105
2025-12-31T15:17:26.085775,8.068597,-1.488335,-0.090927,0.142942,0.084299,2.222327
2025-12-31T15:17:26.094775,7.599604,-1.708475,-0.339780,0.142942,0.188146,2.213775
2025-12-31T15:17:26.104775,7.006184,-2.086541,-0.569491,0.153938,0.208915,2.195449
2025-12-31T15:17:26.114775,6.632904,-2.340180,-0.507278,0.191811,0.138055,2.164905
2025-12-31T15:17:26.123775,6.474977,-2.708675,-0.239282,0.217467,-0.021991,2.116036
2025-12-31T15:17:26.133775,6.766902,-3.005385,-0.119641,0.272445,-0.216246,2.062280
2025-12-31T15:17:26.142775,7.317251,-3.225524,-0.019142,0.343306,-0.382401,1.996307
2025-12-31T15:17:26.152775,7.948956,-3.359522,0.258424,0.408057,-0.471587,1.943772
2025-12-31T15:17:26.162775,8.642875,-3.383451,0.459421,0.498465,-0.466700,1.909564
2025-12-31T15:17:26.171775,9.111868,-3.230310,0.454636,0.604756,-0.357966,1.887573
2025-12-31T15:17:26.181775,8.992227,-2.986242,0.311066,0.673173,-0.183259,1.880242
2025-12-31T15:17:26.191775,8.571090,-2.818745,0.387637,0.649960,-0.018325,1.875355
2025-12-31T15:17:26.200775,7.896314,-2.837887,0.583848,0.538783,0.061086,1.874134
2025-12-31T15:17:26.210775,7.331608,-3.105883,0.559920,0.350636,0.006108,1.854586
2025-12-31T15:17:26.219775,7.231109,-3.622733,0.449850,0.171042,-0.188146,1.802052
2025-12-31T15:17:26.229775,7.771887,-4.307080,0.378065,0.061086,-0.458148,1.715309
2025-12-31T15:17:26.239775,8.786444,-5.058426,0.354137,0.024434,-0.713490,1.627344
2025-12-31T15:17:26.248775,10.107282,-5.742774,-0.057427,0.079412,-0.842993,1.572366
2025-12-31T15:17:26.258775,11.270194,-6.130411,-0.411565,0.244346,-0.784350,1.572366
2025-12-31T15:17:26.267775,11.873185,-6.422335,-0.708275,0.471587,-0.553443,1.613905
2025-12-31T15:17:26.277775,11.676974,-6.331408,-0.885344,0.706160,-0.238237,1.709200
2025-12-31T15:17:26.287775,10.652846,-5.953342,-0.631705,0.901636,0.036651,1.791056
2025-12-31T15:17:26.296775,9.336793,-5.412564,-0.110069,0.978605,0.163711,1.815491
2025-12-31T15:17:26.306775,8.260023,-4.943571,0.478564,0.894306,0.070860,1.804495
2025-12-31T15:17:26.316775,7.795816,-4.512863,1.024128,0.706160,-0.208915,1.716530
2025-12-31T15:17:26.325775,8.126025,-4.512863,1.335195,0.406836,-0.599869,1.577253
2025-12-31T15:17:26.335775,9.312865,-4.847858,1.052841,0.073303,-0.976162,1.485623
2025-12-31T15:17:26.344775,10.715059,-5.517848,0.445065,-0.123394,-1.155756,1.417207
