Timestamp,Acceleration_X,Acceleration_Y,Acceleration_Z,Gyro_X,Gyro_Y,Gyro_Z
2026-01-04T15:38:27.291299,-9.279366,-0.689132,2.976671,-0.042760,0.276111,0.255341
2026-01-04T15:38:27.301299,-9.590432,-0.914058,2.378465,-0.182037,0.267558,0.257785
2026-01-04T15:38:27.310299,-9.753144,-1.091127,2.833101,-0.206472,0.245567,0.252898
2026-01-04T15:38:27.320299,-9.796215,-1.263410,2.311466,-0.210137,0.186924,0.270002
2026-01-04T15:38:27.329299,-9.595218,-1.560120,2.531606,-0.184481,0.120951,0.257785
2026-01-04T15:38:27.339299,-9.269794,-1.253839,2.833101,-0.050090,0.131946,0.245567
2026-01-04T15:38:27.349299,-9.317651,-0.875773,1.919043,-0.063529,0.164933,0.235793
2026-01-04T15:38:27.358299,-9.245866,-1.014556,2.167897,-0.239459,0.167377,0.197920
2026-01-04T15:38:27.368299,-9.178867,-1.205982,2.890529,-0.243124,0.204028,0.162490
2026-01-04T15:38:27.378299,-9.489934,-1.019342,1.852044,-0.230907,0.262671,0.134390
2026-01-04T15:38:27.387299,-9.858429,-1.397408,2.617747,-0.287106,0.276111,0.086742
2026-01-04T15:38:27.397299,-10.025926,-1.411765,3.775874,-0.195476,0.199142,0.086742
2026-01-04T15:38:27.406299,-9.987641,-1.100698,3.062812,-0.050090,0.061086,0.118507
2026-01-04T15:38:27.416299,-9.872786,-0.894915,2.665604,0.006108,-0.012217,0.129503
2026-01-04T15:38:27.426299,-9.485148,-0.971485,2.703889,0.007330,-0.062308,0.128281
2026-01-04T15:38:27.435299,-9.375078,-1.115055,1.919043,0.010995,-0.076969,0.128281
2026-01-04T15:38:27.445299,-9.212367,-0.961914,1.507478,0.009773,-0.006108,0.075747
2026-01-04T15:38:27.454299,-9.178867,-0.928415,1.191625,-0.067195,0.056199,0.039095
2026-01-04T15:38:27.464299,-9.111868,-0.937986,1.205982,-0.155159,0.128281,0.002443
2026-01-04T15:38:27.474299,-9.226723,-1.000199,2.498106,-0.190589,0.239459,-0.023212
2026-01-04T15:38:27.483299,-9.489934,-0.933200,2.646461,-0.178372,0.279776,0.001221
2026-01-04T15:38:27.493299,-9.796215,-0.775274,2.545963,-0.142942,0.262671,0.026878
2026-01-04T15:38:27.503299,-10.083354,-0.684347,3.397808,-0.123394,0.221133,0.032986
2026-01-04T15:38:27.512299,-10.317851,-0.488135,2.636890,-0.029321,0.135612,0.067195
2026-01-04T15:38:27.522299,-10.135996,-0.579063,2.311466,-0.073303,0.008552,0.076969
2026-01-04T15:38:27.531299,-9.667003,-1.287338,2.220539,-0.152716,-0.087964,0.083077
2026-01-04T15:38:27.541299,-9.188438,-1.703689,1.660618,-0.058643,-0.123394,0.052534
2026-01-04T15:38:27.551299,-8.839086,-1.406979,1.473978,0.051312,-0.056199,0.020769
2026-01-04T15:38:27.560299,-8.872586,-0.832702,1.966900,0.057421,0.087964,-0.029321
2026-01-04T15:38:27.570299,-9.198010,-0.392422,1.560120,-0.036651,0.188146,-0.042760
2026-01-04T15:38:27.579299,-9.556933,-0.306281,2.498106,-0.223576,0.211359,-0.050090
2026-01-04T15:38:27.589299,-9.805787,-0.808774,3.326023,-0.348193,0.186924,-0.006108
2026-01-04T15:38:27.599299,-10.164710,-1.416550,2.809173,-0.254119,0.130725,0.052534
2026-01-04T15:38:27.608299,-10.437492,-1.526620,2.584248,-0.017104,0.058643,0.085521
2026-01-04T15:38:27.618299,-10.384850,-1.191625,2.689532,0.212581,-0.070860,0.107512
2026-01-04T15:38:27.628299,-9.772287,-0.746560,1.842473,0.294436,-0.201585,0.118507
2026-01-04T15:38:27.637299,-9.044869,-0.507278,1.387837,0.186924,-0.234572,0.079412
2026-01-04T15:38:27.647299,-8.561519,-0.713061,1.507478,-0.028099,-0.124616,0.042760
2026-01-04T15:38:27.656299,-8.571090,-1.019342,1.502692,-0.197920,0.063529,-0.003665
2026-01-04T15:38:27.666299,-9.064012,-1.335195,1.837687,-0.271224,0.232128,-0.040317
2026-01-04T15:38:27.676299,-9.719645,-1.507478,2.603390,-0.268780,0.283441,-0.064751
2026-01-04T15:38:27.685299,-10.207781,-1.354337,2.804388,-0.140498,0.217467,-0.061086
2026-01-04T15:38:27.695299,-10.365707,-0.904486,2.818745,0.003665,0.089186,-0.026878
2026-01-04T15:38:27.704299,-10.135996,-0.473778,2.502892,0.069638,-0.020769,0.012217
2026-01-04T15:38:27.714299,-9.939785,-0.459421,2.239681,0.054977,-0.081855,0.042760
2026-01-04T15:38:27.724299,-9.609575,-0.722632,1.804188,-0.006108,-0.105068,0.068416
2026-01-04T15:38:27.733299,-9.461220,-0.952343,1.813759,0.000000,-0.068416,0.059864
2026-01-04T15:38:27.743299,-9.442077,-1.115055,1.363908,-0.009773,-0.023212,0.037873
2026-01-04T15:38:27.753299,-9.351150,-1.191625,1.708475,-0.072082,-0.001221,0.017104
2026-01-04T15:38:27.762299,-9.068797,-1.387837,2.124826,-0.096516,0.026878,-0.008552
2026-01-04T15:38:27.772299,-9.025726,-1.134197,2.067398,-0.052534,0.091629,-0.007330
2026-01-04T15:38:27.781299,-9.403792,-0.703489,2.048256,-0.021991,0.190589,-0.002443
2026-01-04T15:38:27.791299,-10.011569,-0.502492,2.210968,-0.079412,0.235793,0.014660
2026-01-04T15:38:27.801299,-10.365707,-0.780060,2.364108,-0.139277,0.160046,0.034208
2026-01-04T15:38:27.810299,-10.207781,-1.028913,2.478964,-0.096516,0.030543,0.061086
2026-01-04T15:38:27.820299,-9.815358,-1.138983,1.938186,-0.012217,-0.067195,0.084299
2026-01-04T15:38:27.829299,-9.466006,-1.124626,1.684547,0.068416,-0.065973,0.097738
2026-01-04T15:38:27.839299,-9.494720,-0.885344,1.875972,0.136833,0.013439,0.091629
2026-01-04T15:38:27.849299,-9.671788,-0.612562,1.651047,0.102625,0.070860,0.085521
2026-01-04T15:38:27.858299,-9.729216,-0.727418,1.928615,0.000000,0.058643,0.075747
2026-01-04T15:38:27.868299,-9.628718,-1.038485,1.813759,-0.054977,0.039095,0.078190
2026-01-04T15:38:27.878299,-9.499505,-1.320838,2.368894,-0.081855,0.054977,0.069638
2026-01-04T15:38:27.887299,-9.600004,-1.330409,1.641476,0.069638,0.122173,0.048869
2026-01-04T15:38:27.897299,-9.662217,-0.775274,2.837887,0.095294,0.090408,0.078190
2026-01-04T15:38:27.906299,-9.805787,-0.550349,1.134197,0.069638,0.113620,0.074525
2026-01-04T15:38:27.916299,-9.719645,-0.440279,2.330609,-0.010995,0.037873,0.097738
2026-01-04T15:38:27.926299,-9.566504,-0.937986,2.770888,-0.151494,0.081855,0.109955
2026-01-04T15:38:27.935299,-9.949356,-0.990628,0.799202,0.003665,0.141720,0.105068
2026-01-04T15:38:27.945299,-9.844072,-1.033699,2.344966,-0.061086,0.047647,0.105068
2026-01-04T15:38:27.954299,-9.566504,-1.440479,2.478964,-0.030543,0.000000,0.101403
2026-01-04T15:38:27.964299,-9.537790,-0.937986,1.660618,0.149051,0.039095,0.084299
2026-01-04T15:38:27.974299,-9.600004,-0.703489,1.828116,0.065973,0.061086,0.076969
2026-01-04T15:38:27.983299,-9.734002,-0.823130,1.406979,0.050090,0.068416,0.065973
2026-01-04T15:38:27.993299,-9.619146,-0.531206,2.096112,0.068416,0.052534,0.048869
2026-01-04T15:38:28.003299,-9.552147,-0.545563,2.254038,-0.018325,0.052534,0.064751
2026-01-04T15:38:28.012299,-9.676574,-0.483350,1.363908,-0.031764,0.101403,0.085521
2026-01-04T15:38:28.022299,-9.853643,-0.650847,2.177468,-0.117286,0.094073,0.087964
2026-01-04T15:38:28.031299,-9.834500,-1.119840,2.316252,-0.153938,0.040317,0.103847
2026-01-04T15:38:28.041299,-9.714859,-1.311266,2.100898,-0.052534,0.006108,0.102625
2026-01-04T15:38:28.051299,-9.623932,-1.215553,1.785045,0.034208,0.002443,0.097738
2026-01-04T15:38:28.060299,-9.619146,-0.952343,1.957328,0.095294,0.002443,0.086742
2026-01-04T15:38:28.070299,-9.466006,-0.579063,1.646261,0.097738,0.009773,0.063529
2026-01-04T15:38:28.079299,-9.384650,-0.282353,1.225125,0.014660,0.050090,0.048869
2026-01-04T15:38:28.089299,-9.614361,-0.454636,1.225125,-0.138055,0.112399,0.017104
2026-01-04T15:38:28.099299,-9.777073,-0.866201,1.612762,-0.254119,0.151494,-0.007330
2026-01-04T15:38:28.108299,-9.915856,-1.234696,1.995614,-0.221133,0.135612,-0.010995
2026-01-04T15:38:28.118299,-9.810572,-1.115055,1.919043,-0.119729,0.083077,0.013439
2026-01-04T15:38:28.128299,-9.887142,-0.847059,2.210968,-0.026878,0.063529,0.032986
2026-01-04T15:38:28.137299,-9.882357,-0.564706,2.005185,0.024434,0.070860,0.051312
2026-01-04T15:38:28.147299,-9.853643,-0.478564,2.000399,0.008552,0.032986,0.074525
2026-01-04T15:38:28.156299,-9.518648,-0.588634,1.646261,-0.070860,-0.023212,0.096516
2026-01-04T15:38:28.166299,-9.284151,-0.856630,1.545763,-0.113620,0.003665,0.096516
2026-01-04T15:38:28.176299,-9.341579,-0.990628,1.373480,-0.106290,0.091629,0.079412
2026-01-04T15:38:28.185299,-9.686145,-0.985842,1.483550,-0.069638,0.158824,0.074525
2026-01-04T15:38:28.195299,-10.006784,-0.885344,1.574477,-0.081855,0.152716,0.059864
2026-01-04T15:38:28.204299,-9.954142,-0.875773,1.761117,-0.096516,0.096516,0.050090
2026-01-04T15:38:28.214299,-9.872786,-0.803988,2.115255,-0.063529,0.064751,0.045204
2026-01-04T15:38:28.224299,-9.896714,-0.789631,2.335394,-0.021991,0.052534,0.058643
2026-01-04T15:38:28.233299,-9.930213,-0.789631,1.875972,0.021991,0.023212,0.080634
2026-01-04T15:38:28.243299,-9.896714,-0.655633,1.837687,0.091629,-0.012217,0.095294
2026-01-04T15:38:28.253299,-9.772287,-0.488135,1.813759,0.092851,-0.028099,0.109955
2026-01-04T15:38:28.262299,-9.533005,-0.502492,1.354337,0.036651,-0.042760,0.118507
2026-01-04T15:38:28.272299,-9.279366,-0.775274,1.177268,-0.047647,-0.034208,0.111177
2026-01-04T15:38:28.281299,-9.145367,-0.947557,1.545763,-0.057421,0.034208,0.094073
2026-01-04T15:38:28.291299,-9.327222,-0.713061,1.383051,-0.067195,0.124616,0.094073
2026-01-04T15:38:28.301299,-9.710074,-0.732203,1.464407,-0.144164,0.173485,0.075747
2026-01-04T15:38:28.310299,-9.920642,-0.904486,2.206182,-0.178372,0.149051,0.052534
2026-01-04T15:38:28.320299,-10.078568,-0.842273,2.053041,-0.125838,0.108733,0.058643
2026-01-04T15:38:28.329299,-10.150353,-0.890130,1.904686,-0.058643,0.061086,0.068416
2026-01-04T15:38:28.339299,-10.006784,-0.890130,1.828116,0.031764,-0.010995,0.098960
2026-01-04T15:38:28.349299,-9.757930,-0.713061,1.603191,0.138055,-0.031764,0.119729
2026-01-04T15:38:28.358299,-9.686145,-0.435493,1.210768,0.168598,-0.006108,0.139277
2026-01-04T15:38:28.368299,-9.619146,-0.330209,1.129412,0.122173,0.021991,0.133168
2026-01-04T15:38:28.378299,-9.537790,-0.306281,1.028913,0.020769,0.034208,0.125838
2026-01-04T15:38:28.387299,-9.231509,-0.583848,1.694118,-0.105068,0.043982,0.101403
2026-01-04T15:38:28.397299,-9.169296,-0.885344,1.584048,-0.166155,0.083077,0.087964
2026-01-04T15:38:28.406299,-9.379864,-0.832702,1.287338,-0.162490,0.160046,0.056199
2026-01-04T15:38:28.416299,-9.839286,-0.765703,2.388036,-0.158824,0.223576,0.032986
2026-01-04T15:38:28.426299,-10.413563,-0.746560,1.780260,-0.112399,0.183259,0.034208
2026-01-04T15:38:28.435299,-10.461420,-0.626919,1.540977,-0.041538,0.069638,0.054977
2026-01-04T15:38:28.445299,-10.231709,-0.622133,1.550549,0.031764,-0.023212,0.078190
2026-01-04T15:38:28.454299,-9.829715,-0.593420,1.397408,0.069638,-0.070860,0.090408
2026-01-04T15:38:28.464299,-9.513862,-0.669990,1.387837,0.089186,-0.068416,0.089186
2026-01-04T15:38:28.474299,-9.327222,-0.497707,1.430907,0.094073,-0.034208,0.079412
2026-01-04T15:38:28.483299,-9.365507,-0.464207,1.651047,0.010995,0.010995,0.053756
2026-01-04T15:38:28.493299,-9.509077,-0.440279,1.430907,-0.087964,0.047647,0.019547
2026-01-04T15:38:28.503299,-9.576076,-0.507278,1.507478,-0.177150,0.074525,0.001221
2026-01-04T15:38:28.512299,-9.810572,-0.784845,1.603191,-0.235793,0.080634,0.008552
2026-01-04T15:38:28.522299,-10.049854,-1.091127,1.617548,-0.163711,0.086742,0.021991
2026-01-04T15:38:28.531299,-10.116853,-1.148554,1.354337,-0.029321,0.041538,0.039095
2026-01-04T15:38:28.541299,-9.973284,-0.952343,1.679761,0.089186,-0.024434,0.059864
2026-01-04T15:38:28.551299,-9.729216,-0.531206,1.435693,0.186924,-0.032986,0.070860
2026-01-04T15:38:28.560299,-9.614361,-0.191425,1.354337,0.157603,-0.014660,0.063529
2026-01-04T15:38:28.570299,-9.590432,-0.196211,1.832902,0.042760,0.001221,0.069638
2026-01-04T15:38:28.579299,-9.604789,-0.488135,1.440479,-0.052534,0.003665,0.067195
2026-01-04T15:38:28.589299,-9.590432,-0.679561,1.320838,-0.084299,0.007330,0.056199
2026-01-04T15:38:28.599299,-9.571290,-0.732203,1.383051,-0.081855,0.039095,0.020769
2026-01-04T15:38:28.608299,-9.786644,-0.588634,1.048056,-0.080634,0.068416,-0.007330
2026-01-04T15:38:28.618299,-9.954142,-0.636490,1.229910,-0.123394,0.087964,-0.021991
2026-01-04T15:38:28.628299,-10.112068,-0.684347,1.521835,-0.114842,0.067195,-0.018325
2026-01-04T15:38:28.637299,-10.016355,-0.703489,1.636690,-0.064751,0.018325,0.000000
2026-01-04T15:38:28.647299,-9.767501,-0.770488,1.545763,-0.007330,-0.026878,0.020769
2026-01-04T15:38:28.656299,-9.623932,-0.713061,1.842473,0.048869,-0.047647,0.047647
2026-01-04T15:38:28.666299,-9.600004,-0.598205,1.804188,0.109955,-0.030543,0.067195
2026-01-04T15:38:28.676299,-9.700502,-0.363709,1.627119,0.139277,-0.017104,0.083077
2026-01-04T15:38:28.685299,-9.824929,-0.119641,1.110269,0.080634,-0.019547,0.078190
2026-01-04T15:38:28.695299,-9.767501,-0.234496,1.124626,-0.035430,-0.028099,0.043982
2026-01-04T15:38:28.704299,-9.604789,-0.306281,1.205982,-0.144164,-0.041538,0.006108
2026-01-04T15:38:28.714299,-9.513862,-0.507278,0.650847,-0.205250,0.006108,-0.013439
2026-01-04T15:38:28.724299,-9.671788,-0.736989,1.110269,-0.254119,0.089186,-0.025656
2026-01-04T15:38:28.733299,-10.011569,-1.038485,1.885544,-0.229685,0.118507,-0.006108
2026-01-04T15:38:28.743299,-10.155139,-1.153340,1.636690,-0.070860,0.064751,0.020769
2026-01-04T15:38:28.753299,-10.102497,-0.813559,1.799402,0.070860,-0.006108,0.042760
2026-01-04T15:38:28.762299,-9.772287,-0.540777,1.971685,0.123394,-0.067195,0.062308
2026-01-04T15:38:28.772299,-9.494720,-0.311066,1.545763,0.123394,-0.095294,0.084299
2026-01-04T15:38:28.781299,-9.360722,-0.200997,1.545763,0.059864,-0.053756,0.078190
2026-01-04T15:38:28.791299,-9.513862,-0.311066,1.038485,-0.035430,0.010995,0.062308
2026-01-04T15:38:28.801299,-9.820143,-0.559920,0.890130,-0.138055,0.041538,0.041538
2026-01-04T15:38:28.810299,-10.049854,-0.894915,1.392622,-0.195476,0.036651,0.002443
2026-01-04T15:38:28.820299,-10.054640,-0.976271,1.191625,-0.123394,0.014660,-0.020769
2026-01-04T15:38:28.829299,-10.021141,-0.851844,1.239482,-0.048869,-0.020769,-0.028099
2026-01-04T15:38:28.839299,-9.810572,-0.842273,1.746760,0.006108,-0.051312,-0.024434
2026-01-04T15:38:28.849299,-9.628718,-0.736989,1.785045,0.079412,-0.057421,-0.001221
2026-01-04T15:38:28.858299,-9.547362,-0.497707,1.756331,0.129503,-0.040317,0.029321
2026-01-04T15:38:28.868299,-9.657432,-0.339780,1.545763,0.131946,-0.028099,0.054977
2026-01-04T15:38:28.878299,-9.705288,-0.287138,1.239482,0.096516,-0.036651,0.068416
2026-01-04T15:38:28.887299,-9.724431,-0.330209,1.373480,0.023212,-0.041538,0.063529
2026-01-04T15:38:28.897299,-9.590432,-0.526420,1.024128,-0.021991,-0.042760,0.051312
2026-01-04T15:38:28.906299,-9.619146,-0.617348,1.115055,-0.064751,-0.021991,0.035430
2026-01-04T15:38:28.916299,-9.633503,-0.784845,1.311266,-0.096516,0.012217,0.004886
2026-01-04T15:38:28.926299,-9.734002,-0.684347,1.124626,-0.070860,0.026878,-0.017104
2026-01-04T15:38:28.935299,-9.982855,-0.478564,1.646261,-0.065973,0.037873,-0.030543
2026-01-04T15:38:28.945299,-10.126425,-0.593420,1.684547,-0.079412,0.009773,-0.019547
2026-01-04T15:38:28.954299,-10.135996,-0.746560,1.765903,-0.041538,-0.046425,0.003665
2026-01-04T15:38:28.964299,-10.064211,-0.842273,1.756331,0.040317,-0.095294,0.023212
2026-01-04T15:38:28.974299,-9.815358,-0.813559,1.497906,0.123394,-0.136833,0.036651
2026-01-04T15:38:28.983299,-9.542576,-0.531206,1.158126,0.169820,-0.149051,0.037873
2026-01-04T15:38:28.993299,-9.341579,-0.244067,1.172483,0.117286,-0.117286,0.031764
2026-01-04T15:38:29.003299,-9.408578,-0.325423,1.282552,0.007330,-0.053756,0.019547
2026-01-04T15:38:29.012299,-9.571290,-0.564706,1.186840,-0.094073,-0.013439,0.007330
2026-01-04T15:38:29.022299,-9.671788,-0.751346,1.081555,-0.136833,0.002443,-0.008552
2026-01-04T15:38:29.031299,-9.810572,-0.866201,1.569691,-0.108733,0.025656,-0.024434
2026-01-04T15:38:29.041299,-9.906285,-0.832702,1.540977,-0.062308,0.018325,-0.023212
2026-01-04T15:38:29.051299,-10.025926,-0.650847,1.517049,0.003665,-0.017104,-0.009773
2026-01-04T15:38:29.060299,-9.891928,-0.593420,1.560120,0.037873,-0.046425,-0.001221
2026-01-04T15:38:29.070299,-9.805787,-0.521635,1.713260,0.037873,-0.075747,0.007330
2026-01-04T15:38:29.079299,-9.719645,-0.564706,1.483550,0.054977,-0.085521,0.025656
2026-01-04T15:38:29.089299,-9.638289,-0.478564,1.177268,0.065973,-0.061086,0.030543
2026-01-04T15:38:29.099299,-9.686145,-0.483350,1.363908,0.025656,-0.036651,0.030543
2026-01-04T15:38:29.108299,-9.533005,-0.521635,1.201196,0.004886,-0.035430,0.024434
2026-01-04T15:38:29.118299,-9.384650,-0.454636,0.918843,-0.040317,-0.020769,0.020769
2026-01-04T15:38:29.128299,-9.370293,-0.401994,1.272981,-0.116064,0.046425,0.004886
2026-01-04T15:38:29.137299,-9.729216,-0.430708,1.593619,-0.163711,0.117286,0.015882
2026-01-04T15:38:29.147299,-10.097711,-0.679561,1.770688,-0.189368,0.117286,0.030543
2026-01-04T15:38:29.156299,-10.360921,-0.808774,1.665404,-0.111177,0.061086,0.050090
2026-01-04T15:38:29.166299,-10.313065,-0.746560,1.641476,0.001221,-0.018325,0.063529
2026-01-04T15:38:29.176299,-10.006784,-0.713061,1.684547,0.050090,-0.111177,0.073303
2026-01-04T15:38:29.185299,-9.585647,-0.579063,1.517049,0.116064,-0.147829,0.080634
2026-01-04T15:38:29.195299,-9.375078,-0.468993,1.172483,0.111177,-0.102625,0.081855
2026-01-04T15:38:29.204299,-9.365507,-0.382851,1.038485,0.030543,-0.050090,0.067195
2026-01-04T15:38:29.214299,-9.379864,-0.430708,1.048056,-0.025656,-0.015882,0.054977
2026-01-04T15:38:29.224299,-9.480363,-0.301495,1.062413,-0.097738,0.037873,0.032986
2026-01-04T15:38:29.233299,-9.719645,-0.306281,1.205982,-0.205250,0.089186,0.007330
2026-01-04T15:38:29.243299,-9.891928,-0.607776,1.416550,-0.263893,0.100181,0.009773
2026-01-04T15:38:29.253299,-10.064211,-0.823130,1.866401,-0.244346,0.086742,0.019547
2026-01-04T15:38:29.262299,-10.131210,-1.043270,1.785045,-0.161268,0.031764,0.031764
2026-01-04T15:38:29.272299,-10.030712,-0.985842,1.550549,-0.045204,-0.039095,0.046425
2026-01-04T15:38:29.281299,-9.824929,-0.746560,1.564905,0.070860,-0.067195,0.046425
2026-01-04T15:38:29.291299,-9.810572,-0.459421,1.521835,0.105068,-0.062308,0.045204
2026-01-04T15:38:29.301299,-9.719645,-0.224925,1.306481,0.059864,-0.059864,0.042760
2026-01-04T15:38:29.310299,-9.609575,-0.110069,0.995414,-0.004886,-0.051312,0.037873
2026-01-04T15:38:29.320299,-9.504291,-0.220139,0.823130,-0.145385,-0.032986,0.023212
2026-01-04T15:38:29.329299,-9.451649,-0.564706,1.119840,-0.252898,0.009773,0.006108
2026-01-04T15:38:29.339299,-9.518648,-0.703489,1.234696,-0.243124,0.068416,0.008552
2026-01-04T15:38:29.349299,-9.786644,-0.832702,1.488335,-0.215024,0.113620,0.020769
2026-01-04T15:38:29.358299,-10.131210,-0.942772,1.775474,-0.140498,0.106290,0.036651
2026-01-04T15:38:29.368299,-10.202995,-0.808774,1.732403,-0.032986,0.041538,0.046425
2026-01-04T15:38:29.378299,-10.116853,-0.602991,1.497906,0.036651,-0.026878,0.054977
2026-01-04T15:38:29.387299,-9.868000,-0.454636,1.488335,0.058643,-0.069638,0.057421
2026-01-04T15:38:29.397299,-9.743573,-0.382851,1.402194,0.042760,-0.073303,0.061086
2026-01-04T15:38:29.406299,-9.705288,-0.445065,1.095912,0.021991,-0.056199,0.058643
2026-01-04T15:38:29.416299,-9.705288,-0.411565,0.942772,-0.008552,-0.032986,0.061086
2026-01-04T15:38:29.426299,-9.748359,-0.526420,1.148554,-0.061086,-0.018325,0.057421
2026-01-04T15:38:29.435299,-9.638289,-0.674775,1.359123,-0.092851,-0.024434,0.054977
2026-01-04T15:38:29.445299,-9.580861,-0.832702,1.454836,-0.089186,-0.013439,0.051312
2026-01-04T15:38:29.454299,-9.643075,-0.851844,1.679761,-0.068416,0.008552,0.042760
2026-01-04T15:38:29.464299,-9.982855,-0.875773,1.880758,-0.009773,0.002443,0.043982
2026-01-04T15:38:29.474299,-10.068997,-0.698704,1.517049,0.047647,-0.043982,0.045204
2026-01-04T15:38:29.483299,-10.064211,-0.454636,1.378265,0.101403,-0.087964,0.039095
2026-01-04T15:38:29.493299,-10.011569,-0.133998,1.363908,0.108733,-0.112399,0.029321
2026-01-04T15:38:29.503299,-9.853643,-0.157926,1.062413,0.040317,-0.128281,0.028099
2026-01-04T15:38:29.512299,-9.638289,-0.291924,1.268195,-0.031764,-0.130725,0.023212
2026-01-04T15:38:29.522299,-9.461220,-0.689132,1.167697,-0.067195,-0.112399,0.028099
2026-01-04T15:38:29.531299,-9.456434,-0.808774,1.134197,-0.063529,-0.065973,0.023212
2026-01-04T15:38:29.541299,-9.556933,-0.818345,1.564905,-0.034208,-0.020769,0.019547
2026-01-04T15:38:29.551299,-9.647860,-0.636490,1.316052,0.003665,-0.015882,0.018325
2026-01-04T15:38:29.560299,-9.848857,-0.454636,1.387837,0.004886,-0.018325,0.013439
2026-01-04T15:38:29.570299,-9.925428,-0.416351,1.828116,-0.036651,-0.028099,0.009773
2026-01-04T15:38:29.579299,-10.040283,-0.545563,1.761117,-0.057421,-0.058643,0.013439
2026-01-04T15:38:29.589299,-9.939785,-0.612562,1.526620,-0.029321,-0.084299,0.006108
2026-01-04T15:38:29.599299,-9.944570,-0.703489,1.244267,-0.019547,-0.107512,0.004886
2026-01-04T15:38:29.608299,-9.829715,-0.799202,1.330409,-0.006108,-0.133168,-0.006108
2026-01-04T15:38:29.618299,-9.623932,-0.698704,1.306481,0.043982,-0.133168,-0.014660
2026-01-04T15:38:29.628299,-9.590432,-0.579063,1.320838,0.047647,-0.109955,-0.018325
2026-01-04T15:38:29.637299,-9.518648,-0.526420,1.459621,0.018325,-0.094073,-0.023212
2026-01-04T15:38:29.647299,-9.609575,-0.516849,1.655833,0.010995,-0.074525,-0.003665
2026-01-04T15:38:29.656299,-9.786644,-0.478564,1.411765,-0.003665,-0.053756,0.002443
2026-01-04T15:38:29.666299,-9.858429,-0.612562,1.588834,0.000000,-0.047647,0.010995
2026-01-04T15:38:29.676299,-9.949356,-0.531206,1.607976,0.028099,-0.062308,0.013439
2026-01-04T15:38:29.685299,-10.021141,-0.526420,1.306481,0.050090,-0.081855,0.019547
2026-01-04T15:38:29.695299,-9.973284,-0.416351,1.411765,0.067195,-0.097738,0.014660
2026-01-04T15:38:29.704299,-9.863214,-0.421136,1.483550,0.047647,-0.123394,0.015882
2026-01-04T15:38:29.714299,-9.638289,-0.497707,1.306481,0.028099,-0.141720,0.015882
2026-01-04T15:38:29.724299,-9.437292,-0.545563,1.478764,0.012217,-0.118507,0.012217
2026-01-04T15:38:29.733299,-9.432506,-0.521635,1.368694,-0.023212,-0.072082,0.018325
2026-01-04T15:38:29.743299,-9.600004,-0.655633,1.493121,-0.042760,-0.037873,0.020769
2026-01-04T15:38:29.753299,-9.719645,-0.641276,1.483550,-0.028099,-0.024434,0.020769
2026-01-04T15:38:29.762299,-9.973284,-0.550349,1.531406,-0.003665,-0.028099,0.019547
2026-01-04T15:38:29.772299,-10.030712,-0.555134,1.670190,-0.002443,-0.051312,0.015882
2026-01-04T15:38:29.781299,-9.934999,-0.555134,1.430907,0.013439,-0.090408,0.010995
2026-01-04T15:38:29.791299,-9.705288,-0.512064,1.473978,0.026878,-0.117286,0.012217
2026-01-04T15:38:29.801299,-9.585647,-0.488135,1.598405,0.017104,-0.105068,0.006108
2026-01-04T15:38:29.810299,-9.595218,-0.358923,1.560120,0.010995,-0.076969,-0.002443
2026-01-04T15:38:29.820299,-9.686145,-0.282353,1.435693,-0.035430,-0.061086,-0.006108
2026-01-04T15:38:29.829299,-9.748359,-0.378065,1.521835,-0.112399,-0.065973,-0.019547
2026-01-04T15:38:29.839299,-9.743573,-0.665204,1.627119,-0.169820,-0.081855,-0.023212
2026-01-04T15:38:29.849299,-9.695717,-0.866201,1.502692,-0.163711,-0.096516,-0.026878
2026-01-04T15:38:29.858299,-9.681360,-1.019342,1.507478,-0.079412,-0.089186,-0.031764
2026-01-04T15:38:29.868299,-9.676574,-0.794417,1.579262,0.014660,-0.079412,-0.035430
2026-01-04T15:38:29.878299,-9.757930,-0.521635,1.512263,0.052534,-0.079412,-0.030543
2026-01-04T15:38:29.887299,-9.719645,-0.291924,1.536192,0.039095,-0.080634,-0.034208
2026-01-04T15:38:29.897299,-9.633503,-0.138783,1.564905,-0.025656,-0.068416,-0.029321
2026-01-04T15:38:29.906299,-9.614361,-0.315852,1.588834,-0.134390,-0.034208,-0.023212
2026-01-04T15:38:29.916299,-9.753144,-0.641276,1.761117,-0.186924,-0.017104,-0.026878
2026-01-04T15:38:29.926299,-9.815358,-0.851844,1.526620,-0.164933,-0.031764,-0.024434
2026-01-04T15:38:29.935299,-9.901499,-0.937986,1.507478,-0.135612,-0.051312,-0.036651
2026-01-04T15:38:29.945299,-9.844072,-0.947557,1.454836,-0.079412,-0.063529,-0.037873
2026-01-04T15:38:29.954299,-9.686145,-0.813559,1.598405,-0.041538,-0.074525,-0.039095
2026-01-04T15:38:29.964299,-9.590432,-0.693918,1.454836,-0.013439,-0.065973,-0.037873
2026-01-04T15:38:29.974299,-9.604789,-0.473778,1.440479,0.003665,-0.031764,-0.036651
2026-01-04T15:38:29.983299,-9.695717,-0.373280,1.550549,-0.067195,-0.001221,-0.039095
2026-01-04T15:38:29.993299,-9.791430,-0.526420,1.765903,-0.128281,0.000000,-0.037873
2026-01-04T15:38:30.003299,-9.724431,-0.574277,1.560120,-0.151494,-0.008552,-0.036651
2026-01-04T15:38:30.012299,-9.667003,-0.617348,1.488335,-0.193033,-0.003665,-0.047647
2026-01-04T15:38:30.022299,-9.690931,-0.689132,1.263410,-0.238237,0.004886,-0.072082
2026-01-04T15:38:30.031299,-9.695717,-0.717846,1.646261,-0.270002,0.010995,-0.101403
2026-01-04T15:38:30.041299,-9.705288,-0.756131,1.646261,-0.302989,0.015882,-0.119729
2026-01-04T15:38:30.051299,-9.743573,-0.669990,1.526620,-0.290771,0.023212,-0.153938
2026-01-04T15:38:30.060299,-9.834500,-0.488135,1.138983,-0.312762,0.026878,-0.190589
2026-01-04T15:38:30.070299,-9.762716,-0.157926,1.354337,-0.410501,0.012217,-0.222354
2026-01-04T15:38:30.079299,-9.489934,-0.133998,1.464407,-0.568104,-0.007330,-0.243124
2026-01-04T15:38:30.089299,-9.212367,-0.234496,1.115055,-0.759916,0.028099,-0.249232
2026-01-04T15:38:30.099299,-9.274580,-0.574277,1.473978,-0.895528,0.102625,-0.256563
2026-01-04T15:38:30.108299,-9.327222,-1.009771,1.493121,-0.976162,0.149051,-0.217467
2026-01-04T15:38:30.118299,-9.734002,-1.512263,1.191625,-0.927293,0.191811,-0.162490
2026-01-04T15:38:30.128299,-10.150353,-1.655833,1.569691,-0.690277,0.226020,-0.094073
2026-01-04T15:38:30.137299,-10.356136,-1.584048,1.785045,-0.463035,0.174707,-0.019547
2026-01-04T15:38:30.147299,-10.088140,-1.411765,1.363908,-0.280997,0.079412,0.028099
2026-01-04T15:38:30.156299,-9.513862,-1.043270,1.296909,-0.160046,0.012217,0.067195
2026-01-04T15:38:30.166299,-8.934799,-0.780060,1.545763,-0.152716,0.024434,0.108733
2026-01-04T15:38:30.176299,-8.843872,-0.698704,1.325623,-0.186924,0.105068,0.160046
2026-01-04T15:38:30.185299,-9.011369,-0.612562,1.277767,-0.233350,0.196698,0.195476
2026-01-04T15:38:30.195299,-9.231509,-0.713061,1.277767,-0.290771,0.227241,0.221133
2026-01-04T15:38:30.204299,-9.226723,-0.741775,1.110269,-0.337197,0.210137,0.260228
2026-01-04T15:38:30.214299,-9.107082,-0.870987,0.971485,-0.345749,0.200363,0.307876
2026-01-04T15:38:30.224299,-8.819944,-1.081555,1.167697,-0.306654,0.228463,0.360410
2026-01-04T15:38:30.233299,-8.690731,-1.153340,0.928415,-0.216246,0.296880,0.410501
2026-01-04T15:38:30.243299,-8.547162,-1.062413,0.808774,-0.091629,0.367740,0.452040
2026-01-04T15:38:30.253299,-8.537591,-0.717846,1.296909,-0.032986,0.443488,0.497244
2026-01-04T15:38:30.262299,-8.652446,-0.334995,1.162911,-0.028099,0.538783,0.527787
2026-01-04T15:38:30.272299,-8.796015,-0.009571,0.990628,-0.048869,0.594982,0.555887
2026-01-04T15:38:30.281299,-8.733802,0.153140,0.904486,-0.141720,0.599869,0.598647
2026-01-04T15:38:30.291299,-8.575876,0.229710,0.459421,-0.259006,0.605978,0.668286
2026-01-04T15:38:30.301299,-8.355736,0.224925,0.272781,-0.381179,0.645073,0.719599
2026-01-04T15:38:30.310299,-8.370093,-0.004785,0.928415,-0.513126,0.744033,0.744033
2026-01-04T15:38:30.320299,-8.695517,-0.220139,1.258624,-0.554665,0.851545,0.759916
2026-01-04T15:38:30.329299,-9.135796,-0.033499,0.641276,-0.502131,0.904080,0.806341
2026-01-04T15:38:30.339299,-9.556933,-0.043070,0.200997,-0.455705,0.878424,0.846659
2026-01-04T15:38:30.349299,-9.547362,-0.267996,0.866201,-0.416610,0.773355,0.871093
2026-01-04T15:38:30.358299,-9.202795,-0.358923,0.990628,-0.268780,0.659734,0.912632
2026-01-04T15:38:30.368299,-8.657232,-0.167497,0.971485,-0.098960,0.608421,0.963945
2026-01-04T15:38:30.378299,-8.193024,0.110069,0.540777,-0.009773,0.614530,1.005483
2026-01-04T15:38:30.387299,-8.197810,0.622133,-0.368494,0.069638,0.706160,1.023809
2026-01-04T15:38:30.397299,-8.690731,1.043270,-1.009771,0.015882,0.851545,0.977384
2026-01-04T15:38:30.406299,-9.092725,0.981057,-0.023928,-0.255341,0.922406,0.883310
2026-01-04T15:38:30.416299,-9.260223,0.483350,0.502492,-0.470366,0.860098,0.807563
2026-01-04T15:38:30.426299,-9.198010,0.167497,0.004785,-0.533896,0.733038,0.795346
2026-01-04T15:38:30.435299,-8.757730,-0.224925,0.076570,-0.543669,0.608421,0.761137
2026-01-04T15:38:30.445299,-8.221738,-0.358923,-0.062213,-0.421496,0.576656,0.763581
2026-01-04T15:38:30.454299,-7.915457,0.009571,-0.258424,-0.177150,0.693942,0.808785
2026-01-04T15:38:30.464299,-8.011170,0.598205,0.095712,-0.037873,0.871093,0.833220
2026-01-04T15:38:30.474299,-8.331808,0.985842,0.162711,0.017104,0.976162,0.884532
2026-01-04T15:38:30.483299,-8.882157,1.770688,-1.095912,0.119729,1.014036,0.926071
2026-01-04T15:38:30.493299,-9.475577,2.210968,-1.780260,0.043982,1.059240,0.902858
2026-01-04T15:38:30.503299,-9.973284,1.799402,-1.019342,-0.266337,1.038470,0.796568
2026-01-04T15:38:30.512299,-9.930213,1.134197,-0.244067,-0.449596,0.884532,0.697607
2026-01-04T15:38:30.522299,-9.317651,0.727418,-0.296710,-0.488692,0.635299,0.656069
2026-01-04T15:38:30.531299,-8.307880,0.421136,-0.880558,-0.529009,0.455705,0.636521
2026-01-04T15:38:30.541299,-7.633104,0.301495,-1.119840,-0.460592,0.548556,0.608421
2026-01-04T15:38:30.551299,-7.609175,0.492921,-0.976271,-0.291993,0.831998,0.563217
2026-01-04T15:38:30.560299,-8.082954,1.028913,-0.985842,-0.201585,1.012814,0.561995
2026-01-04T15:38:30.570299,-8.685946,1.521835,-1.316052,-0.180816,1.066570,0.599869
2026-01-04T15:38:30.579299,-9.188438,1.966900,-1.354337,-0.162490,1.088561,0.632856
2026-01-04T15:38:30.589299,-9.576076,2.153540,-0.923629,-0.211359,1.073900,0.641408
2026-01-04T15:38:30.599299,-9.858429,2.120040,-1.622333,-0.252898,0.998153,0.658512
2026-01-04T15:38:30.608299,-10.045069,2.038684,-2.187039,-0.261450,0.880867,0.663399
2026-01-04T15:38:30.618299,-9.896714,1.770688,-1.569691,-0.323758,0.719599,0.618195
2026-01-04T15:38:30.628299,-9.384650,1.406979,-1.320838,-0.345749,0.574213,0.594982
2026-01-04T15:38:30.637299,-8.843872,1.253839,-1.445264,-0.277332,0.496022,0.599869
2026-01-04T15:38:30.647299,-8.379664,1.411765,-1.119840,-0.248011,0.514348,0.581543
2026-01-04T15:38:30.656299,-8.542376,1.464407,-1.292124,-0.189368,0.680503,0.582765
2026-01-04T15:38:30.666299,-9.011369,1.703689,-1.607976,-0.073303,0.824667,0.586430
2026-01-04T15:38:30.676299,-9.384650,2.038684,-1.765903,-0.034208,0.757472,0.581543
2026-01-04T15:38:30.685299,-9.561719,2.201396,-1.775474,-0.065973,0.653625,0.614530
2026-01-04T15:38:30.695299,-9.667003,2.167897,-1.919043,-0.084299,0.596204,0.629191
2026-01-04T15:38:30.704299,-9.480363,2.239681,-1.804188,-0.065973,0.494800,0.607199
2026-01-04T15:38:30.714299,-9.121439,2.249253,-2.043470,-0.047647,0.365297,0.618195
2026-01-04T15:38:30.724299,-8.743373,2.297109,-2.239681,-0.048869,0.283441,0.647517
2026-01-04T15:38:30.733299,-8.561519,1.942971,-2.277967,-0.070860,0.322536,0.691499
2026-01-04T15:38:30.743299,-8.657232,1.837687,-2.177468,-0.023212,0.434935,0.811228
2026-01-04T15:38:30.753299,-9.131011,2.048256,-1.627119,0.002443,0.499687,1.001818
2026-01-04T15:38:30.762299,-9.370293,2.249253,-0.622133,-0.108733,0.564439,0.759916
2026-01-04T15:38:30.772299,-9.647860,2.574677,-2.378465,-0.087964,0.500909,0.641408
2026-01-04T15:38:30.781299,-9.643075,2.450250,-2.684746,-0.089186,0.379958,0.592539
2026-01-04T15:38:30.791299,-9.207581,2.325823,-2.512463,-0.145385,0.212581,0.529009
2026-01-04T15:38:30.801299,-8.743373,2.306680,-2.947957,-0.127059,0.125838,0.492357
2026-01-04T15:38:30.810299,-8.475377,2.526820,-3.144168,-0.063529,0.169820,0.431270
2026-01-04T15:38:30.820299,-8.518448,2.675175,-2.526820,-0.046425,0.263893,0.375071
2026-01-04T15:38:30.829299,-8.690731,2.804388,-2.048256,0.008552,0.276111,0.361632
2026-01-04T15:38:30.839299,-8.848657,3.115455,-1.828116,0.051312,0.270002,0.401949
2026-01-04T15:38:30.849299,-9.284151,3.215953,-1.818545,0.024434,0.365297,0.448374
2026-01-04T15:38:30.858299,-9.619146,3.211167,-2.593819,0.034208,0.425162,0.460592
2026-01-04T15:38:30.868299,-9.638289,3.273381,-3.369094,-0.014660,0.282219,0.458148
2026-01-04T15:38:30.878299,-9.102297,3.105883,-3.316452,-0.161268,0.078190,0.409279
2026-01-04T15:38:30.887299,-8.413164,2.790031,-3.000599,-0.218689,0.006108,0.348193
2026-01-04T15:38:30.897299,-8.111668,2.995813,-3.306880,-0.182037,0.097738,0.299323
2026-01-04T15:38:30.906299,-8.518448,3.148954,-3.407379,-0.177150,0.328645,0.254119
2026-01-04T15:38:30.916299,-9.169296,2.962314,-2.488535,-0.190589,0.492357,0.234572
2026-01-04T15:38:30.926299,-9.748359,2.967100,-2.392822,-0.084299,0.409279,0.262671
2026-01-04T15:38:30.935299,-9.896714,3.158525,-2.105683,0.068416,0.257785,0.320093
2026-01-04T15:38:30.945299,-9.743573,3.278166,-2.617747,0.164933,0.146607,0.343306
2026-01-04T15:38:30.954299,-9.509077,3.603590,-3.019742,0.211359,0.095294,0.353080
2026-01-04T15:38:30.964299,-9.241080,3.976871,-3.172882,0.161268,0.090408,0.329867
2026-01-04T15:38:30.974299,-8.925228,4.120440,-3.029313,0.006108,0.063529,0.309097
2026-01-04T15:38:30.983299,-8.575876,3.952942,-3.014956,-0.185702,0.028099,0.294436
2026-01-04T15:38:30.993299,-8.494520,3.775874,-3.627519,-0.283441,0.081855,0.262671
2026-01-04T15:38:31.003299,-8.858229,3.589233,-3.436093,-0.338419,0.243124,0.215024
2026-01-04T15:38:31.012299,-9.561719,3.010170,-2.857030,-0.403170,0.338419,0.185702
2026-01-04T15:38:31.022299,-10.169496,2.531606,-2.201396,-0.276111,0.288328,0.188146
2026-01-04T15:38:31.031299,-10.360921,2.617747,-2.574677,0.025656,0.098960,0.217467
2026-01-04T15:38:31.041299,-9.944570,2.971885,-3.321237,0.204028,-0.113620,0.267558
2026-01-04T15:38:31.051299,-9.580861,3.359522,-2.947957,0.280997,-0.223576,0.226020
2026-01-04T15:38:31.060299,-9.288937,3.756731,-2.474178,0.322536,-0.241902,0.168598
2026-01-04T15:38:31.070299,-9.011369,4.220939,-3.038884,0.287106,-0.206472,0.173485
2026-01-04T15:38:31.079299,-8.910871,4.776073,-4.177868,0.183259,-0.177150,0.102625
2026-01-04T15:38:31.089299,-9.073583,4.804787,-3.747160,-0.045204,-0.101403,0.046425
2026-01-04T15:38:31.099299,-9.384650,4.173082,-3.115455,-0.346971,-0.024434,0.024434
2026-01-04T15:38:31.108299,-9.781858,3.230310,-3.412165,-0.379958,0.036651,0.031764
2026-01-04T15:38:31.118299,-10.193424,2.885744,-3.168097,-0.202807,0.007330,0.046425
2026-01-04T15:38:31.128299,-10.025926,2.603390,-2.866601,-0.040317,-0.140498,0.047647
2026-01-04T15:38:31.137299,-9.561719,2.703889,-2.545963,0.261450,-0.280997,0.059864
2026-01-04T15:38:31.147299,-9.135796,3.617947,-2.679961,0.572991,-0.268780,0.035430
2026-01-04T15:38:31.156299,-9.116654,4.555934,-3.421736,0.591317,-0.123394,0.034208
2026-01-04T15:38:31.166299,-9.456434,5.235495,-4.039084,0.365297,-0.034208,0.015882
2026-01-04T15:38:31.176299,-9.801001,5.335994,-4.063012,0.072082,-0.024434,0.002443
2026-01-04T15:38:31.185299,-9.891928,4.819144,-2.967100,-0.279776,-0.102625,-0.001221
2026-01-04T15:38:31.195299,-9.633503,3.780659,-3.182454,-0.480139,-0.199142,0.029321
2026-01-04T15:38:31.204299,-9.600004,3.196810,-3.436093,-0.372627,-0.175929,0.043982
2026-01-04T15:38:31.214299,-9.906285,3.014956,-2.646461,-0.233350,-0.129503,0.007330
2026-01-04T15:38:31.224299,-10.159924,2.914457,-2.636890,-0.059864,-0.174707,0.004886
2026-01-04T15:38:31.233299,-10.236495,3.364308,-2.770888,0.185702,-0.298102,0.002443
2026-01-04T15:38:31.243299,-9.911071,4.024727,-2.450250,0.239459,-0.449596,-0.020769
2026-01-04T15:38:31.253299,-9.509077,4.402793,-2.732603,0.232128,-0.521678,-0.017104
2026-01-04T15:38:31.262299,-9.504291,4.895715,-3.110669,0.228463,-0.467922,0.018325
2026-01-04T15:38:31.272299,-9.805787,4.867001,-2.861815,0.012217,-0.365297,0.042760
2026-01-04T15:38:31.281299,-10.126425,4.058227,-2.790031,-0.134390,-0.339641,0.094073
2026-01-04T15:38:31.291299,-10.030712,3.665804,-2.981456,-0.074525,-0.412944,0.150272
2026-01-04T15:38:31.301299,-9.590432,3.464807,-3.177668,-0.031764,-0.525343,0.185702
2026-01-04T15:38:31.310299,-8.925228,3.412165,-3.565305,0.025656,-0.575434,0.201585
2026-01-04T15:38:31.320299,-8.647660,3.622733,-3.168097,0.109955,-0.452040,0.139277
2026-01-04T15:38:31.329299,-8.695517,3.876372,-3.302095,0.097738,-0.288328,0.075747
2026-01-04T15:38:31.339299,-9.044869,4.259224,-4.465006,0.030543,-0.201585,0.023212
2026-01-04T15:38:31.349299,-10.226923,4.689932,-6.034698,0.058643,0.056199,-0.101403
2026-01-04T15:38:31.358299,-13.088739,5.503491,-4.455435,0.054977,0.632856,-0.175929
2026-01-04T15:38:31.368299,-16.065411,5.412564,-0.880558,0.111177,0.941954,-0.163711
2026-01-04T15:38:31.378299,-16.103697,4.953142,-1.459621,0.012217,0.111177,0.232128
2026-01-04T15:38:31.387299,-12.552747,3.991228,-3.177668,-0.145385,-1.106887,0.426383
2026-01-04T15:38:31.397299,-8.384450,3.330809,-4.584648,0.017104,-1.536936,0.505796
2026-01-04T15:38:31.406299,-6.197410,4.206582,-2.359323,0.318871,-1.180191,0.475253
2026-01-04T15:38:31.416299,-5.948556,4.192225,1.086341,0.320093,-0.474031,0.340862
2026-01-04T15:38:31.426299,-7.341179,4.354937,-3.479164,0.383623,-0.004886,0.529009
2026-01-04T15:38:31.435299,-9.518648,4.144368,-4.254438,0.411723,0.412944,0.588873
2026-01-04T15:38:31.445299,-11.121839,3.369094,-1.387837,0.238237,0.138055,0.459370
2026-01-04T15:38:31.454299,-11.270194,3.225524,-0.933200,0.478918,-0.467922,0.482583
2026-01-04T15:38:31.464299,-10.872985,3.909872,-3.268595,0.714712,-0.558330,0.619417
2026-01-04T15:38:31.474299,-10.112068,4.575076,-5.776273,0.533896,-0.739146,0.602312
2026-01-04T15:38:31.483299,-9.346365,4.852644,-3.053241,0.306654,-0.926071,0.459370
2026-01-04T15:38:31.493299,-8.934799,4.584648,-1.043270,0.205250,-0.670729,0.478918
2026-01-04T15:38:31.503299,-9.154939,4.584648,-3.455235,0.210137,-0.405614,0.598647
2026-01-04T15:38:31.512299,-9.585647,4.354937,-3.426521,0.109955,-0.309097,0.532674
2026-01-04T15:38:31.522299,-9.820143,4.216153,-1.852044,0.136833,-0.311541,0.427605
2026-01-04T15:38:31.531299,-10.293922,4.699503,-3.096312,0.317649,-0.193033,0.455705
2026-01-04T15:38:31.541299,-10.834700,5.149354,-3.761517,0.271224,-0.095294,0.419053
2026-01-04T15:38:31.551299,-10.748559,5.211567,-2.507678,0.177150,-0.293215,0.326201
2026-01-04T15:38:31.560299,-10.078568,5.201996,-2.842673,0.100181,-0.433714,0.339641
2026-01-04T15:38:31.570299,-9.628718,5.096712,-3.838087,0.035430,-0.360410,0.304210
2026-01-04T15:38:31.579299,-9.748359,4.986642,-2.694318,-0.021991,-0.191811,0.169820
2026-01-04T15:38:31.589299,-10.049854,4.694717,-2.373680,-0.069638,-0.116064,0.172263
2026-01-04T15:38:31.599299,-10.155139,4.508077,-2.445464,-0.052534,-0.152716,0.156381
2026-01-04T15:38:31.608299,-10.049854,4.412364,-2.402393,0.019547,-0.131946,0.160046
2026-01-04T15:38:31.618299,-10.107282,4.493720,-2.378465,0.113620,-0.173485,0.166155
2026-01-04T15:38:31.628299,-10.016355,4.948357,-1.507478,0.256563,-0.239459,0.120951
2026-01-04T15:38:31.637299,-10.021141,5.393422,-1.737189,0.299323,-0.200363,0.135612
2026-01-04T15:38:31.647299,-10.169496,5.393422,-2.737389,0.175929,-0.193033,0.162490
2026-01-04T15:38:31.656299,-10.375278,5.082355,-2.660818,-0.019547,-0.282219,0.117286
2026-01-04T15:38:31.666299,-10.370493,4.666004,-1.880758,-0.091629,-0.364075,0.080634
2026-01-04T15:38:31.676299,-10.255637,4.039084,-2.478964,-0.086742,-0.389731,0.081855
2026-01-04T15:38:31.685299,-9.997212,3.785445,-2.100898,0.037873,-0.485026,0.035430
2026-01-04T15:38:31.695299,-9.461220,3.862015,-1.794616,0.188146,-0.599869,0.006108
2026-01-04T15:38:31.704299,-9.198010,4.201796,-2.244467,0.356745,-0.561995,0.004886
2026-01-04T15:38:31.714299,-9.432506,4.823930,-1.564905,0.471587,-0.497244,-0.028099
2026-01-04T15:38:31.724299,-9.863214,4.967499,-1.517049,0.390953,-0.485026,-0.004886
2026-01-04T15:38:31.733299,-10.131210,4.957928,-2.062613,0.351858,-0.537561,-0.010995
2026-01-04T15:38:31.743299,-10.131210,4.862215,-2.498106,0.255341,-0.641408,-0.026878
2026-01-04T15:38:31.753299,-9.844072,4.570291,-2.201396,0.131946,-0.741590,-0.095294
2026-01-04T15:38:31.762299,-9.422935,4.297509,-2.139183,0.138055,-0.784350,-0.131946
2026-01-04T15:38:31.772299,-9.102297,4.211367,-2.072184,0.142942,-0.759916,-0.180816
2026-01-04T15:38:31.781299,-8.973084,4.019941,-1.756331,0.167377,-0.669508,-0.234572
2026-01-04T15:38:31.791299,-9.164510,4.096512,-1.574477,0.222354,-0.579100,-0.265115
2026-01-04T15:38:31.801299,-9.466006,3.909872,-1.904686,0.199142,-0.518013,-0.291993
2026-01-04T15:38:31.810299,-9.767501,3.680161,-1.201196,0.262671,-0.566882,-0.354301
2026-01-04T15:38:31.820299,-9.595218,3.924229,-1.339980,0.382401,-0.707381,-0.389731
2026-01-04T15:38:31.829299,-9.288937,4.249652,-1.684547,0.409279,-0.742811,-0.409279
2026-01-04T15:38:31.839299,-9.064012,4.345365,-1.555334,0.353080,-0.671951,-0.454483
2026-01-04T15:38:31.849299,-9.111868,4.393222,-1.856830,0.304210,-0.577878,-0.480139
2026-01-04T15:38:31.858299,-9.384650,4.254438,-0.995414,0.118507,-0.563217,-0.509461
2026-01-04T15:38:31.868299,-9.351150,3.689732,-0.808774,0.015882,-0.636521,-0.565661
2026-01-04T15:38:31.878299,-9.284151,3.507877,-0.703489,0.106290,-0.671951,-0.583987
2026-01-04T15:38:31.887299,-9.317651,3.412165,-0.784845,0.106290,-0.679282,-0.634077
2026-01-04T15:38:31.897299,-9.504291,3.287738,-0.665204,0.191811,-0.662177,-0.668286
2026-01-04T15:38:31.906299,-9.556933,3.503092,-0.617348,0.296880,-0.719599,-0.685390
2026-01-04T15:38:31.916299,-9.375078,3.775874,-1.004985,0.316428,-0.797789,-0.696386
2026-01-04T15:38:31.926299,-9.269794,3.933800,-1.301695,0.322536,-0.812450,-0.706160
2026-01-04T15:38:31.935299,-9.260223,3.838087,-1.229910,0.141720,-0.789237,-0.729372
2026-01-04T15:38:31.945299,-9.236295,3.359522,-0.148355,0.007330,-0.762359,-0.784350
2026-01-04T15:38:31.954299,-8.968299,3.043670,0.334995,0.046425,-0.788015,-0.810007
2026-01-04T15:38:31.964299,-8.729016,2.813959,-1.287338,0.004886,-0.814894,-0.790459
2026-01-04T15:38:31.974299,-9.035298,2.306680,-0.679561,-0.095294,-0.766024,-0.855211
2026-01-04T15:38:31.983299,-9.269794,1.933400,1.052841,0.031764,-0.813672,-0.961501
2026-01-04T15:38:31.993299,-9.193224,2.368894,0.535992,0.322536,-0.941954,-0.926071
2026-01-04T15:38:32.003299,-9.231509,2.761317,-0.598205,0.361632,-0.957836,-0.906523
2026-01-04T15:38:32.012299,-9.384650,2.842673,-0.416351,0.357966,-0.923628,-0.954171
2026-01-04T15:38:32.022299,-9.097511,3.364308,0.382851,0.414166,-1.016479,-0.984714
2026-01-04T15:38:32.031299,-8.575876,3.555734,-0.464207,0.210137,-1.077566,-0.971275
2026-01-04T15:38:32.041299,-8.231309,2.900100,-1.110269,-0.134390,-0.992044,-1.031140
2026-01-04T15:38:32.051299,-8.327022,2.024327,-0.153140,-0.324980,-0.858876,-1.183856
2026-01-04T15:38:32.060299,-8.566304,1.105484,1.622333,-0.423940,-0.783129,-1.265712
2026-01-04T15:38:32.070299,-8.676374,0.382851,1.986042,-0.326201,-0.800233,-1.271821
2026-01-04T15:38:32.079299,-8.618947,0.770488,0.780060,0.053756,-0.878424,-1.265712
2026-01-04T15:38:32.089299,-8.762516,1.770688,0.076570,0.316428,-0.918741,-1.249830
2026-01-04T15:38:32.099299,-9.006584,2.297109,1.249053,0.291993,-0.943175,-1.270599
2026-01-04T15:38:32.108299,-9.116654,2.455035,0.617348,0.245567,-0.985936,-1.231504
2026-01-04T15:38:32.118299,-8.997012,2.407179,0.081355,0.043982,-1.098335,-1.248608
2026-01-04T15:38:32.128299,-8.379664,1.919043,0.229710,-0.178372,-1.244943,-1.325577
2026-01-04T15:38:32.137299,-7.762316,1.359123,1.464407,-0.263893,-1.241277,-1.368337
2026-01-04T15:38:32.147299,-7.398607,1.028913,1.593619,-0.315206,-1.142317,-1.397659
2026-01-04T15:38:32.156299,-7.479963,0.378065,1.244267,-0.386066,-1.031140,-1.392772
2026-01-04T15:38:32.166299,-7.886743,-0.167497,1.517049,-0.284663,-0.933401,-1.456302
2026-01-04T15:38:32.176299,-8.327022,0.210568,2.134397,-0.116064,-0.957836,-1.525941
2026-01-04T15:38:32.185299,-8.279166,1.215553,1.799402,0.034208,-1.084896,-1.486845
2026-01-04T15:38:32.195299,-7.762316,0.813559,1.713260,0.268780,-1.209512,-1.490510
2026-01-04T15:38:32.204299,-7.580461,1.574477,1.148554,0.395840,-1.303586,-1.418428
2026-01-04T15:38:32.214299,-5.785845,1.756331,1.732403,-0.087964,-1.282816,-1.332907
2026-01-04T15:38:32.224299,-5.599204,2.196611,1.196411,-0.568104,-1.119104,-1.227838
2026-01-04T15:38:32.233299,-5.340780,0.823130,0.976271,-0.930958,-0.814894,-1.083674
2026-01-04T15:38:32.243299,-5.728417,-0.339780,0.473778,-1.205847,-0.515570,-0.990823
2026-01-04T15:38:32.253299,-8.231309,-3.168097,1.301695,-1.153313,-0.223576,-1.241277
2026-01-04T15:38:32.262299,-7.125825,-2.421536,1.780260,-0.337197,-0.133168,-1.038470
2026-01-04T15:38:32.272299,-8.226524,-0.296710,1.765903,0.042760,-0.189368,-0.706160
2026-01-04T15:38:32.281299,-8.403592,0.693918,0.526420,0.251676,-0.278554,-0.587652
2026-01-04T15:38:32.291299,-8.149953,1.904686,0.516849,0.284663,-0.346971,-0.496022
2026-01-04T15:38:32.301299,-7.633104,1.564905,1.584048,-0.056199,-0.355523,-0.299323
2026-01-04T15:38:32.310299,-7.259823,1.354337,1.344766,-0.328645,-0.252898,0.072082
2026-01-04T15:38:32.320299,-6.393621,1.574477,1.105484,-0.579100,0.074525,0.167377
2026-01-04T15:38:32.329299,-7.211967,0.780060,1.694118,-0.618195,0.138055,0.098960
2026-01-04T15:38:32.339299,-7.436892,0.526420,1.622333,-0.586430,0.175929,0.171042
2026-01-04T15:38:32.349299,-8.968299,-2.258824,-3.842873,-0.504574,0.322536,0.285884
2026-01-04T15:38:32.358299,-7.881957,-0.732203,2.206182,-0.240680,0.360410,0.450818
2026-01-04T15:38:32.368299,-8.446663,-0.545563,1.612762,-0.062308,0.386066,0.527787
2026-01-04T15:38:32.378299,-8.518448,-0.311066,1.574477,0.019547,0.379958,0.536339
2026-01-04T15:38:32.387299,-8.547162,0.071784,1.751546,-0.013439,0.343306,0.533896
2026-01-04T15:38:32.397299,-8.365307,0.325423,1.507478,-0.100181,0.342084,0.526565
2026-01-04T15:38:32.406299,-8.475377,0.435493,0.961914,-0.189368,0.420275,0.526565
2026-01-04T15:38:32.416299,-8.819944,0.392422,0.880558,-0.276111,0.520457,0.564439
2026-01-04T15:38:32.426299,-9.078368,0.200997,1.804188,-0.304210,0.559552,0.637743
2026-01-04T15:38:32.435299,-9.169296,0.004785,2.029113,-0.234572,0.486248,0.761137
2026-01-04T15:38:32.445299,-8.886943,-0.167497,1.852044,-0.130725,0.322536,0.896749
2026-01-04T15:38:32.454299,-8.307880,-0.229710,2.354537,-0.041538,0.217467,0.973718
2026-01-04T15:38:32.464299,-7.925028,0.071784,2.665604,0.047647,0.268780,0.992044
2026-01-04T15:38:32.474299,-8.059026,0.655633,2.215753,0.107512,0.425162,0.977384
2026-01-04T15:38:32.483299,-9.375078,1.392622,-1.148554,-0.017104,0.660956,0.926071
2026-01-04T15:38:32.493299,-9.700502,1.067198,0.497707,-0.195476,0.698829,0.886976
2026-01-04T15:38:32.503299,-9.494720,0.492921,0.722632,-0.398284,0.583987,0.863763
2026-01-04T15:38:32.512299,-8.843872,-0.052642,0.679561,-0.417831,0.412944,0.883310
2026-01-04T15:38:32.522299,-7.872386,0.038285,0.689132,-0.293215,0.321315,0.945619
2026-01-04T15:38:32.531299,-7.082754,0.425922,0.971485,-0.230907,0.423940,1.023809
2026-01-04T15:38:32.541299,-7.269395,0.823130,1.402194,-0.188146,0.757472,1.048244
2026-01-04T15:38:32.551299,-8.236095,0.851844,1.598405,-0.157603,1.126435,1.000597
2026-01-04T15:38:32.560299,-9.566504,0.799202,1.938186,-0.158824,1.255938,0.932180
2026-01-04T15:38:32.570299,-10.250852,0.708275,1.904686,-0.145385,1.092226,0.868650
2026-01-04T15:38:32.579299,-9.944570,1.028913,0.976271,-0.086742,0.767246,0.834441
2026-01-04T15:38:32.589299,-9.111868,1.607976,-0.138783,-0.103847,0.492357,0.812450
2026-01-04T15:38:32.599299,-8.159525,1.952543,-0.488135,-0.232128,0.467922,0.795346
2026-01-04T15:38:32.608299,-7.709674,1.947757,-0.200997,-0.393397,0.660956,0.779463
2026-01-04T15:38:32.618299,-7.805387,1.823330,0.038285,-0.553443,0.923628,0.818559
2026-01-04T15:38:32.628299,-8.489734,1.540977,0.397208,-0.665842,1.134987,0.867428
2026-01-04T15:38:32.637299,-9.442077,1.330409,0.832702,-0.598647,1.274264,0.860098
2026-01-04T15:38:32.647299,-10.571490,0.861416,0.799202,-0.423940,1.339016,0.805120
2026-01-04T15:38:32.656299,-11.131410,0.684347,0.387637,-0.249232,1.123991,0.746477
2026-01-04T15:38:32.666299,-10.447063,0.890130,0.406779,-0.103847,0.726929,0.669508
2026-01-04T15:38:32.676299,-9.241080,1.316052,-0.129212,-0.064751,0.454483,0.612086
2026-01-04T15:38:32.685299,-8.097311,1.670190,-0.421136,-0.109955,0.416610,0.554665
2026-01-04T15:38:32.695299,-7.355536,1.919043,-0.315852,-0.177150,0.580321,0.505796
2026-01-04T15:38:32.704299,-7.326822,2.201396,-0.387637,-0.239459,0.853989,0.510683
2026-01-04T15:38:32.714299,-7.958527,2.110469,-0.425922,-0.316428,1.112996,0.576656
2026-01-04T15:38:32.724299,-8.925228,2.072184,-0.315852,-0.377514,1.258382,0.744033
2026-01-04T15:38:32.733299,-10.040283,2.354537,0.090927,-0.395840,1.353677,0.671951
2026-01-04T15:38:32.743299,-10.944770,1.871187,-0.181854,-0.382401,1.315803,0.627969
2026-01-04T15:38:32.753299,-11.198409,1.564905,-0.167497,-0.274889,1.010370,0.603534
2026-01-04T15:38:32.762299,-10.427920,1.598405,-0.066999,-0.118507,0.616973,0.558330
2026-01-04T15:38:32.772299,-9.236295,1.861615,0.129212,-0.065973,0.392175,0.549778
2026-01-04T15:38:32.781299,-8.312665,2.048256,-0.334995,-0.062308,0.406836,0.531452
2026-01-04T15:38:32.791299,-7.834101,2.182254,-0.842273,-0.057421,0.538783,0.526565
2026-01-04T15:38:32.801299,-7.810172,2.517249,-0.689132,-0.105068,0.675616,0.514348
2026-01-04T15:38:32.810299,-8.327022,2.713460,-0.985842,-0.138055,0.842993,0.526565
2026-01-04T15:38:32.820299,-9.446863,2.746960,-1.115055,-0.134390,1.033583,0.541226
2026-01-04T15:38:32.829299,-10.576275,2.675175,-1.316052,-0.124616,1.037248,0.533896
2026-01-04T15:38:32.839299,-11.054840,2.450250,-1.028913,-0.112399,0.785572,0.535117
2026-01-04T15:38:32.849299,-10.724630,2.000399,-0.746560,-0.075747,0.456927,0.530230
2026-01-04T15:38:32.858299,-9.762716,1.938186,-0.425922,0.039095,0.190589,0.515570
2026-01-04T15:38:32.868299,-8.776873,2.282752,-0.200997,0.172263,0.079412,0.507018
2026-01-04T15:38:32.878299,-8.044669,2.713460,-0.555134,0.244346,0.144164,0.510683
2026-01-04T15:38:32.887299,-7.915457,3.148954,-1.129412,0.208915,0.302989,0.515570
2026-01-04T15:38:32.897299,-8.207381,3.503092,-1.641476,0.094073,0.458148,0.504574
2026-01-04T15:38:32.906299,-8.839086,3.608376,-1.852044,-0.029321,0.586430,0.502131
2026-01-04T15:38:32.916299,-9.638289,3.503092,-1.808973,-0.149051,0.626747,0.489913
2026-01-04T15:38:32.926299,-10.360921,3.182454,-1.986042,-0.175929,0.576656,0.454483
2026-01-04T15:38:32.935299,-10.777272,2.804388,-1.588834,-0.134390,0.471587,0.439822
2026-01-04T15:38:32.945299,-10.447063,2.311466,-0.856630,-0.112399,0.202807,0.455705
2026-01-04T15:38:32.954299,-9.269794,2.043470,-0.626919,-0.004886,-0.123394,0.472809
2026-01-04T15:38:32.964299,-8.240881,2.411965,-0.775274,0.194255,-0.201585,0.482583
2026-01-04T15:38:32.974299,-7.738388,3.010170,-1.344766,0.306654,-0.018325,0.487470
2026-01-04T15:38:32.983299,-7.905885,3.531806,-1.569691,0.259006,0.183259,0.488692
2026-01-04T15:38:32.993299,-8.374879,3.905086,-1.670190,0.149051,0.315206,0.450818
2026-01-04T15:38:33.003299,-9.442077,4.019941,-2.325823,0.035430,0.494800,0.420275
2026-01-04T15:38:33.012299,-10.571490,3.699303,-2.354537,-0.147829,0.612086,0.411723
2026-01-04T15:38:33.022299,-10.901699,3.067598,-2.397608,-0.268780,0.378736,0.373849
2026-01-04T15:38:33.031299,-10.346564,2.943171,-2.522035,-0.156381,0.009773,0.333532
2026-01-04T15:38:33.041299,-9.355936,3.038884,-1.823330,-0.037873,-0.145385,0.318871
2026-01-04T15:38:33.051299,-8.623732,3.196810,-1.292124,0.007330,-0.120951,0.295658
2026-01-04T15:38:33.060299,-8.355736,3.282952,-1.028913,0.091629,0.020769,0.278554
2026-01-04T15:38:33.070299,-8.590233,3.469592,-1.301695,0.149051,0.189368,0.277332
2026-01-04T15:38:33.079299,-8.882157,3.847658,-1.837687,0.117286,0.255341,0.276111
2026-01-04T15:38:33.089299,-9.379864,3.929014,-1.995614,0.012217,0.304210,0.237015
2026-01-04T15:38:33.099299,-9.896714,3.680161,-2.053041,-0.120951,0.367740,0.207694
2026-01-04T15:38:33.108299,-9.963713,3.598805,-3.220739,-0.171042,0.290771,0.186924
2026-01-04T15:38:33.118299,-9.757930,3.613162,-3.488735,-0.183259,0.146607,0.118507
2026-01-04T15:38:33.128299,-9.375078,3.498306,-2.129612,-0.244346,0.078190,0.045204
2026-01-04T15:38:33.137299,-8.810372,3.096312,-1.593619,-0.240680,0.063529,0.010995
2026-01-04T15:38:33.147299,-8.465806,3.072384,-1.770688,-0.141720,0.128281,-0.007330
2026-01-04T15:38:33.156299,-8.638089,3.503092,-1.861615,-0.036651,0.299323,-0.067195
2026-01-04T15:38:33.166299,-9.097511,3.828516,-1.938186,0.047647,0.456927,-0.094073
2026-01-04T15:38:33.176299,-9.667003,4.163511,-1.373480,0.023212,0.474031,-0.067195
2026-01-04T15:38:33.185299,-9.882357,3.991228,-1.880758,-0.098960,0.410501,-0.047647
2026-01-04T15:38:33.195299,-9.963713,3.823730,-3.010170,-0.199142,0.362853,-0.029321
2026-01-04T15:38:33.204299,-10.025926,3.771088,-3.201596,-0.208915,0.354301,-0.065973
2026-01-04T15:38:33.214299,-10.102497,3.704089,-2.421536,-0.182037,0.279776,-0.091629
2026-01-04T15:38:33.224299,-9.690931,3.397808,-1.813759,-0.169820,0.103847,-0.069638
2026-01-04T15:38:33.233299,-9.126225,3.354737,-1.962114,-0.058643,0.015882,-0.057421
2026-01-04T15:38:33.243299,-8.910871,3.689732,-1.947757,0.111177,0.087964,-0.064751
2026-01-04T15:38:33.253299,-9.087940,4.115654,-1.813759,0.125838,0.179594,-0.065973
2026-01-04T15:38:33.262299,-9.791430,4.273581,-1.330409,0.089186,0.246789,-0.062308
2026-01-04T15:38:33.272299,-10.351350,4.264009,-1.143769,0.048869,0.296880,-0.017104
2026-01-04T15:38:33.281299,-10.662417,4.144368,-2.263610,-0.069638,0.177150,0.046425
2026-01-04T15:38:33.291299,-10.523633,3.818944,-2.933600,-0.162490,-0.032986,0.052534
2026-01-04T15:38:33.301299,-10.102497,3.498306,-2.612962,-0.136833,-0.177150,0.037873
2026-01-04T15:38:33.310299,-9.456434,3.450450,-2.421536,-0.078190,-0.262671,0.032986
2026-01-04T15:38:33.320299,-9.040083,3.440878,-2.900100,-0.026878,-0.272445,0.029321
2026-01-04T15:38:33.329299,-9.097511,3.622733,-2.742174,0.053756,-0.138055,0.001221
2026-01-04T15:38:33.339299,-9.413364,3.929014,-2.148754,0.058643,-0.021991,-0.020769
2026-01-04T15:38:33.349299,-9.824929,4.063012,-1.990828,0.070860,-0.036651,0.002443
2026-01-04T15:38:33.358299,-10.269994,4.244867,-1.986042,0.118507,-0.010995,0.045204
2026-01-04T15:38:33.368299,-10.834700,4.273581,-2.445464,0.080634,0.025656,0.069638
2026-01-04T15:38:33.378299,-11.308479,3.890729,-2.124826,0.025656,-0.006108,0.092851
2026-01-04T15:38:33.387299,-11.260623,3.613162,-2.019542,0.128281,-0.139277,0.111177
2026-01-04T15:38:33.397299,-10.619346,3.919443,-3.235096,0.261450,-0.357966,0.174707
2026-01-04T15:38:33.406299,-9.609575,4.278366,-4.168296,0.252898,-0.536339,0.174707
2026-01-04T15:38:33.416299,-8.934799,4.393222,-3.436093,0.094073,-0.447153,0.089186
2026-01-04T15:38:33.426299,-9.590432,5.139782,-4.900500,0.114842,-0.068416,-0.012217
2026-01-04T15:38:33.435299,-12.658031,6.546762,-8.327022,0.283441,0.708603,-0.112399
2026-01-04T15:38:33.445299,-17.769100,7.164110,-4.465006,0.112399,1.379333,-0.260228
2026-01-04T15:38:33.454299,-19.166510,4.838287,-0.220139,-0.471587,0.734259,-0.002443
2026-01-04T15:38:33.464299,-14.548361,2.656033,-0.976271,-0.459370,-1.254716,0.257785
2026-01-04T15:38:33.474299,-8.097311,1.981257,-3.163311,-0.197920,-2.225992,0.439822
2026-01-04T15:38:33.483299,-4.264009,2.957528,-3.981656,0.285884,-1.802052,0.350636
2026-01-04T15:38:33.493299,-3.718446,4.240081,0.153140,0.684168,-0.312762,0.050090
2026-01-04T15:38:33.503299,-7.302894,5.134997,-1.143769,0.585208,1.111774,0.163711
2026-01-04T15:38:33.512299,-11.337193,5.584847,-2.823530,0.331088,1.257160,0.156381
2026-01-04T15:38:33.522299,-13.342378,5.211567,-2.766102,-0.084299,0.582765,0.158824
2026-01-04T15:38:33.531299,-12.653245,4.240081,-2.431107,-0.339641,-0.296880,0.259006
2026-01-04T15:38:33.541299,-10.729416,3.651447,-2.297109,-0.234572,-0.678060,0.188146
2026-01-04T15:38:33.551299,-9.623932,3.603590,-2.924029,-0.064751,-0.441044,0.178372
2026-01-04T15:38:33.560299,-9.346365,3.608376,-2.627319,0.032986,-0.174707,0.149051
2026-01-04T15:38:33.570299,-9.370293,3.747160,-3.488735,0.116064,-0.212581,0.213802
2026-01-04T15:38:33.579299,-9.772287,4.091726,-2.536391,0.160046,-0.135612,0.234572
2026-01-04T15:38:33.589299,-10.279565,4.082155,-1.143769,0.245567,0.020769,0.238237
2026-01-04T15:38:33.599299,-10.317851,4.479363,-0.961914,0.296880,-0.183259,0.309097
2026-01-04T15:38:33.608299,-9.868000,5.020141,-3.632304,0.331088,-0.337197,0.291993
2026-01-04T15:38:33.618299,-10.188638,5.173282,-3.067598,0.169820,-0.025656,0.267558
2026-01-04T15:38:33.628299,-10.581061,4.800002,-3.077169,0.004886,-0.041538,0.189368
2026-01-04T15:38:33.637299,-10.461420,4.307080,-1.751546,-0.065973,-0.138055,0.172263
2026-01-04T15:38:33.647299,-10.504491,3.866801,-2.498106,-0.039095,-0.061086,0.211359
2026-01-04T15:38:33.656299,-10.169496,3.833301,-2.794816,0.084299,-0.179594,0.186924
2026-01-04T15:38:33.666299,-9.772287,4.072584,-2.220539,0.145385,-0.309097,0.180816
2026-01-04T15:38:33.676299,-10.001998,4.182653,-1.995614,0.179594,-0.151494,0.191811
2026-01-04T15:38:33.685299,-10.585847,4.421936,-2.450250,0.232128,-0.021991,0.222354
2026-01-04T15:38:33.695299,-10.930413,4.331008,-1.904686,0.172263,-0.131946,0.221133
2026-01-04T15:38:33.704299,-10.365707,3.900300,-2.105683,0.063529,-0.421496,0.248011
2026-01-04T15:38:33.714299,-9.298508,3.809373,-1.770688,0.155159,-0.630412,0.183259
2026-01-04T15:38:33.724299,-8.652446,4.110869,-1.416550,0.232128,-0.531452,0.100181
2026-01-04T15:38:33.733299,-8.930013,4.254438,-2.474178,0.263893,-0.248011,0.064751
2026-01-04T15:38:33.743299,-9.714859,4.656432,-2.536391,0.252898,-0.149051,0.030543
2026-01-04T15:38:33.753299,-10.260423,4.675575,-2.024327,0.160046,-0.268780,0.029321
2026-01-04T15:38:33.762299,-10.313065,4.359722,-1.871187,0.085521,-0.377514,0.063529
2026-01-04T15:38:33.772299,-10.064211,3.933800,-1.593619,0.075747,-0.420275,0.076969
2026-01-04T15:38:33.781299,-9.499505,3.680161,-1.995614,0.085521,-0.525343,0.086742
2026-01-04T15:38:33.791299,-8.982656,3.546163,-2.239681,0.139277,-0.549778,0.018325
2026-01-04T15:38:33.801299,-8.843872,3.718446,-1.785045,0.205250,-0.428827,-0.039095
2026-01-04T15:38:33.810299,-8.992227,3.924229,-1.952543,0.256563,-0.375071,-0.075747
2026-01-04T15:38:33.820299,-9.202795,4.082155,-1.674975,0.256563,-0.354301,-0.130725
2026-01-04T15:38:33.829299,-9.303294,4.240081,-1.383051,0.272445,-0.322536,-0.174707
2026-01-04T15:38:33.839299,-9.518648,4.503292,-2.120040,0.293215,-0.294436,-0.160046
2026-01-04T15:38:33.849299,-9.753144,4.426721,-2.115255,0.155159,-0.288328,-0.175929
2026-01-04T15:38:33.858299,-10.006784,3.847658,-1.631905,0.025656,-0.274889,-0.212581
2026-01-04T15:38:33.868299,-10.092925,3.450450,-1.507478,0.058643,-0.356745,-0.200363
2026-01-04T15:38:33.878299,-9.667003,3.225524,-1.459621,0.133168,-0.548556,-0.222354
2026-01-04T15:38:33.887299,-9.226723,3.460021,-1.679761,0.282219,-0.608421,-0.248011
2026-01-04T15:38:33.897299,-9.107082,3.761517,-1.641476,0.390953,-0.526565,-0.270002
2026-01-04T15:38:33.906299,-9.174081,4.077369,-1.349551,0.350636,-0.488692,-0.302989
2026-01-04T15:38:33.916299,-9.332008,4.153940,-1.526620,0.311541,-0.481361,-0.313984
2026-01-04T15:38:33.926299,-9.537790,4.201796,-1.148554,0.230907,-0.472809,-0.328645
2026-01-04T15:38:33.935299,-9.461220,3.895515,-0.851844,0.156381,-0.509461,-0.373849
2026-01-04T15:38:33.945299,-9.298508,3.747160,-1.086341,0.130725,-0.554665,-0.377514
2026-01-04T15:38:33.954299,-9.284151,3.383451,-1.421336,0.074525,-0.548556,-0.415388
2026-01-04T15:38:33.964299,-9.595218,3.134597,-1.186840,0.111177,-0.535117,-0.471587
2026-01-04T15:38:33.974299,-9.815358,3.034099,-1.033699,0.169820,-0.565661,-0.491135
2026-01-04T15:38:33.983299,-9.729216,3.129811,-1.258624,0.202807,-0.695164,-0.505796
2026-01-04T15:38:33.993299,-9.370293,3.249453,-1.296909,0.271224,-0.792902,-0.531452
2026-01-04T15:38:34.003299,-9.231509,3.565305,-0.995414,0.298102,-0.753807,-0.552222
2026-01-04T15:38:34.012299,-9.394221,3.522234,-0.119641,0.232128,-0.667064,-0.603534
2026-01-04T15:38:34.022299,-9.456434,3.268595,-0.378065,0.182037,-0.646295,-0.607199
2026-01-04T15:38:34.031299,-9.198010,3.043670,-1.124626,0.098960,-0.756251,-0.604756
2026-01-04T15:38:34.041299,-8.953942,2.627319,-1.095912,0.013439,-0.822224,-0.656069
2026-01-04T15:38:34.051299,-8.934799,2.230110,-0.387637,0.008552,-0.728151,-0.726929
2026-01-04T15:38:34.060299,-9.049655,2.105683,-0.875773,0.090408,-0.680503,-0.772133
2026-01-04T15:38:34.070299,-8.973084,2.225325,-1.062413,0.177150,-0.772133,-0.802676
2026-01-04T15:38:34.079299,-8.872586,2.455035,0.172283,0.252898,-0.791681,-0.860098
2026-01-04T15:38:34.089299,-8.987441,2.919243,0.133998,0.395840,-0.724486,-0.867428
2026-01-04T15:38:34.099299,-9.284151,3.373879,0.411565,0.357966,-0.691499,-0.844215
2026-01-04T15:38:34.108299,-9.451649,3.220739,-0.205782,0.163711,-0.752585,-0.823446
2026-01-04T15:38:34.118299,-9.418149,2.818745,-0.569491,0.068416,-0.805120,-0.835663
2026-01-04T15:38:34.128299,-9.044869,2.210968,0.062213,-0.054977,-0.904080,-0.896749
2026-01-04T15:38:34.137299,-8.542376,1.574477,-0.684347,-0.171042,-0.978605,-0.921184
2026-01-04T15:38:34.147299,-8.183453,1.282552,-0.555134,-0.145385,-0.926071,-1.017701
2026-01-04T15:38:34.156299,-8.322237,1.277767,0.258424,-0.068416,-0.810007,-1.102000
2026-01-04T15:38:34.166299,-8.724231,1.531406,0.698704,0.028099,-0.734259,-1.132543
2026-01-04T15:38:34.176299,-9.504291,1.875972,-0.148355,0.155159,-0.682947,-1.119104
2026-01-04T15:38:34.185299,-10.169496,2.029113,0.655633,0.213802,-0.762359,-1.128878
2026-01-04T15:38:34.195299,-10.150353,1.856830,1.354337,0.211359,-1.018923,-1.119104
2026-01-04T15:38:34.204299,-9.571290,1.703689,1.119840,0.228463,-1.251051,-1.115439
2026-01-04T15:38:34.214299,-8.805587,1.703689,1.119840,0.186924,-1.345124,-1.165530
2026-01-04T15:38:34.224299,-8.269594,1.641476,0.416351,0.085521,-1.331685,-1.242499
2026-01-04T15:38:34.233299,-8.092526,1.526620,0.564706,-0.090408,-1.213178,-1.326799
2026-01-04T15:38:34.243299,-8.283951,0.985842,0.296710,-0.307876,-1.100778,-1.403768
2026-01-04T15:38:34.253299,-8.599804,0.282353,0.784845,-0.415388,-1.027475,-1.473406
2026-01-04T15:38:34.262299,-8.786444,-0.229710,1.617548,-0.361632,-1.049466,-1.525941
2026-01-04T15:38:34.272299,-8.930013,-0.119641,1.172483,-0.119729,-1.098335,-1.502728
2026-01-04T15:38:34.281299,-8.973084,0.512064,2.206182,0.080634,-1.149648,-1.510058
2026-01-04T15:38:34.291299,-8.384450,0.382851,2.804388,0.067195,-1.325577,-1.437976
2026-01-04T15:38:34.301299,-7.398607,0.473778,2.163111,0.118507,-1.448972,-1.347568
2026-01-04T15:38:34.310299,-6.455835,0.909272,1.603191,0.202807,-1.378111,-1.274264
2026-01-04T15:38:34.320299,-5.790630,1.383051,1.426122,0.041538,-1.214399,-1.164308
2026-01-04T15:38:34.329299,-5.632704,1.162911,0.703489,-0.227241,-0.937067,-1.037248
2026-01-04T15:38:34.339299,-5.895914,0.650847,0.373280,-0.487470,-0.631634,-0.917519
2026-01-04T15:38:34.349299,-6.398407,0.229710,0.698704,-0.577878,-0.399505,-0.814894
2026-01-04T15:38:34.358299,-7.073183,0.349352,0.655633,-0.486248,-0.250454,-0.695164
2026-01-04T15:38:34.368299,-7.594818,0.693918,1.727617,-0.464257,-0.185702,-0.547335
2026-01-04T15:38:34.378299,-7.728816,0.736989,2.086541,-0.478918,-0.169820,-0.382401
2026-01-04T15:38:34.387299,-7.733602,0.851844,0.928415,-0.318871,-0.114842,-0.211359
2026-01-04T15:38:34.397299,-7.523034,1.225125,0.239282,-0.146607,-0.039095,-0.076969
2026-01-04T15:38:34.406299,-7.116254,1.540977,0.564706,-0.169820,0.017104,0.085521
2026-01-04T15:38:34.416299,-6.613761,1.464407,1.033699,-0.316428,0.122173,0.235793
2026-01-04T15:38:34.426299,-6.283552,1.153340,0.880558,-0.442266,0.302989,0.365297
2026-01-04T15:38:34.435299,-6.374479,0.708275,0.995414,-0.571769,0.496022,0.464257
2026-01-04T15:38:34.445299,-6.752545,0.004785,1.603191,-0.714712,0.654847,0.529009
2026-01-04T15:38:34.454299,-7.350751,-0.736989,1.847259,-0.756251,0.775798,0.565661
2026-01-04T15:38:34.464299,-8.288737,0.043070,1.435693,-0.703716,0.836885,0.521678
2026-01-04T15:38:34.474299,-11.576475,-3.464807,1.603191,-0.516791,0.888197,0.454483
2026-01-04T15:38:34.483299,-10.293922,0.244067,0.631705,-0.204028,0.801455,0.519235
2026-01-04T15:38:34.493299,-10.317851,0.631705,1.454836,-0.141720,0.587652,0.542448
2026-01-04T15:38:34.503299,-9.906285,0.602991,1.560120,-0.226020,0.361632,0.555887
2026-01-04T15:38:34.512299,-9.116654,0.473778,1.115055,-0.221133,0.208915,0.590095
2026-01-04T15:38:34.522299,-8.245666,0.186640,1.579262,-0.216246,0.185702,0.635299
2026-01-04T15:38:34.531299,-7.762316,-0.162711,1.808973,-0.212581,0.274889,0.704938
2026-01-04T15:38:34.541299,-7.551748,-0.234496,1.698904,-0.050090,0.404392,0.778242
2026-01-04T15:38:34.551299,-7.623532,0.258424,1.866401,0.124616,0.504574,0.842993
2026-01-04T15:38:34.560299,-7.862815,0.660419,1.679761,0.124616,0.558330,0.906523
2026-01-04T15:38:34.570299,-8.102097,0.952343,0.914058,0.043982,0.621860,0.941954
2026-01-04T15:38:34.579299,-8.322237,1.205982,0.784845,-0.086742,0.704938,0.905302
2026-01-04T15:38:34.589299,-8.470592,1.057627,0.191425,-0.310319,0.733038,0.867428
2026-01-04T15:38:34.599299,-8.590233,0.669990,0.033499,-0.544891,0.758694,0.857654
2026-01-04T15:38:34.608299,-8.752945,0.086141,0.641276,-0.658512,0.830776,0.801455
2026-01-04T15:38:34.618299,-8.963513,-0.315852,0.918843,-0.564439,0.836885,0.779463
2026-01-04T15:38:34.628299,-8.982656,-0.287138,0.741775,-0.346971,0.781907,0.813672
2026-01-04T15:38:34.637299,-8.819944,0.076570,0.933200,-0.129503,0.730594,0.850324
2026-01-04T15:38:34.647299,-8.523234,0.727418,1.009771,0.107512,0.692721,0.886976
2026-01-04T15:38:34.656299,-8.030312,1.708475,0.899701,0.257785,0.689055,0.939510
2026-01-04T15:38:34.666299,-7.613961,2.215753,0.492921,0.185702,0.758694,0.989601
2026-01-04T15:38:34.676299,-7.743173,1.842473,-0.258424,-0.056199,0.937067,1.080009
2026-01-04T15:38:34.685299,-7.546962,2.139183,0.440279,-0.387288,1.232725,0.979827
2026-01-04T15:38:34.695299,-10.083354,1.641476,0.066999,-0.685390,1.408654,0.792902
2026-01-04T15:38:34.704299,-11.002198,0.713061,0.153140,-0.757472,1.248608,0.697607
2026-01-04T15:38:34.714299,-10.638489,0.411565,0.038285,-0.664621,0.831998,0.678060
2026-01-04T15:38:34.724299,-9.418149,0.579063,-0.071784,-0.560774,0.471587,0.565661
2026-01-04T15:38:34.733299,-8.082954,1.019342,-0.119641,-0.172263,0.377514,0.645073
2026-01-04T15:38:34.743299,-7.226324,1.258624,0.224925,0.075747,0.579100,0.659734
2026-01-04T15:38:34.753299,-7.269395,1.861615,0.014356,0.097738,0.879645,0.653625
2026-01-04T15:38:34.762299,-8.126025,1.928615,-0.598205,0.054977,1.167974,0.711046
2026-01-04T15:38:34.772299,-9.111868,8.767302,2.636890,0.208915,1.348790,0.702494
2026-01-04T15:38:34.781299,-10.968698,2.727817,-0.966700,-0.218689,1.374446,0.620638
2026-01-04T15:38:34.791299,-11.566904,2.086541,-0.784845,-0.433714,1.082452,0.580321
2026-01-04T15:38:34.801299,-11.050054,1.603191,-0.497707,-0.441044,0.637743,0.585208
2026-01-04T15:38:34.810299,-9.772287,1.210768,-0.531206,-0.348193,0.329867,0.602312
2026-01-04T15:38:34.820299,-8.508877,1.162911,-0.602991,-0.090408,0.276111,0.587652
2026-01-04T15:38:34.829299,-7.886743,1.761117,-0.425922,0.090408,0.388510,0.590095
2026-01-04T15:38:34.839299,-8.035098,2.134397,-0.148355,0.085521,0.627969,0.598647
2026-01-04T15:38:34.849299,-8.815158,2.115255,-0.363709,0.089186,0.901636,0.583987
2026-01-04T15:38:34.858299,-9.537790,2.340180,-0.703489,0.091629,0.929736,0.575434
2026-01-04T15:38:34.868299,-9.968498,2.411965,-0.789631,-0.024434,0.778242,0.570548
2026-01-04T15:38:34.878299,-9.901499,2.172682,-1.062413,-0.101403,0.653625,0.558330
2026-01-04T15:38:34.887299,-9.643075,2.244467,-1.450050,-0.074525,0.541226,0.532674
2026-01-04T15:38:34.897299,-9.384650,2.517249,-1.368694,-0.080634,0.465479,0.500909
2026-01-04T15:38:34.906299,-9.078368,2.459821,-1.258624,-0.096516,0.474031,0.497244
2026-01-04T15:38:34.916299,-9.040083,2.541177,-1.631905,-0.031764,0.514348,0.504574
2026-01-04T15:38:34.926299,-9.355936,2.713460,-1.914258,-0.008552,0.604756,0.477696
2026-01-04T15:38:34.935299,-9.777073,2.555534,-1.440479,-0.047647,0.669508,0.445931
2026-01-04T15:38:34.945299,-9.801001,2.474178,-0.890130,-0.034208,0.532674,0.438601
2026-01-04T15:38:34.954299,-9.403792,2.545963,-0.937986,0.001221,0.342084,0.466700
2026-01-04T15:38:34.964299,-8.886943,2.684746,-0.933200,-0.031764,0.299323,0.488692
2026-01-04T15:38:34.974299,-8.494520,2.880958,-1.665404,-0.020769,0.370184,0.494800
2026-01-04T15:38:34.983299,-8.556733,3.235096,-1.751546,0.003665,0.489913,0.492357
2026-01-04T15:38:34.993299,-8.977870,3.402593,-2.024327,-0.048869,0.643851,0.460592
2026-01-04T15:38:35.003299,-9.542576,3.378665,-2.603390,-0.086742,0.730594,0.444709
2026-01-04T15:38:35.012299,-9.891928,3.278166,-2.565105,-0.133168,0.652403,0.426383
2026-01-04T15:38:35.022299,-9.824929,2.971885,-2.100898,-0.201585,0.469144,0.389731
2026-01-04T15:38:35.031299,-9.389435,2.589034,-1.708475,-0.186924,0.364075,0.366519
2026-01-04T15:38:35.041299,-8.910871,2.555534,-1.598405,-0.109955,0.359188,0.364075
2026-01-04T15:38:35.051299,-8.508877,2.689532,-1.832902,-0.036651,0.370184,0.362853
2026-01-04T15:38:35.060299,-8.499305,3.086741,-2.139183,0.012217,0.470366,0.346971
2026-01-04T15:38:35.070299,-9.059226,3.326023,-1.957328,-0.006108,0.675616,0.354301
2026-01-04T15:38:35.079299,-9.690931,3.431307,-2.024327,-0.059864,0.729372,0.381179
2026-01-04T15:38:35.089299,-10.112068,3.536591,-2.746960,-0.045204,0.614530,0.370184
2026-01-04T15:38:35.099299,-10.179067,3.479164,-2.880958,-0.067195,0.504574,0.354301
2026-01-04T15:38:35.108299,-9.968498,3.297309,-2.526820,-0.107512,0.372627,0.310319
2026-01-04T15:38:35.118299,-9.595218,3.263810,-2.129612,-0.075747,0.266337,0.274889
2026-01-04T15:38:35.128299,-9.217152,3.359522,-1.856830,-0.067195,0.255341,0.285884
2026-01-04T15:38:35.137299,-8.791230,3.282952,-2.062613,-0.094073,0.237015,0.294436
2026-01-04T15:38:35.147299,-8.508877,3.388236,-2.660818,-0.106290,0.243124,0.294436
2026-01-04T15:38:35.156299,-8.925228,3.421736,-2.536391,-0.108733,0.404392,0.252898
2026-01-04T15:38:35.166299,-9.623932,3.287738,-2.086541,-0.124616,0.542448,0.229685
2026-01-04T15:38:35.176299,-10.265208,3.278166,-2.349751,-0.097738,0.481361,0.239459
2026-01-04T15:38:35.185299,-10.509276,3.316452,-2.311466,-0.018325,0.312762,0.205250
2026-01-04T15:38:35.195299,-10.016355,3.440878,-2.593819,0.072082,0.122173,0.184481
2026-01-04T15:38:35.204299,-9.509077,3.761517,-2.742174,0.091629,-0.019547,0.188146
2026-01-04T15:38:35.214299,-9.059226,3.981656,-3.115455,0.100181,-0.020769,0.152716
2026-01-04T15:38:35.224299,-8.896514,4.163511,-2.684746,0.034208,0.057421,0.155159
2026-01-04T15:38:35.233299,-9.016155,3.885943,-2.292324,-0.135612,0.092851,0.166155
2026-01-04T15:38:35.243299,-9.403792,3.349951,-2.483749,-0.219911,0.171042,0.188146
2026-01-04T15:38:35.253299,-9.987641,3.172882,-2.526820,-0.124616,0.202807,0.174707
2026-01-04T15:38:35.262299,-10.226923,3.326023,-2.593819,0.013439,0.047647,0.141720
2026-01-04T15:38:35.272299,-10.250852,3.589233,-2.608176,0.140498,-0.075747,0.150272
2026-01-04T15:38:35.281299,-10.183852,3.948157,-2.512463,0.222354,-0.112399,0.155159
2026-01-04T15:38:35.291299,-9.949356,4.192225,-2.421536,0.212581,-0.218689,0.147829
2026-01-04T15:38:35.301299,-9.604789,4.326223,-2.900100,0.157603,-0.301767,0.153938
2026-01-04T15:38:35.310299,-9.513862,4.268795,-3.546163,0.078190,-0.249232,0.173485
2026-01-04T15:38:35.320299,-9.652646,4.115654,-3.086741,-0.028099,-0.200363,0.145385
2026-01-04T15:38:35.329299,-9.714859,3.804587,-2.675175,-0.097738,-0.237015,0.145385
2026-01-04T15:38:35.339299,-9.643075,3.570091,-3.072384,-0.073303,-0.277332,0.172263
2026-01-04T15:38:35.349299,-9.442077,3.546163,-3.464807,-0.021991,-0.280997,0.145385
2026-01-04T15:38:35.358299,-9.274580,3.680161,-3.517449,0.018325,-0.262671,0.086742
2026-01-04T15:38:35.368299,-9.193224,3.962514,-3.402593,0.015882,-0.207694,0.021991
2026-01-04T15:38:35.378299,-9.092725,4.058227,-2.737389,-0.002443,-0.129503,-0.061086
2026-01-04T15:38:35.387299,-9.059226,4.350151,-2.206182,0.003665,-0.036651,-0.084299
2026-01-04T15:38:35.397299,-9.188438,4.498506,-2.790031,-0.043982,0.068416,-0.029321
2026-01-04T15:38:35.406299,-9.628718,4.546362,-3.091526,-0.108733,0.184481,0.019547
2026-01-04T15:38:35.416299,-10.317851,4.460221,-3.043670,-0.070860,0.240680,0.057421
2026-01-04T15:38:35.426299,-10.935199,4.350151,-2.857030,-0.114842,0.140498,0.114842
2026-01-04T15:38:35.435299,-11.212766,3.857230,-2.995813,-0.133168,-0.048869,0.136833
2026-01-04T15:38:35.445299,-10.815558,3.627519,-2.215753,-0.007330,-0.239459,0.146607
2026-01-04T15:38:35.454299,-10.083354,3.675375,-1.799402,0.114842,-0.337197,0.153938
2026-01-04T15:38:35.464299,-9.647860,3.890729,-2.871387,0.226020,-0.293215,0.184481
2026-01-04T15:38:35.474299,-9.571290,4.297509,-3.627519,0.267558,-0.188146,0.173485
2026-01-04T15:38:35.483299,-9.848857,4.661218,-3.857230,0.168598,-0.100181,0.131946
2026-01-04T15:38:35.493299,-10.279565,4.895715,-4.086941,0.083077,-0.037873,0.120951
2026-01-04T15:38:35.503299,-10.805986,5.015356,-3.192025,0.000000,-0.035430,0.105068
2026-01-04T15:38:35.512299,-11.107482,4.704289,-3.134597,-0.081855,-0.092851,0.139277
2026-01-04T15:38:35.522299,-11.140982,4.541577,-3.182454,-0.006108,-0.168598,0.186924
2026-01-04T15:38:35.531299,-11.040483,4.393222,-2.316252,0.054977,-0.252898,0.210137
2026-01-04T15:38:35.541299,-10.939984,4.264009,-2.220539,0.080634,-0.334754,0.270002
2026-01-04T15:38:35.551299,-10.418349,4.254438,-2.632104,0.134390,-0.441044,0.299323
2026-01-04T15:38:35.560299,-9.872786,4.407579,-2.818745,0.147829,-0.486248,0.315206
2026-01-04T15:38:35.570299,-9.657432,4.551148,-2.641676,0.105068,-0.441044,0.298102
2026-01-04T15:38:35.579299,-9.844072,4.680361,-3.483949,0.105068,-0.315206,0.256563
2026-01-04T15:38:35.589299,-10.332207,4.723431,-3.129811,0.023212,-0.234572,0.246789
2026-01-04T15:38:35.599299,-10.614561,4.378865,-3.163311,-0.029321,-0.285884,0.200363
2026-01-04T15:38:35.608299,-10.614561,4.307080,-2.981456,0.057421,-0.335975,0.237015
2026-01-04T15:38:35.618299,-10.408778,4.412364,-2.321037,0.119729,-0.393397,0.268780
2026-01-04T15:38:35.628299,-9.949356,4.460221,-2.440679,0.178372,-0.425162,0.301767
2026-01-04T15:38:35.637299,-9.604789,4.622933,-2.593819,0.245567,-0.383623,0.328645
2026-01-04T15:38:35.647299,-9.480363,4.871786,-3.134597,0.234572,-0.289550,0.279776
2026-01-04T15:38:35.656299,-9.829715,4.977071,-2.914457,0.162490,-0.133168,0.239459
2026-01-04T15:38:35.666299,-10.418349,4.881358,-2.679961,0.035430,-0.069638,0.207694
2026-01-04T15:38:35.676299,-10.705488,4.536791,-2.790031,-0.019547,-0.158824,0.163711
2026-01-04T15:38:35.685299,-10.681560,4.302295,-2.392822,0.036651,-0.232128,0.155159
2026-01-04T15:38:35.695299,-10.652846,4.326223,-1.789831,0.155159,-0.272445,0.169820
2026-01-04T15:38:35.704299,-10.327422,4.565505,-2.230110,0.333532,-0.344527,0.204028
2026-01-04T15:38:35.714299,-10.068997,5.072783,-2.737389,0.398284,-0.364075,0.237015
2026-01-04T15:38:35.724299,-10.078568,5.182853,-2.603390,0.282219,-0.327423,0.230907
2026-01-04T15:38:35.733299,-10.202995,4.957928,-2.215753,0.135612,-0.343306,0.215024
2026-01-04T15:38:35.743299,-10.298708,4.599005,-1.785045,0.048869,-0.373849,0.175929
2026-01-04T15:38:35.753299,-10.246066,4.354937,-2.957528,0.040317,-0.382401,0.180816
2026-01-04T15:38:35.762299,-10.327422,4.149154,-2.986242,0.029321,-0.450818,0.139277
2026-01-04T15:38:35.772299,-10.327422,3.905086,-2.081755,0.085521,-0.519235,0.070860
2026-01-04T15:38:35.781299,-10.145567,4.125226,-1.478764,0.348193,-0.553443,0.080634
2026-01-04T15:38:35.791299,-9.896714,4.613361,-2.000399,0.476474,-0.601091,0.124616
2026-01-04T15:38:35.801299,-9.801001,4.814359,-2.411965,0.416610,-0.605978,0.124616
2026-01-04T15:38:35.810299,-9.767501,4.828716,-1.598405,0.386066,-0.616973,0.085521
2026-01-04T15:38:35.820299,-9.442077,4.766502,-1.234696,0.287106,-0.687834,0.072082
2026-01-04T15:38:35.829299,-9.054440,4.421936,-2.033899,0.177150,-0.708603,0.031764
2026-01-04T15:38:35.839299,-8.953942,4.354937,-2.498106,0.151494,-0.576656,-0.061086
2026-01-04T15:38:35.849299,-9.456434,4.450650,-2.986242,0.048869,-0.442266,-0.150272
2026-01-04T15:38:35.858299,-9.954142,3.981656,-1.655833,-0.076969,-0.438601,-0.251676
2026-01-04T15:38:35.868299,-10.198209,3.613162,-1.229910,0.015882,-0.522900,-0.298102
2026-01-04T15:38:35.878299,-9.982855,3.517449,-1.660618,0.185702,-0.607199,-0.255341
2026-01-04T15:38:35.887299,-9.638289,3.531806,-1.186840,0.310319,-0.725707,-0.272445
2026-01-04T15:38:35.897299,-9.226723,3.847658,-0.837487,0.475253,-0.778242,-0.280997
2026-01-04T15:38:35.906299,-9.102297,4.240081,-1.674975,0.540004,-0.703716,-0.267558
2026-01-04T15:38:35.916299,-9.169296,4.594219,-2.148754,0.461814,-0.634077,-0.321315
2026-01-04T15:38:35.926299,-9.188438,4.594219,-1.440479,0.328645,-0.637743,-0.404392
2026-01-04T15:38:35.935299,-9.188438,4.249652,-0.981057,0.134390,-0.648738,-0.452040
2026-01-04T15:38:35.945299,-9.159724,3.704089,-1.631905,0.009773,-0.624304,-0.489913
2026-01-04T15:38:35.954299,-9.241080,3.306880,-1.301695,0.039095,-0.580321,-0.572991
2026-01-04T15:38:35.964299,-9.614361,3.263810,-0.784845,0.162490,-0.520457,-0.624304
2026-01-04T15:38:35.974299,-9.992427,3.235096,-0.971485,0.274889,-0.535117,-0.620638
2026-01-04T15:38:35.983299,-10.006784,3.388236,-1.138983,0.367740,-0.671951,-0.625525
2026-01-04T15:38:35.993299,-9.796215,3.828516,-0.875773,0.470366,-0.852767,-0.662177
2026-01-04T15:38:36.003299,-9.494720,3.818944,-0.258424,0.357966,-0.913854,-0.654847
2026-01-04T15:38:36.012299,-9.375078,3.694518,-0.957129,0.240680,-0.901636,-0.674395
2026-01-04T15:38:36.022299,-9.351150,3.527020,-0.588634,0.156381,-0.877202,-0.725707
2026-01-04T15:38:36.031299,-9.298508,3.019742,-0.066999,0.010995,-0.900415,-0.764803
2026-01-04T15:38:36.041299,-8.853443,2.459821,0.038285,0.020769,-0.976162,-0.810007
2026-01-04T15:38:36.051299,-8.413164,2.900100,-0.861416,0.211359,-1.012814,-0.867428
2026-01-04T15:38:36.060299,-8.374879,3.201596,-0.291924,0.172263,-0.889419,-0.885754
2026-01-04T15:38:36.070299,-8.729016,3.139383,0.602991,0.079412,-0.810007,-0.911410
2026-01-04T15:38:36.079299,-9.078368,3.053241,0.191425,0.086742,-0.791681,-0.852767
2026-01-04T15:38:36.089299,-9.403792,2.584248,-0.598205,-0.128281,-0.784350,-0.817337
2026-01-04T15:38:36.099299,-9.389435,1.703689,-0.555134,-0.152716,-0.883310,-0.894306
2026-01-04T15:38:36.108299,-9.102297,1.651047,-0.023928,0.037873,-1.028696,-0.922406
2026-01-04T15:38:36.118299,-8.729016,1.674975,-0.004785,0.041538,-1.033583,-0.957836
2026-01-04T15:38:36.128299,-8.537591,1.670190,-0.617348,0.167377,-0.970053,-1.025031
2026-01-04T15:38:36.137299,-8.470592,2.512463,0.167497,0.307876,-0.989601,-1.061683
2026-01-04T15:38:36.147299,-8.743373,3.072384,0.545563,0.255341,-0.938288,-1.050687
2026-01-04T15:38:36.156299,-9.427721,3.067598,0.392422,0.244346,-0.830776,-1.051909
2026-01-04T15:38:36.166299,-9.595218,2.469392,2.388036,0.069638,-1.005483,-1.087339
2026-01-04T15:38:36.176299,-8.886943,1.612762,1.947757,-0.043982,-1.277929,-1.106887
2026-01-04T15:38:36.185299,-8.121239,1.473978,-0.019142,0.076969,-1.292590,-1.166752
2026-01-04T15:38:36.195299,-7.613961,1.713260,-0.057427,0.023212,-1.232725,-1.332907
2026-01-04T15:38:36.204299,-7.499106,1.718046,0.105284,-0.260228,-1.089783,-1.392772
2026-01-04T15:38:36.214299,-8.059026,1.378265,0.133998,-0.463035,-0.828333,-1.481958
2026-01-04T15:38:36.224299,-8.843872,1.033699,0.263210,-0.532674,-0.695164,-1.571145
2026-01-04T15:38:36.233299,-9.695717,0.617348,0.971485,-0.555887,-0.708603,-1.579697
2026-01-04T15:38:36.243299,-10.116853,0.052642,1.287338,-0.406836,-0.841772,-1.591914
2026-01-04T15:38:36.253299,-9.724431,0.531206,1.861615,-0.141720,-1.142317,-1.699426
2026-01-04T15:38:36.262299,-8.968299,-1.182054,3.426521,0.095294,-1.374446,-1.898568
2026-01-04T15:38:36.272299,-8.815158,-0.344566,3.254238,0.326201,-1.541823,-1.744630
2026-01-04T15:38:36.281299,-7.178467,0.081355,2.292324,0.524122,-1.665218,-1.695761
2026-01-04T15:38:36.291299,-5.551348,1.636690,2.981456,0.570548,-1.674992,-1.657887
2026-01-04T15:38:36.301299,-4.445864,2.665604,2.603390,0.328645,-1.494176,-1.571145
2026-01-04T15:38:36.310299,-3.924229,2.880958,1.981257,-0.226020,-1.191186,-1.420872
2026-01-04T15:38:36.320299,-4.268795,1.765903,-0.483350,-0.686612,-0.717155,-1.175304
2026-01-04T15:38:36.329299,-5.264209,1.306481,-1.019342,-1.307251,-0.284663,-0.917519
2026-01-04T15:38:36.339299,-6.637689,0.196211,-0.057427,-1.400102,0.097738,-0.814894
2026-01-04T15:38:36.349299,-8.274380,0.588634,1.536192,-1.023809,0.202807,-0.819780
2026-01-04T15:38:36.358299,-8.719445,-2.541177,1.593619,-0.767246,0.004886,-0.767246
2026-01-04T15:38:36.368299,-8.834301,-0.607776,0.196211,-0.487470,-0.248011,-0.328645
2026-01-04T15:38:36.378299,-7.743173,-0.162711,0.579063,-0.079412,-0.339641,-0.172263
2026-01-04T15:38:36.387299,-6.896114,0.966700,1.540977,0.003665,-0.243124,-0.085521
2026-01-04T15:38:36.397299,-6.800401,1.459621,1.205982,-0.107512,-0.036651,0.025656
2026-01-04T15:38:36.406299,-7.360322,1.478764,1.172483,-0.230907,0.267558,0.094073
2026-01-04T15:38:36.416299,-8.604590,0.890130,2.167897,-0.472809,0.420275,0.331088
2026-01-04T15:38:36.426299,-8.877371,1.426122,1.464407,-0.773355,0.411723,0.503352
2026-01-04T15:38:36.435299,-8.422735,0.526420,1.674975,-0.819780,0.340862,0.307876
2026-01-04T15:38:36.445299,-6.331408,-2.139183,3.708875,-0.682947,0.300545,-0.079412
2026-01-04T15:38:36.454299,-8.561519,-3.048455,1.287338,-0.313984,0.268780,0.161268
2026-01-04T15:38:36.464299,-8.169096,-1.234696,1.196411,0.136833,0.263893,0.406836
2026-01-04T15:38:36.474299,-8.001598,0.000000,1.311266,0.337197,0.282219,0.488692
2026-01-04T15:38:36.483299,-7.915457,0.928415,1.761117,0.284663,0.356745,0.547335
2026-01-04T15:38:36.493299,-8.082954,1.277767,1.344766,0.136833,0.454483,0.620638
2026-01-04T15:38:36.503299,-8.437092,1.253839,1.722832,-0.079412,0.554665,0.696386
2026-01-04T15:38:36.512299,-8.800801,0.727418,2.043470,-0.287106,0.612086,0.766024
2026-01-04T15:38:36.522299,-9.020941,0.066999,1.708475,-0.321315,0.579100,0.828333
2026-01-04T15:38:36.531299,-8.843872,-0.459421,1.459621,-0.250454,0.466700,0.894306
2026-01-04T15:38:36.541299,-8.298308,-0.631705,1.737189,-0.108733,0.387288,0.951727
2026-01-04T15:38:36.551299,-7.604390,-0.172283,1.875972,0.034208,0.386066,1.005483
2026-01-04T15:38:36.560299,-7.192824,0.579063,1.464407,-0.002443,0.469144,1.047022
2026-01-04T15:38:36.570299,-7.317251,0.722632,0.703489,-0.191811,0.651182,1.078787
2026-01-04T15:38:36.579299,-7.939385,0.574277,0.856630,-0.382401,0.862541,1.086118
2026-01-04T15:38:36.589299,-8.690731,0.244067,1.263410,-0.541226,1.022588,1.065348
2026-01-04T15:38:36.599299,-9.576076,-0.258424,1.780260,-0.547335,1.067792,1.038470
2026-01-04T15:38:36.608299,-9.978070,-0.387637,1.995614,-0.361632,0.938288,1.016479
2026-01-04T15:38:36.618299,-9.566504,-0.177068,1.737189,-0.091629,0.708603,1.017701
2026-01-04T15:38:36.628299,-8.580661,0.277567,1.440479,0.109955,0.541226,1.009149
2026-01-04T15:38:36.637299,-7.518248,0.904486,1.138983,0.160046,0.503352,1.007927
2026-01-04T15:38:36.647299,-6.762116,1.574477,0.478564,0.103847,0.627969,1.011592
2026-01-04T15:38:36.656299,-7.106683,1.904686,-0.794417,-0.001221,0.954171,1.011592
2026-01-04T15:38:36.666299,-8.537591,1.909472,-1.550549,-0.293215,1.347568,1.180191
2026-01-04T15:38:36.676299,-10.791629,2.153540,-0.669990,-0.662177,1.617570,1.336572
2026-01-04T15:38:36.685299,-13.873585,1.488335,1.148554,-0.976162,1.639561,0.824667
2026-01-04T15:38:36.695299,-12.844671,0.631705,1.062413,-0.812450,1.026253,0.704938
2026-01-04T15:38:36.704299,-11.059626,-0.373280,0.937986,-0.478918,0.318871,0.722042
2026-01-04T15:38:36.714299,-8.336593,-0.062213,1.287338,-0.124616,-0.068416,0.728151
2026-01-04T15:38:36.724299,-6.025127,0.765703,0.976271,0.119729,-0.039095,0.766024
2026-01-04T15:38:36.733299,-4.862215,1.741974,0.421136,0.211359,0.323758,0.829554
2026-01-04T15:38:36.743299,-5.273781,1.517049,-0.143569,0.193033,0.922406,0.952949
2026-01-04T15:38:36.753299,-7.436892,3.311666,-0.267996,-0.008552,1.620014,0.879645
2026-01-04T15:38:36.762299,-10.695917,3.201596,-1.162911,-0.282219,2.035402,0.785572
2026-01-04T15:38:36.772299,-13.246665,2.335394,-0.942772,-0.542448,1.828930,0.723264
2026-01-04T15:38:36.781299,-13.734801,1.215553,0.014356,-0.643851,1.072679,0.647517
2026-01-04T15:38:36.791299,-11.648260,0.990628,0.124426,-0.515570,0.254119,0.592539
2026-01-04T15:38:36.801299,-8.705088,1.215553,-0.105284,-0.211359,-0.184481,0.625525
2026-01-04T15:38:36.810299,-6.628118,0.914058,-0.378065,-0.001221,-0.122173,0.612086
2026-01-04T15:38:36.820299,-5.551348,1.679761,-0.153140,0.184481,0.284663,0.609643
2026-01-04T15:38:36.829299,-6.202196,1.751546,-0.301495,0.290771,0.842993,0.725707
2026-01-04T15:38:36.839299,-7.834101,3.297309,-0.181854,0.160046,1.372003,0.704938
2026-01-04T15:38:36.849299,-10.083354,3.239881,-0.813559,-0.035430,1.593136,0.682947
2026-01-04T15:38:36.858299,-11.691331,2.837887,-0.990628,-0.171042,1.373224,0.669508
2026-01-04T15:38:36.868299,-11.796615,2.378465,-0.703489,-0.268780,0.858876,0.643851
2026-01-04T15:38:36.878299,-10.734202,2.048256,-0.698704,-0.257785,0.359188,0.618195
2026-01-04T15:38:36.887299,-9.212367,2.100898,-0.574277,-0.169820,0.127059,0.598647
2026-01-04T15:38:36.897299,-8.068597,2.311466,-0.923629,-0.072082,0.207694,0.597426
2026-01-04T15:38:36.906299,-7.972884,2.455035,-1.363908,-0.001221,0.503352,0.603534
2026-01-04T15:38:36.916299,-8.618947,2.354537,-1.210768,0.036651,0.817337,0.571769
2026-01-04T15:38:36.926299,-9.671788,2.115255,-1.277767,0.120951,0.933401,0.543669
2026-01-04T15:38:36.935299,-10.246066,2.105683,-1.167697,0.224798,0.769690,0.530230
2026-01-04T15:38:36.945299,-9.982855,2.210968,-1.024128,0.301767,0.452040,0.480139
2026-01-04T15:38:36.954299,-9.035298,2.713460,-0.928415,0.346971,0.239459,0.434935
2026-01-04T15:38:36.964299,-8.317451,3.316452,-1.009771,0.310319,0.256563,0.410501
2026-01-04T15:38:36.974299,-8.188238,3.699303,-1.253839,0.186924,0.436157,0.379958
2026-01-04T15:38:36.983299,-8.599804,3.948157,-1.655833,0.039095,0.647517,0.360410
2026-01-04T15:38:36.993299,-9.470791,3.818944,-2.076970,-0.144164,0.756251,0.348193
2026-01-04T15:38:37.003299,-10.135996,3.263810,-2.196611,-0.321315,0.700051,0.324980
2026-01-04T15:38:37.012299,-10.126425,2.545963,-2.196611,-0.366519,0.487470,0.298102
2026-01-04T15:38:37.022299,-9.600004,2.086541,-1.579262,-0.271224,0.241902,0.267558
2026-01-04T15:38:37.031299,-8.781658,2.033899,-1.239482,-0.111177,0.123394,0.257785
2026-01-04T15:38:37.041299,-8.255237,2.388036,-1.105484,0.085521,0.156381,0.260228
2026-01-04T15:38:37.051299,-8.250452,3.316452,-1.411765,0.240680,0.310319,0.250454
2026-01-04T15:38:37.060299,-8.819944,4.082155,-1.751546,0.251676,0.533896,0.249232
2026-01-04T15:38:37.070299,-9.829715,4.225724,-2.254038,0.089186,0.673173,0.280997
2026-01-04T15:38:37.079299,-10.451849,3.799802,-2.421536,-0.080634,0.559552,0.299323
2026-01-04T15:38:37.089299,-10.351350,3.292523,-2.215753,-0.179594,0.291993,0.276111
2026-01-04T15:38:37.099299,-9.848857,2.986242,-2.498106,-0.182037,0.113620,0.278554
2026-01-04T15:38:37.108299,-9.322436,2.943171,-2.124826,-0.101403,0.076969,0.241902
2026-01-04T15:38:37.118299,-8.800801,2.818745,-1.770688,-0.061086,0.098960,0.222354
2026-01-04T15:38:37.128299,-8.719445,2.861815,-1.780260,-0.043982,0.151494,0.257785
2026-01-04T15:38:37.137299,-8.915657,3.062812,-1.406979,0.057421,0.228463,0.222354
2026-01-04T15:38:37.147299,-9.336793,3.570091,-1.818545,0.210137,0.306654,0.213802
2026-01-04T15:38:37.156299,-10.116853,3.981656,-2.225325,0.257785,0.370184,0.230907
2026-01-04T15:38:37.166299,-10.518848,4.034298,-1.909472,0.169820,0.304210,0.221133
2026-01-04T15:38:37.176299,-10.269994,3.885943,-1.952543,0.123394,0.100181,0.233350
2026-01-04T15:38:37.185299,-9.714859,4.163511,-2.411965,0.112399,-0.048869,0.241902
2026-01-04T15:38:37.195299,-9.226723,4.398007,-3.220739,0.003665,-0.013439,0.244346
2026-01-04T15:38:37.204299,-9.116654,4.249652,-3.101098,-0.183259,0.075747,0.213802
2026-01-04T15:38:37.214299,-9.135796,3.637090,-2.172682,-0.378736,0.117286,0.177150
2026-01-04T15:38:37.224299,-9.217152,2.976671,-1.852044,-0.441044,0.131946,0.175929
2026-01-04T15:38:37.233299,-9.279366,2.694318,-2.210968,-0.310319,0.150272,0.145385
2026-01-04T15:38:37.243299,-9.695717,2.876172,-2.536391,-0.085521,0.218689,0.100181
2026-01-04T15:38:37.253299,-10.432706,3.316452,-2.402393,0.125838,0.318871,0.050090
2026-01-04T15:38:37.262299,-10.925627,3.775874,-1.837687,0.223576,0.210137,0.042760
2026-01-04T15:38:37.272299,-10.604989,4.034298,-1.875972,0.233350,-0.045204,0.058643
2026-01-04T15:38:37.281299,-10.054640,4.311866,-2.871387,0.207694,-0.208915,0.078190
2026-01-04T15:38:37.291299,-9.394221,4.575076,-2.995813,0.091629,-0.232128,0.041538
2026-01-04T15:38:37.301299,-9.001798,4.460221,-2.660818,-0.145385,-0.178372,-0.001221
2026-01-04T15:38:37.310299,-8.886943,4.019941,-2.799602,-0.290771,-0.073303,-0.009773
2026-01-04T15:38:37.320299,-9.068797,3.689732,-2.904886,-0.331088,0.053756,-0.059864
2026-01-04T15:38:37.329299,-9.528219,3.378665,-2.627319,-0.345749,0.129503,-0.087964
2026-01-04T15:38:37.339299,-9.992427,3.096312,-2.311466,-0.200363,0.163711,-0.074525
2026-01-04T15:38:37.349299,-10.346564,3.440878,-1.976471,0.042760,0.095294,-0.043982
2026-01-04T15:38:37.358299,-10.533205,3.689732,-1.952543,0.183259,-0.025656,0.018325
2026-01-04T15:38:37.368299,-10.686345,3.929014,-2.234896,0.276111,-0.100181,0.057421
2026-01-04T15:38:37.378299,-10.648060,4.220939,-2.220539,0.329867,-0.156381,0.062308
2026-01-04T15:38:37.387299,-10.255637,4.551148,-2.493321,0.266337,-0.291993,0.076969
2026-01-04T15:38:37.397299,-9.662217,4.800002,-2.828316,0.158824,-0.403170,0.058643
2026-01-04T15:38:37.406299,-9.470791,4.847858,-3.206382,-0.007330,-0.310319,0.046425
2026-01-04T15:38:37.416299,-9.762716,4.455435,-2.708675,-0.229685,-0.120951,0.018325
2026-01-04T15:38:37.426299,-10.226923,3.890729,-2.737389,-0.260228,-0.059864,0.018325
2026-01-04T15:38:37.435299,-10.571490,3.680161,-2.981456,-0.167377,-0.114842,0.074525
2026-01-04T15:38:37.445299,-10.705488,3.460021,-2.708675,-0.086742,-0.180816,0.102625
2026-01-04T15:38:37.454299,-10.384850,3.503092,-2.498106,0.081855,-0.277332,0.135612
2026-01-04T15:38:37.464299,-10.073783,3.981656,-2.234896,0.237015,-0.313984,0.156381
2026-01-04T15:38:37.474299,-9.882357,4.479363,-2.321037,0.259006,-0.215024,0.164933
2026-01-04T15:38:37.483299,-9.954142,4.761716,-2.445464,0.185702,-0.118507,0.178372
2026-01-04T15:38:37.493299,-10.255637,4.871786,-2.560320,0.087964,-0.113620,0.183259
2026-01-04T15:38:37.503299,-10.643274,4.919643,-2.938386,0.028099,-0.073303,0.175929
2026-01-04T15:38:37.512299,-11.600403,4.862215,-3.929014,-0.051312,0.024434,0.172263
2026-01-04T15:38:37.522299,-12.725030,4.469792,-3.369094,-0.125838,0.092851,0.131946
2026-01-04T15:38:37.531299,-12.940384,3.838087,-1.402194,-0.108733,-0.128281,0.123394
2026-01-04T15:38:37.541299,-11.495119,3.115455,-1.598405,-0.026878,-0.568104,0.270002
2026-01-04T15:38:37.551299,-9.284151,3.239881,-3.704089,0.224798,-0.979827,0.327423
2026-01-04T15:38:37.560299,-7.743173,4.072584,-3.048455,0.379958,-0.824667,0.287106
2026-01-04T15:38:37.570299,-7.738388,4.737788,-2.120040,0.414166,-0.246789,0.257785
2026-01-04T15:38:37.579299,-8.853443,5.101497,-3.101098,0.300545,0.102625,0.315206
2026-01-04T15:38:37.589299,-10.088140,5.044070,-2.761317,0.034208,0.141720,0.277332
2026-01-04T15:38:37.599299,-10.815558,4.594219,-1.607976,-0.061086,0.063529,0.197920
2026-01-04T15:38:37.608299,-11.131410,4.374079,-2.421536,-0.030543,-0.019547,0.245567
2026-01-04T15:38:37.618299,-10.963913,4.086941,-2.847458,-0.075747,-0.172263,0.211359
2026-01-04T15:38:37.628299,-10.332207,3.986442,-1.210768,0.042760,-0.267558,0.131946
2026-01-04T15:38:37.637299,-9.805787,4.264009,-2.014756,0.178372,-0.230907,0.233350
2026-01-04T15:38:37.647299,-9.810572,4.584648,-3.527020,0.168598,-0.229685,0.261450
2026-01-04T15:38:37.656299,-9.853643,4.536791,-1.986042,0.085521,-0.172263,0.215024
2026-01-04T15:38:37.666299,-10.202995,4.661218,-1.292124,0.092851,-0.117286,0.237015
2026-01-04T15:38:37.676299,-10.820343,4.699503,-3.053241,0.076969,-0.031764,0.268780
2026-01-04T15:38:37.685299,-11.093125,4.493720,-4.053441,-0.003665,-0.136833,0.280997
2026-01-04T15:38:37.695299,-10.815558,4.374079,-1.622333,0.018325,-0.357966,0.205250
2026-01-04T15:38:37.704299,-10.183852,4.115654,-0.899701,0.124616,-0.350636,0.244346
2026-01-04T15:38:37.714299,-9.719645,4.421936,-2.694318,0.335975,-0.344527,0.296880
2026-01-04T15:38:37.724299,-9.604789,5.192425,-2.986242,0.399505,-0.331088,0.213802
2026-01-04T15:38:37.733299,-10.064211,5.369493,-1.890329,0.273667,-0.097738,0.184481
2026-01-04T15:38:37.743299,-10.662417,5.087140,-1.765903,0.163711,-0.024434,0.237015
2026-01-04T15:38:37.753299,-10.561918,4.790430,-1.952543,0.054977,-0.245567,0.246789
2026-01-04T15:38:37.762299,-10.155139,4.302295,-2.335394,-0.034208,-0.315206,0.266337
2026-01-04T15:38:37.772299,-9.997212,4.053441,-1.808973,0.009773,-0.307876,0.227241
2026-01-04T15:38:37.781299,-9.925428,4.053441,-1.871187,0.083077,-0.335975,0.194255
2026-01-04T15:38:37.791299,-10.188638,4.158725,-2.172682,0.174707,-0.273667,0.184481
2026-01-04T15:38:37.801299,-10.437492,4.354937,-2.330609,0.218689,-0.287106,0.172263
2026-01-04T15:38:37.810299,-10.332207,4.345365,-1.890329,0.212581,-0.454483,0.131946
2026-01-04T15:38:37.820299,-9.973284,4.249652,-1.785045,0.224798,-0.522900,0.117286
2026-01-04T15:38:37.829299,-9.619146,4.354937,-1.875972,0.293215,-0.531452,0.122173
2026-01-04T15:38:37.839299,-9.394221,4.618147,-1.713260,0.313984,-0.570548,0.087964
2026-01-04T15:38:37.849299,-9.332008,4.627718,-1.397408,0.284663,-0.504574,0.072082
2026-01-04T15:38:37.858299,-9.346365,4.594219,-1.751546,0.285884,-0.452040,0.073303
2026-01-04T15:38:37.868299,-9.341579,4.407579,-1.890329,0.175929,-0.487470,0.021991
2026-01-04T15:38:37.878299,-9.284151,3.996013,-1.440479,0.069638,-0.485026,-0.063529
2026-01-04T15:38:37.887299,-9.351150,3.881158,-2.057827,0.130725,-0.448374,-0.116064
2026-01-04T15:38:37.897299,-9.647860,4.106083,-1.593619,0.158824,-0.415388,-0.212581
2026-01-04T15:38:37.906299,-9.915856,3.981656,-1.430907,0.111177,-0.383623,-0.246789
2026-01-04T15:38:37.916299,-10.140782,4.067798,-1.469193,0.221133,-0.465479,-0.249232
2026-01-04T15:38:37.926299,-9.829715,4.211367,-1.043270,0.243124,-0.649960,-0.257785
2026-01-04T15:38:37.935299,-9.250652,3.804587,-1.339980,0.219911,-0.759916,-0.240680
2026-01-04T15:38:37.945299,-9.035298,3.804587,-1.359123,0.328645,-0.713490,-0.289550
2026-01-04T15:38:37.954299,-9.288937,4.182653,-1.268195,0.400727,-0.607199,-0.344527
2026-01-04T15:38:37.964299,-9.710074,4.249652,-1.234696,0.345749,-0.571769,-0.361632
2026-01-04T15:38:37.974299,-9.729216,4.206582,-1.540977,0.290771,-0.684168,-0.384845
2026-01-04T15:38:37.983299,-9.671788,4.096512,-1.287338,0.185702,-0.795346,-0.398284
2026-01-04T15:38:37.993299,-9.509077,3.632304,-0.167497,0.068416,-0.821002,-0.450818
2026-01-04T15:38:38.003299,-9.470791,3.259024,-0.646062,0.160046,-0.818559,-0.453261
2026-01-04T15:38:38.012299,-9.571290,3.278166,-1.048056,0.261450,-0.824667,-0.463035
2026-01-04T15:38:38.022299,-9.427721,3.297309,-0.765703,0.294436,-0.846659,-0.509461
2026-01-04T15:38:38.031299,-9.140582,3.273381,-0.162711,0.337197,-0.895528,-0.546113
2026-01-04T15:38:38.041299,-8.417949,3.503092,-0.483350,0.328645,-0.950506,-0.576656
2026-01-04T15:38:38.051299,-8.169096,3.981656,-1.938186,0.324980,-0.816115,-0.618195
2026-01-04T15:38:38.060299,-8.910871,4.115654,-0.909272,0.161268,-0.497244,-0.696386
2026-01-04T15:38:38.070299,-9.868000,3.661018,-0.090927,-0.039095,-0.471587,-0.706160
2026-01-04T15:38:38.079299,-10.145567,3.278166,0.459421,0.063529,-0.682947,-0.665842
2026-01-04T15:38:38.089299,-10.016355,2.991028,0.751346,0.111177,-0.838106,-0.614530
2026-01-04T15:38:38.099299,-9.590432,2.483749,-0.153140,0.138055,-0.971275,-0.599869
2026-01-04T15:38:38.108299,-9.221938,2.622533,0.186640,0.320093,-1.054353,-0.663399
2026-01-04T15:38:38.118299,-8.953942,2.995813,0.875773,0.345749,-1.099557,-0.708603
2026-01-04T15:38:38.128299,-8.781658,3.110669,0.205782,0.263893,-1.131322,-0.709825
2026-01-04T15:38:38.137299,-8.877371,3.416950,-0.497707,0.265115,-1.109331,-0.747698
2026-01-04T15:38:38.147299,-9.183653,3.345165,0.330209,0.106290,-1.091005,-0.759916
2026-01-04T15:38:38.156299,-9.265009,2.947957,-0.272781,-0.010995,-1.182634,-0.757472
2026-01-04T15:38:38.166299,-9.523433,2.679961,-0.559920,0.000000,-1.200960,-0.795346
2026-01-04T15:38:38.176299,-9.370293,1.540977,0.789631,-0.136833,-1.293812,-0.893084
2026-01-04T15:38:38.185299,-8.752945,0.780060,1.320838,0.001221,-1.523497,-1.015257
2026-01-04T15:38:38.195299,-8.255237,1.196411,1.052841,0.327423,-1.529606,-1.093448
2026-01-04T15:38:38.204299,-8.030312,1.899901,0.574277,0.387288,-1.457524,-1.215621
2026-01-04T15:38:38.214299,-8.020741,2.464607,1.028913,0.353080,-1.420872,-1.329242
2026-01-04T15:38:38.224299,-7.853243,3.072384,2.483749,0.259006,-1.378111,-1.380555
2026-01-04T15:38:38.233299,-7.939385,3.182454,1.349551,0.075747,-1.298699,-1.334129
2026-01-04T15:38:38.243299,-7.968099,2.627319,1.138983,-0.178372,-1.218065,-1.307251
2026-01-04T15:38:38.253299,-7.613961,1.287338,1.885544,-0.443488,-1.227838,-1.287703
2026-01-04T15:38:38.262299,-7.264609,0.014356,0.689132,-0.404392,-1.196073,-1.218065
2026-01-04T15:38:38.272299,-7.063612,-0.373280,0.473778,-0.080634,-1.061683,-1.263269
2026-01-04T15:38:38.281299,-7.034898,0.157926,0.827916,0.195476,-0.911410,-1.306029
2026-01-04T15:38:38.291299,-7.393821,0.866201,0.861416,0.265115,-0.750142,-1.315803
2026-01-04T15:38:38.301299,-7.819744,1.373480,0.760917,0.174707,-0.634077,-1.384220
2026-01-04T15:38:38.310299,-8.264809,1.588834,0.890130,-0.085521,-0.601091,-1.439198
2026-01-04T15:38:38.320299,-8.690731,1.383051,1.751546,-0.382401,-0.590095,-1.503949
2026-01-04T15:38:38.329299,-8.647660,0.875773,1.517049,-0.376292,-0.649960,-1.535714
2026-01-04T15:38:38.339299,-7.948956,0.928415,2.048256,-0.326201,-0.821002,-1.512502
2026-01-04T15:38:38.349299,-6.853043,0.904486,2.804388,-0.316428,-0.890641,-1.452637
2026-01-04T15:38:38.358299,-5.761916,1.253839,2.421536,-0.219911,-0.834441,-1.343903
2026-01-04T15:38:38.368299,-5.120640,1.631905,2.335394,-0.260228,-0.670729,-1.203404
2026-01-04T15:38:38.378299,-4.876572,1.737189,2.421536,-0.474031,-0.397062,-1.049466
2026-01-04T15:38:38.387299,-5.316851,1.488335,1.631905,-0.680503,-0.092851,-0.861319
2026-01-04T15:38:38.397299,-6.221338,1.440479,1.890329,-0.846659,0.120951,-0.653625
2026-01-04T15:38:38.406299,-7.168896,1.272981,1.737189,-0.933401,0.218689,-0.420275
2026-01-04T15:38:38.416299,-7.925028,1.153340,0.751346,-0.955393,0.188146,-0.180816
2026-01-04T15:38:38.426299,-8.221738,0.784845,0.995414,-0.929736,0.147829,-0.007330
2026-01-04T15:38:38.435299,-8.207381,0.363709,1.421336,-0.778242,0.144164,0.142942
2026-01-04T15:38:38.445299,-8.116454,0.378065,1.349551,-0.532674,0.177150,0.277332
2026-01-04T15:38:38.454299,-8.140382,0.526420,1.162911,-0.338419,0.223576,0.377514
2026-01-04T15:38:38.464299,-8.054240,0.746560,1.186840,-0.246789,0.257785,0.436157
2026-01-04T15:38:38.474299,-7.968099,0.655633,1.540977,-0.305432,0.276111,0.486248
2026-01-04T15:38:38.483299,-7.858029,0.110069,1.947757,-0.494800,0.332310,0.532674
2026-01-04T15:38:38.493299,-8.126025,-0.339780,1.698904,-0.521678,0.441044,0.552222
2026-01-04T15:38:38.503299,-8.580661,0.253639,1.727617,-0.400727,0.475253,0.505796
2026-01-04T15:38:38.512299,-8.590233,-0.770488,3.024527,-0.283441,0.464257,0.478918
2026-01-04T15:38:38.522299,-8.695517,-0.014356,2.076970,-0.007330,0.403170,0.614530
2026-01-04T15:38:38.531299,-8.997012,0.497707,1.081555,0.294436,0.373849,0.675616
2026-01-04T15:38:38.541299,-9.044869,1.627119,1.579262,0.354301,0.329867,0.709825
2026-01-04T15:38:38.551299,-8.800801,1.780260,1.842473,0.186924,0.259006,0.794124
2026-01-04T15:38:38.560299,-8.322237,1.899901,1.617548,-0.051312,0.217467,0.948062
2026-01-04T15:38:38.570299,-8.126025,1.478764,1.316052,-0.359188,0.233350,0.867428
2026-01-04T15:38:38.579299,-7.456035,0.641276,1.263410,-0.640186,0.331088,0.851545
2026-01-04T15:38:38.589299,-7.489534,0.004785,0.952343,-0.747698,0.510683,0.877202
2026-01-04T15:38:38.599299,-7.752745,0.129212,0.957129,-0.697607,0.707381,0.840550
2026-01-04T15:38:38.608299,-8.719445,-1.335195,1.062413,-0.604756,0.831998,0.663399
2026-01-04T15:38:38.618299,-8.815158,-0.832702,1.761117,-0.217467,0.858876,0.841772
2026-01-04T15:38:38.628299,-9.202795,0.210568,1.866401,0.125838,0.829554,0.945619
2026-01-04T15:38:38.637299,-9.327222,0.894915,1.737189,0.272445,0.722042,0.966388
2026-01-04T15:38:38.647299,-8.968299,1.378265,1.861615,0.290771,0.602312,0.944397
2026-01-04T15:38:38.656299,-8.432306,1.622333,1.770688,0.191811,0.515570,0.915075
2026-01-04T15:38:38.666299,-7.700103,1.670190,1.201196,-0.058643,0.500909,0.917519
2026-01-04T15:38:38.676299,-7.092326,1.698904,1.129412,-0.298102,0.551000,0.944397
2026-01-04T15:38:38.685299,-6.312266,1.335195,-0.114855,-0.481361,0.708603,1.075122
2026-01-04T15:38:38.695299,-7.197610,2.163111,0.244067,-0.598647,0.961501,1.208291
2026-01-04T15:38:38.704299,-8.484948,1.914258,-0.272781,-0.653625,1.254716,1.048244
2026-01-04T15:38:38.714299,-10.107282,1.574477,-0.066999,-0.664621,1.502728,0.922406
2026-01-04T15:38:38.724299,-11.973684,0.961914,0.244067,-0.610865,1.513723,0.823446
2026-01-04T15:38:38.733299,-12.600603,0.832702,0.708275,-0.478918,1.159421,0.707381
2026-01-04T15:38:38.743299,-11.528619,-1.813759,0.430708,-0.268780,0.596204,0.493579
2026-01-04T15:38:38.753299,-9.791430,0.047856,0.751346,0.085521,0.139277,0.543669
2026-01-04T15:38:38.762299,-7.609175,1.091127,0.861416,0.351858,0.000000,0.547335
2026-01-04T15:38:38.772299,-5.982056,1.694118,0.612562,0.371405,0.173485,0.521678
2026-01-04T15:38:38.781299,-5.230710,1.330409,0.043070,0.244346,0.544891,0.693942
2026-01-04T15:38:38.791299,-5.312066,3.895515,-0.789631,-0.021991,1.034805,0.670729
2026-01-04T15:38:38.801299,-7.183253,3.555734,-0.459421,-0.291993,1.512502,0.647517
2026-01-04T15:38:38.810299,-9.489934,3.598805,-0.698704,-0.503352,1.871690,0.653625
2026-01-04T15:38:38.820299,-11.825329,2.895315,-1.110269,-0.678060,1.930333,0.620638
2026-01-04T15:38:38.829299,-12.954741,1.593619,-1.244267,-0.785572,1.550375,0.561995
2026-01-04T15:38:38.839299,-12.251251,0.602991,-0.708275,-0.658512,0.902858,0.463035
2026-01-04T15:38:38.849299,-10.145567,0.660419,-0.071784,-0.345749,0.393397,0.310319
2026-01-04T15:38:38.858299,-7.867600,-0.607776,-0.004785,-0.046425,0.271224,0.261450
2026-01-04T15:38:38.868299,-6.513263,1.473978,-0.483350,0.186924,0.485026,0.289550
2026-01-04T15:38:38.878299,-6.321837,1.722832,-0.803988,0.240680,0.874758,0.438601
2026-01-04T15:38:38.887299,-7.030112,2.785245,-0.177068,0.018325,1.352455,0.278554
2026-01-04T15:38:38.897299,-8.934799,3.541377,-0.837487,-0.224798,1.716530,0.202807
2026-01-04T15:38:38.906299,-10.968698,3.235096,-1.081555,-0.387288,1.775174,0.201585
2026-01-04T15:38:38.916299,-12.160324,2.656033,-1.287338,-0.466700,1.494176,0.207694
2026-01-04T15:38:38.926299,-12.102896,1.952543,-0.923629,-0.448374,1.031140,0.233350
2026-01-04T15:38:38.935299,-10.715059,1.526620,-0.392422,-0.326201,0.553443,0.239459
2026-01-04T15:38:38.945299,-8.930013,1.636690,-0.598205,-0.157603,0.271224,0.261450
2026-01-04T15:38:38.954299,-7.623532,1.990828,-0.646062,-0.056199,0.329867,0.277332
2026-01-04T15:38:38.964299,-7.269395,2.522035,-1.033699,-0.034208,0.653625,0.252898
2026-01-04T15:38:38.974299,-8.288737,3.077169,-1.368694,-0.020769,1.073900,0.223576
2026-01-04T15:38:38.983299,-10.092925,3.268595,-1.359123,-0.095294,1.353677,0.218689
2026-01-04T15:38:38.993299,-11.676974,2.828316,-1.737189,-0.207694,1.219286,0.262671
2026-01-04T15:38:39.003299,-12.184252,2.311466,-1.450050,-0.194255,0.748920,0.316428
2026-01-04T15:38:39.012299,-11.428120,2.000399,-0.703489,-0.041538,0.250454,0.335975
2026-01-04T15:38:39.022299,-9.820143,2.120040,-0.545563,0.163711,-0.092851,0.386066
2026-01-04T15:38:39.031299,-8.250452,2.541177,-0.617348,0.287106,-0.205250,0.437379
2026-01-04T15:38:39.041299,-7.422535,3.038884,-0.784845,0.277332,-0.048869,0.448374
2026-01-04T15:38:39.051299,-7.499106,3.479164,-1.598405,0.215024,0.307876,0.458148
2026-01-04T15:38:39.060299,-8.556733,4.091726,-2.636890,0.146607,0.669508,0.416610
2026-01-04T15:38:39.070299,-10.097711,4.249652,-3.306880,-0.031764,0.819780,0.364075
2026-01-04T15:38:39.079299,-11.375478,3.761517,-3.373879,-0.299323,0.667064,0.364075
2026-01-04T15:38:39.089299,-11.734402,2.732603,-2.254038,-0.445931,0.345749,0.349414
2026-01-04T15:38:39.099299,-10.978270,1.713260,-1.196411,-0.331088,-0.002443,0.354301
2026-01-04T15:38:39.108299,-9.623932,1.464407,-0.808774,-0.036651,-0.283441,0.399505
2026-01-04T15:38:39.118299,-8.317451,1.957328,-0.856630,0.263893,-0.334754,0.430049
2026-01-04T15:38:39.128299,-7.690531,2.837887,-1.540977,0.467922,-0.120951,0.438601
2026-01-04T15:38:39.137299,-8.025527,3.909872,-2.450250,0.532674,0.216246,0.410501
2026-01-04T15:38:39.147299,-9.145367,4.713860,-2.971885,0.416610,0.494800,0.346971
2026-01-04T15:38:39.156299,-10.375278,4.761716,-2.780459,0.078190,0.541226,0.324980
2026-01-04T15:38:39.166299,-10.863414,4.139583,-3.010170,-0.274889,0.302989,0.315206
2026-01-04T15:38:39.176299,-10.753344,3.345165,-2.943171,-0.405614,0.063529,0.270002
2026-01-04T15:38:39.185299,-10.332207,2.737389,-2.263610,-0.362853,-0.039095,0.235793
2026-01-04T15:38:39.195299,-9.499505,2.273181,-1.689332,-0.276111,-0.166155,0.256563
2026-01-04T15:38:39.204299,-8.628518,2.167897,-1.330409,-0.091629,-0.260228,0.261450
2026-01-04T15:38:39.214299,-8.169096,2.694318,-1.770688,0.205250,-0.133168,0.261450
2026-01-04T15:38:39.224299,-8.480163,3.565305,-2.383251,0.362853,0.129503,0.267558
2026-01-04T15:38:39.233299,-9.418149,4.206582,-2.550748,0.345749,0.344527,0.234572
2026-01-04T15:38:39.243299,-10.466206,4.532006,-2.115255,0.217467,0.419053,0.230907
2026-01-04T15:38:39.253299,-10.944770,4.713860,-2.952743,0.074525,0.256563,0.248011
2026-01-04T15:38:39.262299,-10.805986,4.776073,-4.053441,-0.068416,0.010995,0.233350
2026-01-04T15:38:39.272299,-10.360921,4.120440,-2.536391,-0.335975,-0.162490,0.212581
2026-01-04T15:38:39.281299,-9.580861,3.206382,-1.392622,-0.463035,-0.248011,0.204028
2026-01-04T15:38:39.291299,-8.977870,2.780459,-1.349551,-0.323758,-0.259006,0.235793
2026-01-04T15:38:39.301299,-8.623732,2.761317,-1.966900,-0.155159,-0.166155,0.238237
2026-01-04T15:38:39.310299,-8.776873,2.852244,-2.636890,-0.017104,-0.021991,0.191811
2026-01-04T15:38:39.320299,-9.245866,3.168097,-2.469392,0.019547,0.068416,0.120951
2026-01-04T15:38:39.329299,-9.839286,3.349951,-2.249253,-0.057421,0.079412,0.019547
2026-01-04T15:38:39.339299,-10.547562,3.488735,-2.311466,-0.042760,0.103847,-0.034208
2026-01-04T15:38:39.349299,-11.155338,3.775874,-2.234896,0.097738,0.058643,-0.023212
2026-01-04T15:38:39.358299,-11.160124,4.287938,-2.502892,0.238237,-0.184481,0.039095
2026-01-04T15:38:39.368299,-10.528419,4.340580,-2.354537,0.185702,-0.478918,0.111177
2026-01-04T15:38:39.378299,-9.552147,4.024727,-1.971685,0.127059,-0.618195,0.120951
2026-01-04T15:38:39.387299,-8.968299,4.043870,-2.009970,0.210137,-0.509461,0.118507
2026-01-04T15:38:39.397299,-9.183653,4.130011,-2.368894,0.175929,-0.270002,0.102625
2026-01-04T15:38:39.406299,-10.001998,4.005585,-2.971885,0.128281,-0.032986,0.072082
2026-01-04T15:38:39.416299,-11.026126,4.216153,-2.708675,0.136833,0.028099,0.053756
2026-01-04T15:38:39.426299,-11.495119,4.268795,-3.215953,0.090408,-0.087964,0.076969
2026-01-04T15:38:39.435299,-11.346764,4.235296,-3.388236,0.145385,-0.267558,0.096516
2026-01-04T15:38:39.445299,-10.906485,4.465006,-2.493321,0.204028,-0.381179,0.112399
2026-01-04T15:38:39.454299,-10.360921,4.369294,-2.282752,0.134390,-0.383623,0.153938
2026-01-04T15:38:39.464299,-10.040283,4.010370,-3.019742,0.070860,-0.332310,0.183259
2026-01-04T15:38:39.474299,-10.179067,4.139583,-2.598605,0.131946,-0.261450,0.098960
2026-01-04T15:38:39.483299,-10.499705,4.393222,-1.727617,0.106290,-0.160046,0.058643
2026-01-04T15:38:39.493299,-10.882557,4.508077,-2.421536,0.035430,-0.080634,0.081855
2026-01-04T15:38:39.503299,-11.179267,4.546362,-2.880958,0.030543,-0.074525,0.074525
2026-01-04T15:38:39.512299,-11.126625,4.575076,-2.761317,-0.029321,-0.194255,0.075747
2026-01-04T15:38:39.522299,-10.729416,4.182653,-2.340180,-0.101403,-0.283441,0.098960
2026-01-04T15:38:39.531299,-10.198209,3.756731,-2.096112,-0.037873,-0.339641,0.156381
2026-01-04T15:38:39.541299,-9.690931,3.742374,-1.875972,0.065973,-0.410501,0.196698
2026-01-04T15:38:39.551299,-9.489934,3.962514,-1.292124,0.232128,-0.346971,0.205250
2026-01-04T15:38:39.560299,-9.786644,4.273581,-2.072184,0.339641,-0.188146,0.285884
2026-01-04T15:38:39.570299,-10.341779,4.460221,-2.364108,0.263893,-0.145385,0.299323
2026-01-04T15:38:39.579299,-10.542776,4.393222,-1.942971,0.197920,-0.265115,0.271224
2026-01-04T15:38:39.589299,-10.183852,4.345365,-2.086541,0.184481,-0.354301,0.299323
2026-01-04T15:38:39.599299,-9.796215,4.220939,-3.163311,0.043982,-0.395840,0.311541
2026-01-04T15:38:39.608299,-9.461220,3.828516,-2.225325,0.006108,-0.397062,0.219911
2026-01-04T15:38:39.618299,-9.293722,3.881158,-1.665404,0.117286,-0.299323,0.206472
2026-01-04T15:38:39.628299,-9.623932,4.053441,-1.923829,0.212581,-0.212581,0.241902
2026-01-04T15:38:39.637299,-10.035497,4.244867,-1.942971,0.270002,-0.164933,0.243124
2026-01-04T15:38:39.647299,-10.485348,4.479363,-2.115255,0.307876,-0.178372,0.284663
2026-01-04T15:38:39.656299,-10.805986,4.599005,-1.761117,0.263893,-0.263893,0.285884
2026-01-04T15:38:39.666299,-10.595418,4.469792,-1.287338,0.204028,-0.372627,0.271224
2026-01-04T15:38:39.676299,-10.346564,4.182653,-1.804188,0.152716,-0.437379,0.274889
2026-01-04T15:38:39.685299,-9.896714,3.962514,-2.402393,0.078190,-0.452040,0.226020
2026-01-04T15:38:39.695299,-9.576076,3.900300,-2.120040,0.087964,-0.436157,0.142942
2026-01-04T15:38:39.704299,-9.346365,3.991228,-1.746760,0.134390,-0.360410,0.111177
2026-01-04T15:38:39.714299,-9.480363,4.273581,-2.565105,0.161268,-0.241902,0.098960
2026-01-04T15:38:39.724299,-10.064211,4.455435,-1.765903,0.178372,-0.171042,0.073303
2026-01-04T15:38:39.733299,-10.542776,4.354937,-0.837487,0.173485,-0.202807,0.074525
2026-01-04T15:38:39.743299,-10.691131,4.307080,-1.392622,0.235793,-0.337197,0.109955
2026-01-04T15:38:39.753299,-10.432706,4.374079,-1.359123,0.255341,-0.481361,0.085521
2026-01-04T15:38:39.762299,-10.049854,4.407579,-1.392622,0.249232,-0.542448,0.064751
2026-01-04T15:38:39.772299,-9.791430,4.575076,-1.378265,0.238237,-0.557108,0.063529
2026-01-04T15:38:39.781299,-9.518648,4.493720,-1.287338,0.149051,-0.590095,0.056199
2026-01-04T15:38:39.791299,-9.513862,4.235296,-1.540977,0.074525,-0.552222,0.052534
2026-01-04T15:38:39.801299,-9.714859,4.082155,-1.741974,0.067195,-0.470366,0.056199
2026-01-04T15:38:39.810299,-9.858429,3.838087,-1.713260,0.067195,-0.525343,0.053756
2026-01-04T15:38:39.820299,-9.556933,3.646661,-1.287338,0.106290,-0.641408,0.040317
2026-01-04T15:38:39.829299,-9.303294,3.708875,-1.354337,0.237015,-0.619417,0.028099
2026-01-04T15:38:39.839299,-9.351150,3.938585,-1.928615,0.294436,-0.538783,0.012217
2026-01-04T15:38:39.849299,-9.470791,3.952942,-1.670190,0.268780,-0.502131,-0.075747
2026-01-04T15:38:39.858299,-9.700502,3.924229,-1.033699,0.266337,-0.466700,-0.120951
2026-01-04T15:38:39.868299,-9.719645,4.029513,-1.349551,0.268780,-0.496022,-0.136833
2026-01-04T15:38:39.878299,-9.504291,4.106083,-1.105484,0.288328,-0.540004,-0.185702
2026-01-04T15:38:39.887299,-9.336793,4.096512,-0.923629,0.285884,-0.540004,-0.196698
2026-01-04T15:38:39.897299,-9.260223,4.220939,-0.655633,0.284663,-0.476474,-0.227241
2026-01-04T15:38:39.906299,-9.485148,4.264009,-1.249053,0.232128,-0.389731,-0.219911
2026-01-04T15:38:39.916299,-9.781858,4.287938,-1.378265,0.180816,-0.387288,-0.271224
2026-01-04T15:38:39.926299,-9.954142,4.149154,-0.899701,0.134390,-0.389731,-0.307876
2026-01-04T15:38:39.935299,-10.092925,3.823730,-1.158126,0.040317,-0.423940,-0.305432
2026-01-04T15:38:39.945299,-9.954142,3.541377,-1.033699,0.039095,-0.524122,-0.357966
2026-01-04T15:38:39.954299,-9.633503,3.512663,-0.181854,0.087964,-0.574213,-0.372627
2026-01-04T15:38:39.964299,-9.561719,3.512663,-1.048056,0.157603,-0.544891,-0.388510
2026-01-04T15:38:39.974299,-9.518648,3.436093,-1.062413,0.158824,-0.540004,-0.403170
2026-01-04T15:38:39.983299,-9.341579,3.311666,-0.086141,0.162490,-0.596204,-0.475253
2026-01-04T15:38:39.993299,-9.131011,3.460021,-0.344566,0.267558,-0.516791,-0.481361
2026-01-04T15:38:40.003299,-9.293722,3.761517,-0.689132,0.261450,-0.453261,-0.502131
2026-01-04T15:38:40.012299,-9.552147,3.847658,-0.885344,0.185702,-0.410501,-0.554665
2026-01-04T15:38:40.022299,-9.896714,3.885943,-0.641276,0.112399,-0.382401,-0.574213
2026-01-04T15:38:40.031299,-9.901499,3.507877,-0.363709,-0.040317,-0.480139,-0.598647
2026-01-04T15:38:40.041299,-9.647860,2.995813,-0.507278,-0.138055,-0.548556,-0.609643
2026-01-04T15:38:40.051299,-9.456434,2.694318,-0.311066,-0.074525,-0.524122,-0.664621
2026-01-04T15:38:40.060299,-9.466006,2.842673,-0.684347,0.034208,-0.521678,-0.691499
2026-01-04T15:38:40.070299,-9.470791,3.182454,-0.334995,0.128281,-0.513126,-0.746477
2026-01-04T15:38:40.079299,-9.638289,3.369094,0.095712,0.102625,-0.513126,-0.750142
2026-01-04T15:38:40.089299,-9.781858,3.263810,0.358923,0.031764,-0.587652,-0.773355
2026-01-04T15:38:40.099299,-9.939785,3.129811,0.641276,-0.058643,-0.630412,-0.783129
2026-01-04T15:38:40.108299,-10.073783,2.723032,0.253639,-0.089186,-0.684168,-0.784350
2026-01-04T15:38:40.118299,-9.772287,2.622533,-0.334995,-0.024434,-0.829554,-0.786794
2026-01-04T15:38:40.128299,-9.475577,2.751745,0.090927,0.037873,-0.912632,-0.797789
2026-01-04T15:38:40.137299,-9.513862,2.416750,0.588634,-0.004886,-0.857654,-0.794124
2026-01-04T15:38:40.147299,-9.604789,2.096112,0.899701,0.015882,-0.900415,-0.831998
2026-01-04T15:38:40.156299,-9.504291,1.899901,1.000199,0.092851,-1.000597,-0.817337
2026-01-04T15:38:40.166299,-9.422935,1.938186,0.708275,0.107512,-1.043357,-0.833220
2026-01-04T15:38:40.176299,-9.370293,1.641476,0.732203,0.171042,-1.048244,-0.850324
2026-01-04T15:38:40.185299,-8.973084,1.713260,1.258624,0.265115,-1.145982,-0.879645
2026-01-04T15:38:40.195299,-8.551947,2.009970,0.449850,0.320093,-1.177747,-0.886976
2026-01-04T15:38:40.204299,-8.571090,2.483749,-0.320638,0.310319,-1.031140,-0.911410
2026-01-04T15:38:40.214299,-9.236295,2.632104,0.502492,0.151494,-0.877202,-1.004262
2026-01-04T15:38:40.224299,-9.777073,2.134397,0.631705,-0.091629,-0.869871,-1.054353
2026-01-04T15:38:40.233299,-9.882357,1.239482,0.693918,-0.208915,-1.005483,-1.150869
2026-01-04T15:38:40.243299,-9.303294,0.727418,0.842273,-0.162490,-1.200960,-1.274264
2026-01-04T15:38:40.253299,-8.772087,0.655633,1.086341,-0.068416,-1.248608,-1.364672
2026-01-04T15:38:40.262299,-8.446663,0.588634,2.392822,0.007330,-1.159421,-1.417207
2026-01-04T15:38:40.272299,-8.312665,0.760917,2.517249,0.114842,-1.134987,-1.420872
2026-01-04T15:38:40.281299,-8.145168,0.789631,2.287538,0.096516,-1.143539,-1.393994
2026-01-04T15:38:40.291299,-7.886743,0.607776,2.574677,0.023212,-1.167974,-1.409876
2026-01-04T15:38:40.301299,-7.838886,0.784845,1.966900,0.087964,-1.110552,-1.429424
2026-01-04T15:38:40.310299,-7.896314,0.985842,2.608176,0.017104,-1.025031,-1.455080
2026-01-04T15:38:40.320299,-7.805387,0.914058,2.737389,-0.111177,-1.004262,-1.442863
2026-01-04T15:38:40.329299,-7.322037,0.703489,1.832902,-0.184481,-1.028696,-1.395215
2026-01-04T15:38:40.339299,-6.814758,0.607776,0.818345,-0.306654,-0.989601,-1.324355
2026-01-04T15:38:40.349299,-6.675975,0.579063,0.382851,-0.337197,-0.784350,-1.270599
2026-01-04T15:38:40.358299,-7.116254,0.579063,1.229910,-0.345749,-0.530230,-1.178969
2026-01-04T15:38:40.368299,-7.594818,0.205782,2.579462,-0.384845,-0.414166,-1.073900
2026-01-04T15:38:40.378299,-7.714460,-0.014356,2.167897,-0.248011,-0.432492,-0.926071
2026-01-04T15:38:40.387299,-7.288537,0.287138,1.660618,-0.028099,-0.504574,-0.816115
2026-01-04T15:38:40.397299,-6.508477,0.660419,2.139183,-0.015882,-0.530230,-0.701273
2026-01-04T15:38:40.406299,-5.704489,0.899701,2.263610,-0.107512,-0.416610,-0.554665
2026-01-04T15:38:40.416299,-5.436492,1.416550,1.354337,-0.140498,-0.173485,-0.430049
2026-01-04T15:38:40.426299,-5.685346,2.014756,1.392622,-0.345749,0.064751,-0.322536
2026-01-04T15:38:40.435299,-6.087340,2.009970,1.799402,-0.735481,0.268780,-0.186924
2026-01-04T15:38:40.445299,-6.809973,1.837687,1.004985,-0.985936,0.416610,-0.035430
2026-01-04T15:38:40.454299,-7.599604,1.641476,0.799202,-1.161865,0.505796,0.080634
2026-01-04T15:38:40.464299,-8.274380,0.751346,1.703689,-1.348790,0.518013,0.166155
2026-01-04T15:38:40.474299,-8.695517,-0.224925,1.555334,-1.337794,0.467922,0.268780
2026-01-04T15:38:40.483299,-8.307880,0.009571,0.961914,-1.127656,0.403170,0.307876
2026-01-04T15:38:40.493299,-9.064012,-1.167697,1.493121,-0.778242,0.370184,0.059864
2026-01-04T15:38:40.503299,-9.394221,-2.100898,1.564905,-0.505796,0.366519,0.079412
2026-01-04T15:38:40.512299,-9.662217,-1.976471,1.966900,-0.243124,0.383623,0.295658
2026-01-04T15:38:40.522299,-9.623932,-0.947557,1.598405,0.076969,0.361632,0.454483
2026-01-04T15:38:40.531299,-9.250652,-0.023928,1.325623,0.322536,0.250454,0.503352
2026-01-04T15:38:40.541299,-8.566304,0.966700,1.450050,0.365297,0.125838,0.530230
2026-01-04T15:38:40.551299,-7.982456,1.651047,1.205982,0.210137,0.128281,0.570548
2026-01-04T15:38:40.560299,-7.905885,1.536192,1.804188,-0.123394,0.252898,0.619417
2026-01-04T15:38:40.570299,-8.145168,2.325823,3.436093,-0.494800,0.409279,0.660956
2026-01-04T15:38:40.579299,-8.504091,-0.119641,2.828316,-0.685390,0.492357,0.642630
2026-01-04T15:38:40.589299,-8.920442,-0.856630,3.019742,-0.660956,0.522900,0.612086
2026-01-04T15:38:40.599299,-9.346365,-1.694118,1.890329,-0.334754,0.425162,0.536339
2026-01-04T15:38:40.608299,-9.107082,-2.143969,2.000399,0.102625,0.302989,0.566882
2026-01-04T15:38:40.618299,-8.609375,-0.689132,1.674975,0.430049,0.239459,0.692721
2026-01-04T15:38:40.628299,-8.197810,0.650847,1.296909,0.554665,0.263893,0.769690
2026-01-04T15:38:40.637299,-7.805387,1.603191,0.655633,0.470366,0.335975,0.834441
2026-01-04T15:38:40.647299,-7.546962,1.603191,0.311066,0.205250,0.437379,0.951727
2026-01-04T15:38:40.656299,-7.551748,1.440479,0.574277,-0.193033,0.576656,1.197295
2026-01-04T15:38:40.666299,-7.814958,1.947757,1.124626,-0.642630,0.735481,1.440419
2026-01-04T15:38:40.676299,-11.188838,0.181854,2.225325,-0.960279,0.902858,1.014036
2026-01-04T15:38:40.685299,-9.413364,-0.708275,1.033699,-0.976162,0.928514,0.886976
2026-01-04T15:38:40.695299,-9.662217,-1.373480,1.454836,-0.696386,0.872315,0.869871
2026-01-04T15:38:40.704299,-9.858429,-1.330409,1.574477,-0.322536,0.736703,0.840550
2026-01-04T15:38:40.714299,-9.499505,-0.689132,1.617548,0.020769,0.582765,0.824667
2026-01-04T15:38:40.724299,-8.685946,0.445065,1.569691,0.261450,0.465479,0.810007
2026-01-04T15:38:40.733299,-7.838886,1.593619,1.067198,0.277332,0.450818,0.866206
2026-01-04T15:38:40.743299,-7.365107,2.110469,0.378065,0.145385,0.572991,0.949284
2026-01-04T15:38:40.753299,-7.690531,2.995813,0.148355,-0.074525,0.868650,0.944397
2026-01-04T15:38:40.762299,-8.843872,2.823530,0.263210,-0.350636,1.169195,0.905302
2026-01-04T15:38:40.772299,-10.135996,1.804188,0.713061,-0.614530,1.246164,0.882089
2026-01-04T15:38:40.781299,-10.896914,0.646062,1.081555,-0.679282,1.073900,0.845437
