Timestamp,Acceleration_X,Acceleration_Y,Acceleration_Z,Gyro_X,Gyro_Y,Gyro_Z
2026-01-04T13:53:57.727091,9.485148,-2.053041,0.722632,-0.050090,0.015882,0.041538
2026-01-04T13:53:57.737091,9.451649,-2.009970,0.713061,-0.019547,-0.010995,0.041538
2026-01-04T13:53:57.746091,9.504291,-2.033899,0.665204,0.003665,-0.036651,0.047647
2026-01-04T13:53:57.756091,9.638289,-1.895115,0.641276,0.010995,-0.054977,0.052534
2026-01-04T13:53:57.765091,9.729216,-1.986042,0.650847,0.024434,-0.053756,0.054977
2026-01-04T13:53:57.775091,9.762716,-1.861615,0.674775,0.037873,-0.039095,0.058643
2026-01-04T13:53:57.785091,9.734002,-1.904686,0.684347,0.047647,-0.020769,0.058643
2026-01-04T13:53:57.794091,9.767501,-1.837687,0.770488,0.054977,-0.004886,0.063529
2026-01-04T13:53:57.804091,9.628718,-1.756331,0.646062,0.051312,0.006108,0.064751
2026-01-04T13:53:57.814091,9.504291,-1.689332,0.650847,0.040317,0.007330,0.058643
2026-01-04T13:53:57.823091,9.513862,-1.641476,0.698704,0.018325,-0.008552,0.053756
2026-01-04T13:53:57.833091,9.580861,-1.641476,0.665204,-0.017104,-0.037873,0.052534
2026-01-04T13:53:57.842091,9.595218,-1.746760,0.626919,-0.041538,-0.054977,0.048869
2026-01-04T13:53:57.852091,9.710074,-1.871187,0.746560,-0.047647,-0.050090,0.046425
2026-01-04T13:53:57.862091,9.753144,-1.823330,0.665204,-0.043982,-0.037873,0.047647
2026-01-04T13:53:57.871091,9.676574,-1.885544,0.574277,-0.019547,-0.026878,0.048869
2026-01-04T13:53:57.881091,9.628718,-1.847259,0.713061,0.012217,-0.008552,0.054977
2026-01-04T13:53:57.890091,9.604789,-1.804188,0.717846,0.024434,-0.017104,0.058643
2026-01-04T13:53:57.900091,9.513862,-1.780260,0.732203,0.034208,-0.035430,0.051312
2026-01-04T13:53:57.910091,9.609575,-1.746760,0.799202,0.048869,-0.054977,0.042760
2026-01-04T13:53:57.919091,9.714859,-1.785045,0.794417,0.054977,-0.080634,0.034208
2026-01-04T13:53:57.929091,9.872786,-1.631905,0.689132,0.042760,-0.096516,0.028099
2026-01-04T13:53:57.939091,10.006784,-1.603191,0.756131,0.020769,-0.087964,0.020769
2026-01-04T13:53:57.948091,10.078568,-1.684547,0.684347,-0.008552,-0.061086,0.018325
2026-01-04T13:53:57.958091,10.054640,-1.737189,0.741775,-0.024434,-0.020769,0.021991
2026-01-04T13:53:57.967091,9.911071,-1.789831,0.794417,-0.037873,0.001221,0.014660
2026-01-04T13:53:57.977091,9.695717,-1.861615,0.861416,-0.047647,0.003665,0.012217
2026-01-04T13:53:57.987091,9.638289,-1.895115,0.880558,-0.046425,-0.015882,0.007330
2026-01-04T13:53:57.996091,9.590432,-1.933400,0.880558,-0.025656,-0.042760,-0.003665
2026-01-04T13:53:58.006091,9.710074,-1.947757,0.909272,0.002443,-0.065973,-0.009773
2026-01-04T13:53:58.015091,9.829715,-2.009970,0.861416,0.018325,-0.074525,0.000000
2026-01-04T13:53:58.025091,9.949356,-1.919043,0.866201,0.029321,-0.061086,0.007330
2026-01-04T13:53:58.035091,9.939785,-1.813759,0.866201,0.028099,-0.034208,0.023212
2026-01-04T13:53:58.044091,9.839286,-1.799402,0.832702,0.006108,-0.002443,0.034208
2026-01-04T13:53:58.054091,9.767501,-1.804188,0.799202,-0.017104,0.015882,0.037873
2026-01-04T13:53:58.064091,9.647860,-1.713260,0.856630,-0.036651,0.018325,0.040317
2026-01-04T13:53:58.073091,9.609575,-1.770688,0.837487,-0.052534,0.003665,0.035430
2026-01-04T13:53:58.083091,9.652646,-1.804188,0.847059,-0.052534,-0.015882,0.025656
2026-01-04T13:53:58.092091,9.681360,-1.847259,0.861416,-0.046425,-0.037873,0.004886
2026-01-04T13:53:58.102091,9.829715,-1.856830,0.813559,-0.042760,-0.050090,-0.007330
2026-01-04T13:53:58.112091,9.877571,-1.871187,0.770488,-0.035430,-0.043982,-0.012217
2026-01-04T13:53:58.121091,9.896714,-1.861615,0.813559,-0.025656,-0.023212,-0.009773
2026-01-04T13:53:58.131091,9.896714,-1.866401,0.832702,-0.021991,0.007330,-0.006108
2026-01-04T13:53:58.140091,9.767501,-1.871187,0.751346,-0.014660,0.030543,0.002443
2026-01-04T13:53:58.150091,9.566504,-1.832902,0.775274,-0.019547,0.035430,0.008552
2026-01-04T13:53:58.160091,9.571290,-1.775474,0.713061,-0.030543,0.024434,0.017104
2026-01-04T13:53:58.169091,9.590432,-1.842473,0.770488,-0.036651,0.000000,0.010995
2026-01-04T13:53:58.179091,9.657432,-1.804188,0.751346,-0.046425,-0.021991,0.009773
2026-01-04T13:53:58.189091,9.815358,-1.751546,0.689132,-0.063529,-0.025656,0.017104
2026-01-04T13:53:58.198091,9.863214,-1.727617,0.655633,-0.080634,-0.026878,0.013439
2026-01-04T13:53:58.208091,9.853643,-1.813759,0.703489,-0.094073,-0.015882,0.009773
2026-01-04T13:53:58.217091,9.791430,-1.794616,0.732203,-0.106290,0.000000,0.010995
2026-01-04T13:53:58.227091,9.834500,-1.880758,0.631705,-0.107512,0.013439,0.017104
2026-01-04T13:53:58.237091,9.729216,-1.890329,0.717846,-0.090408,0.019547,0.012217
2026-01-04T13:53:58.246091,9.600004,-1.823330,0.631705,-0.080634,0.020769,0.015882
2026-01-04T13:53:58.256091,9.547362,-1.828116,0.617348,-0.061086,0.004886,0.009773
2026-01-04T13:53:58.265091,9.537790,-1.866401,0.689132,-0.042760,-0.014660,0.006108
2026-01-04T13:53:58.275091,9.595218,-1.847259,0.713061,-0.037873,-0.034208,0.004886
2026-01-04T13:53:58.285091,9.700502,-1.895115,0.756131,-0.034208,-0.046425,-0.001221
2026-01-04T13:53:58.294091,9.767501,-1.885544,0.732203,-0.026878,-0.046425,0.001221
2026-01-04T13:53:58.304091,9.805787,-1.832902,0.689132,-0.021991,-0.042760,0.002443
2026-01-04T13:53:58.314091,9.801001,-1.789831,0.727418,-0.018325,-0.029321,0.002443
2026-01-04T13:53:58.323091,9.781858,-1.741974,0.780060,-0.021991,-0.015882,0.001221
2026-01-04T13:53:58.333091,9.705288,-1.770688,0.808774,-0.037873,-0.013439,-0.006108
2026-01-04T13:53:58.342091,9.714859,-1.727617,0.732203,-0.046425,-0.013439,-0.004886
2026-01-04T13:53:58.352091,9.638289,-1.780260,0.727418,-0.051312,-0.017104,-0.003665
2026-01-04T13:53:58.362091,9.643075,-1.823330,0.708275,-0.057421,-0.026878,-0.002443
2026-01-04T13:53:58.371091,9.628718,-1.861615,0.732203,-0.056199,-0.029321,0.001221
2026-01-04T13:53:58.381091,9.662217,-1.804188,0.770488,-0.063529,-0.037873,0.001221
2026-01-04T13:53:58.390091,9.662217,-1.875972,0.823130,-0.063529,-0.043982,0.003665
2026-01-04T13:53:58.400091,9.753144,-1.861615,0.784845,-0.052534,-0.048869,0.007330
2026-01-04T13:53:58.410091,9.690931,-1.885544,0.808774,-0.041538,-0.051312,0.004886
2026-01-04T13:53:58.419091,9.748359,-1.832902,0.813559,-0.032986,-0.046425,0.000000
2026-01-04T13:53:58.429091,9.743573,-1.813759,0.775274,-0.026878,-0.037873,0.001221
2026-01-04T13:53:58.439091,9.748359,-1.818545,0.808774,-0.029321,-0.036651,-0.004886
2026-01-04T13:53:58.448091,9.767501,-1.813759,0.794417,-0.024434,-0.034208,-0.010995
2026-01-04T13:53:58.458091,9.681360,-1.808973,0.746560,-0.020769,-0.029321,-0.012217
2026-01-04T13:53:58.467091,9.614361,-1.794616,0.827916,-0.020769,-0.021991,-0.003665
2026-01-04T13:53:58.477091,9.662217,-1.780260,0.899701,-0.021991,-0.013439,0.002443
2026-01-04T13:53:58.487091,9.576076,-1.823330,0.870987,-0.030543,-0.015882,-0.003665
2026-01-04T13:53:58.496091,9.590432,-1.789831,0.904486,-0.031764,-0.035430,-0.012217
2026-01-04T13:53:58.506091,9.643075,-1.842473,0.866201,-0.029321,-0.064751,-0.013439
2026-01-04T13:53:58.515091,9.796215,-1.890329,0.803988,-0.028099,-0.084299,-0.017104
2026-01-04T13:53:58.525091,9.963713,-1.871187,0.923629,-0.015882,-0.068416,-0.013439
2026-01-04T13:53:58.535091,9.992427,-1.871187,0.918843,-0.015882,-0.035430,-0.008552
2026-01-04T13:53:58.544091,9.920642,-1.847259,0.861416,-0.020769,0.001221,-0.002443
2026-01-04T13:53:58.554091,9.762716,-1.804188,0.799202,-0.030543,0.031764,0.000000
2026-01-04T13:53:58.564091,9.595218,-1.861615,0.847059,-0.035430,0.037873,0.003665
2026-01-04T13:53:58.573091,9.494720,-1.933400,0.870987,-0.037873,0.025656,0.001221
2026-01-04T13:53:58.583091,9.422935,-1.904686,0.890130,-0.026878,0.000000,0.002443
2026-01-04T13:53:58.592091,9.537790,-1.923829,0.899701,-0.018325,-0.032986,-0.003665
2026-01-04T13:53:58.602091,9.623932,-1.847259,0.775274,-0.014660,-0.057421,-0.006108
2026-01-04T13:53:58.612091,9.791430,-1.899901,0.837487,-0.014660,-0.062308,-0.006108
2026-01-04T13:53:58.621091,9.896714,-1.871187,0.803988,-0.014660,-0.043982,0.002443
2026-01-04T13:53:58.631091,9.896714,-1.861615,0.780060,-0.014660,-0.008552,0.008552
2026-01-04T13:53:58.640091,9.829715,-1.828116,0.780060,-0.010995,0.021991,0.015882
2026-01-04T13:53:58.650091,9.643075,-1.818545,0.751346,-0.021991,0.034208,0.024434
2026-01-04T13:53:58.660091,9.552147,-1.828116,0.784845,-0.030543,0.024434,0.031764
2026-01-04T13:53:58.669091,9.528219,-1.818545,0.813559,-0.037873,0.004886,0.025656
2026-01-04T13:53:58.679091,9.604789,-1.837687,0.775274,-0.043982,-0.014660,0.026878
2026-01-04T13:53:58.689091,9.681360,-1.847259,0.760917,-0.037873,-0.031764,0.023212
2026-01-04T13:53:58.698091,9.786644,-1.880758,0.751346,-0.025656,-0.032986,0.021991
2026-01-04T13:53:58.708091,9.781858,-1.842473,0.760917,-0.025656,-0.015882,0.026878
2026-01-04T13:53:58.717091,9.767501,-1.837687,0.756131,-0.025656,0.004886,0.032986
2026-01-04T13:53:58.727091,9.681360,-1.808973,0.727418,-0.026878,0.017104,0.035430
2026-01-04T13:53:58.737091,9.604789,-1.799402,0.751346,-0.035430,0.017104,0.032986
2026-01-04T13:53:58.746091,9.542576,-1.856830,0.717846,-0.035430,0.004886,0.032986
2026-01-04T13:53:58.756091,9.595218,-1.837687,0.713061,-0.015882,-0.015882,0.026878
2026-01-04T13:53:58.765091,9.638289,-1.828116,0.746560,-0.001221,-0.032986,0.021991
2026-01-04T13:53:58.775091,9.734002,-1.780260,0.689132,0.001221,-0.042760,0.015882
2026-01-04T13:53:58.785091,9.810572,-1.765903,0.746560,0.003665,-0.042760,0.015882
2026-01-04T13:53:58.794091,9.820143,-1.698904,0.722632,-0.009773,-0.032986,0.012217
2026-01-04T13:53:58.804091,9.810572,-1.737189,0.660419,-0.030543,-0.018325,0.014660
2026-01-04T13:53:58.814091,9.767501,-1.770688,0.746560,-0.034208,-0.002443,0.021991
2026-01-04T13:53:58.823091,9.643075,-1.856830,0.684347,-0.034208,-0.002443,0.028099
2026-01-04T13:53:58.833091,9.580861,-1.866401,0.736989,-0.025656,-0.014660,0.024434
2026-01-04T13:53:58.842091,9.623932,-1.842473,0.693918,-0.007330,-0.029321,0.019547
2026-01-04T13:53:58.852091,9.652646,-1.765903,0.703489,0.017104,-0.039095,0.013439
2026-01-04T13:53:58.862091,9.724431,-1.698904,0.693918,0.019547,-0.046425,0.010995
2026-01-04T13:53:58.871091,9.724431,-1.612762,0.832702,0.006108,-0.048869,0.008552
2026-01-04T13:53:58.881091,9.767501,-1.660618,0.736989,-0.012217,-0.051312,0.002443
2026-01-04T13:53:58.890091,9.767501,-1.689332,0.717846,-0.029321,-0.051312,0.000000
2026-01-04T13:53:58.900091,9.848857,-1.780260,0.669990,-0.031764,-0.052534,0.003665
2026-01-04T13:53:58.910091,9.848857,-1.737189,0.727418,-0.019547,-0.056199,0.002443
2026-01-04T13:53:58.919091,9.901499,-1.799402,0.646062,-0.008552,-0.053756,-0.004886
2026-01-04T13:53:58.929091,9.839286,-1.737189,0.717846,0.003665,-0.043982,-0.008552
2026-01-04T13:53:58.939091,9.839286,-1.727617,0.741775,0.007330,-0.041538,-0.012217
2026-01-04T13:53:58.948091,9.786644,-1.689332,0.722632,0.009773,-0.034208,-0.012217
2026-01-04T13:53:58.958091,9.724431,-1.737189,0.856630,0.004886,-0.034208,-0.017104
2026-01-04T13:53:58.967091,9.676574,-1.761117,0.885344,0.000000,-0.035430,-0.019547
2026-01-04T13:53:58.977091,9.633503,-1.756331,0.890130,0.002443,-0.045204,-0.021991
2026-01-04T13:53:58.987091,9.690931,-1.813759,0.856630,0.000000,-0.056199,-0.023212
2026-01-04T13:53:58.996091,9.777073,-1.794616,0.890130,0.003665,-0.061086,-0.018325
2026-01-04T13:53:59.006091,9.791430,-1.837687,0.861416,0.015882,-0.054977,-0.012217
2026-01-04T13:53:59.015091,9.762716,-1.737189,0.818345,0.018325,-0.046425,-0.009773
2026-01-04T13:53:59.025091,9.844072,-1.746760,0.832702,0.013439,-0.030543,-0.004886
2026-01-04T13:53:59.035091,9.743573,-1.627119,0.808774,-0.002443,-0.018325,-0.004886
2026-01-04T13:53:59.044091,9.671788,-1.651047,0.765703,-0.021991,-0.020769,-0.007330
2026-01-04T13:53:59.054091,9.710074,-1.651047,0.837487,-0.040317,-0.024434,-0.007330
2026-01-04T13:53:59.064091,9.676574,-1.799402,0.789631,-0.045204,-0.030543,-0.009773
2026-01-04T13:53:59.073091,9.753144,-1.847259,0.847059,-0.039095,-0.039095,-0.015882
2026-01-04T13:53:59.083091,9.762716,-1.899901,0.870987,-0.026878,-0.043982,-0.015882
2026-01-04T13:53:59.092091,9.777073,-1.914258,0.780060,-0.001221,-0.042760,-0.017104
2026-01-04T13:53:59.102091,9.829715,-1.861615,0.813559,0.030543,-0.026878,-0.010995
2026-01-04T13:53:59.112091,9.729216,-1.770688,0.856630,0.037873,-0.012217,-0.006108
2026-01-04T13:53:59.121091,9.657432,-1.732403,0.842273,0.030543,0.003665,0.002443
2026-01-04T13:53:59.131091,9.566504,-1.607976,0.880558,0.014660,0.004886,0.007330
2026-01-04T13:53:59.140091,9.623932,-1.636690,0.751346,-0.004886,-0.012217,0.010995
2026-01-04T13:53:59.150091,9.614361,-1.674975,0.751346,-0.023212,-0.040317,0.004886
2026-01-04T13:53:59.160091,9.748359,-1.718046,0.713061,-0.029321,-0.059864,-0.001221
2026-01-04T13:53:59.169091,9.911071,-1.808973,0.770488,-0.023212,-0.051312,-0.001221
2026-01-04T13:53:59.179091,9.939785,-1.804188,0.770488,-0.017104,-0.034208,-0.007330
2026-01-04T13:53:59.189091,9.829715,-1.813759,0.722632,-0.004886,-0.023212,-0.008552
2026-01-04T13:53:59.198091,9.781858,-1.866401,0.708275,0.012217,-0.024434,-0.012217
2026-01-04T13:53:59.208091,9.767501,-1.866401,0.741775,0.036651,-0.028099,-0.009773
2026-01-04T13:53:59.217091,9.810572,-1.761117,0.756131,0.051312,-0.026878,-0.003665
2026-01-04T13:53:59.227091,9.762716,-1.713260,0.851844,0.051312,-0.028099,0.002443
2026-01-04T13:53:59.237091,9.786644,-1.651047,0.866201,0.041538,-0.026878,0.007330
2026-01-04T13:53:59.246091,9.714859,-1.574477,0.832702,0.020769,-0.020769,0.013439
2026-01-04T13:53:59.256091,9.724431,-1.679761,0.890130,-0.004886,-0.017104,0.020769
2026-01-04T13:53:59.265091,9.671788,-1.722832,0.794417,-0.014660,-0.014660,0.021991
2026-01-04T13:53:59.275091,9.676574,-1.741974,0.823130,-0.007330,-0.017104,0.021991
2026-01-04T13:53:59.285091,9.676574,-1.737189,0.851844,0.007330,-0.020769,0.014660
2026-01-04T13:53:59.294091,9.734002,-1.708475,0.842273,0.014660,-0.029321,0.008552
2026-01-04T13:53:59.304091,9.714859,-1.674975,0.799202,0.007330,-0.029321,0.012217
2026-01-04T13:53:59.314091,9.791430,-1.593619,0.746560,-0.001221,-0.024434,0.008552
2026-01-04T13:53:59.323091,9.734002,-1.655833,0.780060,-0.009773,-0.010995,0.012217
2026-01-04T13:53:59.333091,9.848857,-1.785045,0.789631,-0.020769,-0.012217,0.010995
2026-01-04T13:53:59.342091,9.772287,-1.871187,0.789631,-0.012217,-0.010995,0.006108
2026-01-04T13:53:59.352091,9.738787,-1.828116,0.799202,0.008552,-0.010995,0.003665
2026-01-04T13:53:59.362091,9.729216,-1.828116,0.775274,0.040317,-0.010995,0.002443
2026-01-04T13:53:59.371091,9.738787,-1.722832,0.717846,0.057421,-0.014660,-0.003665
2026-01-04T13:53:59.381091,9.748359,-1.655833,0.722632,0.047647,-0.012217,0.000000
2026-01-04T13:53:59.390091,9.724431,-1.607976,0.789631,0.034208,-0.012217,-0.002443
2026-01-04T13:53:59.400091,9.700502,-1.598405,0.708275,0.009773,-0.015882,0.009773
2026-01-04T13:53:59.410091,9.719645,-1.617548,0.665204,-0.010995,-0.021991,0.008552
2026-01-04T13:53:59.419091,9.767501,-1.655833,0.703489,-0.021991,-0.018325,0.014660
2026-01-04T13:53:59.429091,9.757930,-1.756331,0.708275,-0.031764,-0.019547,0.015882
2026-01-04T13:53:59.439091,9.743573,-1.770688,0.689132,-0.028099,-0.010995,0.018325
2026-01-04T13:53:59.448091,9.734002,-1.727617,0.713061,-0.010995,-0.008552,0.018325
2026-01-04T13:53:59.458091,9.652646,-1.713260,0.693918,0.000000,-0.009773,0.018325
2026-01-04T13:53:59.467091,9.667003,-1.703689,0.736989,0.010995,-0.013439,0.020769
2026-01-04T13:53:59.477091,9.623932,-1.732403,0.732203,0.015882,-0.028099,0.018325
2026-01-04T13:53:59.487091,9.623932,-1.756331,0.708275,0.020769,-0.037873,0.014660
2026-01-04T13:53:59.496091,9.710074,-1.780260,0.732203,0.034208,-0.050090,0.009773
2026-01-04T13:53:59.506091,9.757930,-1.761117,0.765703,0.050090,-0.053756,0.014660
2026-01-04T13:53:59.515091,9.719645,-1.641476,0.717846,0.057421,-0.051312,0.015882
2026-01-04T13:53:59.525091,9.820143,-1.574477,0.698704,0.054977,-0.040317,0.010995
2026-01-04T13:53:59.535091,9.829715,-1.507478,0.765703,0.036651,-0.024434,0.018325
2026-01-04T13:53:59.544091,9.781858,-1.507478,0.770488,0.001221,-0.017104,0.025656
2026-01-04T13:53:59.554091,9.777073,-1.497906,0.722632,-0.030543,-0.008552,0.028099
2026-01-04T13:53:59.564091,9.676574,-1.598405,0.684347,-0.043982,-0.003665,0.031764
2026-01-04T13:53:59.573091,9.647860,-1.674975,0.803988,-0.056199,-0.013439,0.030543
2026-01-04T13:53:59.583091,9.671788,-1.761117,0.717846,-0.057421,-0.026878,0.032986
2026-01-04T13:53:59.592091,9.686145,-1.799402,0.727418,-0.034208,-0.043982,0.023212
2026-01-04T13:53:59.602091,9.791430,-1.828116,0.794417,-0.006108,-0.058643,0.015882
2026-01-04T13:53:59.612091,9.805787,-1.813759,0.698704,0.030543,-0.057421,0.014660
2026-01-04T13:53:59.621091,9.815358,-1.694118,0.784845,0.063529,-0.043982,0.012217
2026-01-04T13:53:59.631091,9.834500,-1.588834,0.717846,0.069638,-0.024434,0.015882
2026-01-04T13:53:59.640091,9.667003,-1.493121,0.722632,0.057421,-0.008552,0.017104
2026-01-04T13:53:59.650091,9.590432,-1.435693,0.732203,0.037873,0.001221,0.015882
2026-01-04T13:53:59.660091,9.504291,-1.411765,0.689132,0.001221,-0.007330,0.018325
2026-01-04T13:53:59.669091,9.494720,-1.445264,0.818345,-0.030543,-0.024434,0.020769
2026-01-04T13:53:59.679091,9.561719,-1.612762,0.760917,-0.043982,-0.050090,0.014660
2026-01-04T13:53:59.689091,9.686145,-1.636690,0.741775,-0.048869,-0.064751,0.009773
2026-01-04T13:53:59.698091,9.820143,-1.694118,0.713061,-0.040317,-0.059864,0.010995
2026-01-04T13:53:59.708091,9.796215,-1.694118,0.736989,-0.024434,-0.045204,0.013439
2026-01-04T13:53:59.717091,9.820143,-1.727617,0.684347,-0.013439,-0.030543,0.015882
2026-01-04T13:53:59.727091,9.805787,-1.651047,0.689132,0.003665,-0.008552,0.017104
2026-01-04T13:53:59.737091,9.734002,-1.708475,0.713061,0.017104,0.001221,0.018325
2026-01-04T13:53:59.746091,9.638289,-1.593619,0.674775,0.019547,-0.013439,0.014660
2026-01-04T13:53:59.756091,9.628718,-1.631905,0.760917,0.025656,-0.029321,0.014660
2026-01-04T13:53:59.765091,9.633503,-1.607976,0.717846,0.030543,-0.050090,0.006108
2026-01-04T13:53:59.775091,9.729216,-1.622333,0.770488,0.029321,-0.059864,0.003665
2026-01-04T13:53:59.785091,9.757930,-1.607976,0.756131,0.026878,-0.059864,0.004886
2026-01-04T13:53:59.794091,9.801001,-1.593619,0.751346,0.023212,-0.052534,0.008552
2026-01-04T13:53:59.804091,9.824929,-1.555334,0.727418,0.017104,-0.050090,0.009773
2026-01-04T13:53:59.814091,9.786644,-1.588834,0.684347,0.018325,-0.045204,0.004886
2026-01-04T13:53:59.823091,9.810572,-1.497906,0.760917,0.024434,-0.032986,0.001221
2026-01-04T13:53:59.833091,9.757930,-1.459621,0.703489,0.014660,-0.026878,0.001221
2026-01-04T13:53:59.842091,9.738787,-1.478764,0.746560,-0.001221,-0.028099,-0.001221
2026-01-04T13:53:59.852091,9.805787,-1.483550,0.756131,-0.020769,-0.048869,-0.003665
2026-01-04T13:53:59.862091,9.868000,-1.550549,0.708275,-0.039095,-0.064751,-0.012217
2026-01-04T13:53:59.871091,9.997212,-1.698904,0.736989,-0.042760,-0.058643,-0.018325
2026-01-04T13:53:59.881091,10.025926,-1.751546,0.736989,-0.034208,-0.045204,-0.018325
2026-01-04T13:53:59.890091,10.030712,-1.780260,0.765703,-0.013439,-0.026878,-0.017104
2026-01-04T13:53:59.900091,9.901499,-1.722832,0.784845,0.002443,-0.012217,-0.018325
2026-01-04T13:53:59.910091,9.820143,-1.694118,0.794417,0.021991,-0.006108,-0.015882
2026-01-04T13:53:59.919091,9.729216,-1.607976,0.789631,0.025656,-0.014660,-0.013439
2026-01-04T13:53:59.929091,9.690931,-1.588834,0.861416,0.020769,-0.021991,-0.012217
2026-01-04T13:53:59.939091,9.609575,-1.617548,0.894915,0.019547,-0.020769,-0.013439
2026-01-04T13:53:59.948091,9.600004,-1.684547,0.918843,0.019547,-0.023212,-0.014660
2026-01-04T13:53:59.958091,9.647860,-1.660618,0.827916,0.024434,-0.024434,-0.015882
2026-01-04T13:53:59.967091,9.609575,-1.641476,0.870987,0.029321,-0.028099,-0.013439
2026-01-04T13:53:59.977091,9.705288,-1.603191,0.866201,0.028099,-0.024434,-0.012217
2026-01-04T13:53:59.987091,9.748359,-1.493121,0.823130,0.019547,-0.024434,-0.014660
2026-01-04T13:53:59.996091,9.738787,-1.560120,0.818345,0.004886,-0.020769,-0.007330
2026-01-04T13:54:00.006091,9.820143,-1.560120,0.813559,-0.015882,-0.025656,-0.008552
2026-01-04T13:54:00.015091,9.891928,-1.564905,0.765703,-0.029321,-0.024434,-0.008552
2026-01-04T13:54:00.025091,9.887142,-1.631905,0.703489,-0.026878,-0.015882,-0.003665
2026-01-04T13:54:00.035091,9.882357,-1.660618,0.650847,-0.007330,0.000000,-0.006108
2026-01-04T13:54:00.044091,9.805787,-1.689332,0.784845,0.026878,0.018325,-0.010995
2026-01-04T13:54:00.054091,9.705288,-1.536192,0.713061,0.047647,0.025656,-0.017104
2026-01-04T13:54:00.064091,9.623932,-1.464407,0.727418,0.058643,0.020769,-0.017104
2026-01-04T13:54:00.073091,9.580861,-1.311266,0.837487,0.054977,-0.004886,-0.023212
2026-01-04T13:54:00.083091,9.690931,-1.349551,0.760917,0.054977,-0.028099,-0.029321
2026-01-04T13:54:00.092091,9.772287,-1.339980,0.775274,0.042760,-0.041538,-0.036651
2026-01-04T13:54:00.102091,9.954142,-1.272981,0.813559,0.028099,-0.041538,-0.040317
2026-01-04T13:54:00.112091,9.925428,-1.349551,0.736989,0.014660,-0.024434,-0.035430
2026-01-04T13:54:00.121091,9.944570,-1.335195,0.789631,0.001221,-0.013439,-0.040317
2026-01-04T13:54:00.131091,9.906285,-1.349551,0.775274,0.002443,0.001221,-0.041538
2026-01-04T13:54:00.140091,9.911071,-1.349551,0.823130,0.010995,0.003665,-0.050090
2026-01-04T13:54:00.150091,10.001998,-1.244267,0.775274,0.029321,-0.004886,-0.051312
2026-01-04T13:54:00.160091,9.949356,-1.138983,0.890130,0.057421,-0.023212,-0.058643
2026-01-04T13:54:00.169091,10.107282,-1.014556,0.894915,0.065973,-0.031764,-0.062308
2026-01-04T13:54:00.179091,10.207781,-0.832702,0.918843,0.052534,-0.010995,-0.064751
2026-01-04T13:54:00.189091,10.217352,-0.689132,0.890130,0.013439,0.032986,-0.057421
2026-01-04T13:54:00.198091,10.021141,-0.669990,0.885344,-0.035430,0.070860,-0.053756
2026-01-04T13:54:00.208091,9.868000,-0.746560,0.976271,-0.097738,0.097738,-0.052534
2026-01-04T13:54:00.217091,9.738787,-0.909272,0.904486,-0.139277,0.091629,-0.074525
2026-01-04T13:54:00.227091,9.600004,-1.076770,0.952343,-0.140498,0.068416,-0.098960
2026-01-04T13:54:00.237091,9.657432,-1.115055,0.885344,-0.109955,0.040317,-0.134390
2026-01-04T13:54:00.246091,9.734002,-1.143769,0.918843,-0.058643,0.009773,-0.169820
2026-01-04T13:54:00.256091,9.815358,-1.043270,0.942772,-0.018325,-0.008552,-0.206472
2026-01-04T13:54:00.265091,9.877571,-0.985842,0.923629,0.000000,-0.003665,-0.230907
2026-01-04T13:54:00.275091,10.001998,-0.914058,0.923629,0.006108,0.001221,-0.246789
2026-01-04T13:54:00.285091,10.016355,-0.957129,0.875773,0.002443,0.008552,-0.257785
2026-01-04T13:54:00.294091,10.045069,-1.062413,0.904486,-0.002443,0.028099,-0.257785
2026-01-04T13:54:00.304091,10.064211,-1.110269,0.842273,-0.009773,0.046425,-0.252898
2026-01-04T13:54:00.314091,9.915856,-1.138983,0.823130,-0.023212,0.047647,-0.255341
2026-01-04T13:54:00.323091,9.791430,-1.272981,0.818345,-0.035430,0.042760,-0.252898
2026-01-04T13:54:00.333091,9.839286,-1.325623,0.899701,-0.042760,0.024434,-0.259006
2026-01-04T13:54:00.342091,9.844072,-1.464407,0.885344,-0.028099,0.013439,-0.268780
2026-01-04T13:54:00.352091,9.877571,-1.584048,0.947557,-0.003665,-0.008552,-0.287106
2026-01-04T13:54:00.362091,9.877571,-1.560120,0.918843,0.028099,-0.020769,-0.296880
2026-01-04T13:54:00.371091,9.872786,-1.603191,0.985842,0.068416,-0.026878,-0.304210
2026-01-04T13:54:00.381091,9.839286,-1.598405,1.062413,0.097738,-0.029321,-0.307876
2026-01-04T13:54:00.390091,9.858429,-1.660618,1.115055,0.119729,-0.024434,-0.306654
2026-01-04T13:54:00.400091,9.767501,-1.818545,1.263410,0.139277,-0.007330,-0.294436
2026-01-04T13:54:00.410091,9.633503,-1.847259,1.411765,0.155159,0.001221,-0.276111
2026-01-04T13:54:00.419091,9.571290,-1.981257,1.344766,0.162490,0.012217,-0.248011
2026-01-04T13:54:00.429091,9.389435,-2.014756,1.296909,0.166155,0.029321,-0.217467
2026-01-04T13:54:00.439091,9.260223,-1.976471,1.210768,0.174707,0.040317,-0.194255
2026-01-04T13:54:00.448091,9.174081,-1.895115,1.378265,0.175929,0.035430,-0.179594
2026-01-04T13:54:00.458091,9.087940,-1.895115,1.526620,0.160046,0.029321,-0.169820
2026-01-04T13:54:00.467091,9.044869,-1.861615,1.560120,0.128281,0.042760,-0.162490
2026-01-04T13:54:00.477091,8.920442,-2.009970,1.555334,0.107512,0.067195,-0.167377
2026-01-04T13:54:00.487091,8.729016,-2.182254,1.636690,0.116064,0.106290,-0.174707
2026-01-04T13:54:00.496091,8.499305,-2.349751,1.521835,0.152716,0.150272,-0.174707
2026-01-04T13:54:00.506091,8.245666,-2.455035,1.373480,0.211359,0.182037,-0.172263
2026-01-04T13:54:00.515091,7.982456,-2.340180,1.392622,0.282219,0.186924,-0.161268
2026-01-04T13:54:00.525091,7.805387,-2.201396,1.464407,0.318871,0.160046,-0.140498
2026-01-04T13:54:00.535091,7.834101,-1.990828,1.378265,0.283441,0.118507,-0.114842
2026-01-04T13:54:00.544091,7.848458,-1.866401,1.363908,0.195476,0.075747,-0.080634
2026-01-04T13:54:00.554091,7.996813,-1.866401,1.397408,0.070860,0.052534,-0.028099
2026-01-04T13:54:00.564091,8.092526,-2.115255,1.416550,-0.056199,0.045204,0.036651
2026-01-04T13:54:00.573091,8.011170,-2.450250,1.560120,-0.125838,0.065973,0.098960
2026-01-04T13:54:00.583091,7.872386,-2.713460,1.804188,-0.108733,0.113620,0.160046
2026-01-04T13:54:00.592091,7.613961,-2.933600,2.009970,-0.017104,0.157603,0.216246
2026-01-04T13:54:00.602091,7.269395,-3.019742,2.177468,0.108733,0.193033,0.268780
2026-01-04T13:54:00.612091,6.910471,-2.880958,1.832902,0.267558,0.235793,0.313984
2026-01-04T13:54:00.621091,6.470192,-2.675175,1.593619,0.439822,0.265115,0.340862
2026-01-04T13:54:00.631091,6.178267,-2.411965,1.349551,0.566882,0.268780,0.365297
2026-01-04T13:54:00.640091,5.943771,-2.076970,1.368694,0.637743,0.251676,0.389731
2026-01-04T13:54:00.650091,5.862415,-1.842473,1.469193,0.648738,0.216246,0.414166
2026-01-04T13:54:00.660091,5.996413,-1.722832,1.674975,0.597426,0.174707,0.447153
2026-01-04T13:54:00.669091,6.130411,-1.588834,1.603191,0.491135,0.134390,0.497244
2026-01-04T13:54:00.679091,6.369693,-1.603191,1.421336,0.370184,0.107512,0.554665
2026-01-04T13:54:00.689091,6.460621,-1.631905,1.316052,0.257785,0.080634,0.610865
2026-01-04T13:54:00.698091,6.642475,-1.799402,1.210768,0.162490,0.057421,0.665842
2026-01-04T13:54:00.708091,6.733402,-1.923829,1.335195,0.123394,0.061086,0.719599
2026-01-04T13:54:00.717091,6.805187,-1.995614,1.612762,0.150272,0.083077,0.751364
2026-01-04T13:54:00.727091,6.728617,-2.053041,1.210768,0.169820,0.135612,0.792902
2026-01-04T13:54:00.737091,6.565905,-2.187039,0.866201,0.232128,0.219911,0.818559
2026-01-04T13:54:00.746091,6.254838,-2.177468,0.880558,0.348193,0.310319,0.842993
2026-01-04T13:54:00.756091,5.867201,-2.153540,0.784845,0.417831,0.343306,0.894306
2026-01-04T13:54:00.765091,5.632704,-2.110469,0.803988,0.445931,0.313984,0.943175
2026-01-04T13:54:00.775091,5.479563,-1.895115,1.186840,0.445931,0.238237,0.982271
2026-01-04T13:54:00.785091,5.584847,-1.718046,1.564905,0.340862,0.123394,1.047022
2026-01-04T13:54:00.794091,6.001199,-1.780260,1.579262,0.138055,0.007330,1.119104
2026-01-04T13:54:00.804091,6.451049,-2.177468,1.603191,-0.023212,-0.053756,1.170417
2026-01-04T13:54:00.814091,6.723831,-2.656033,1.832902,-0.059864,-0.042760,1.204625
2026-01-04T13:54:00.823091,6.857829,-3.129811,1.842473,-0.015882,0.013439,1.216843
2026-01-04T13:54:00.833091,6.958328,-3.507877,1.703689,0.098960,0.090408,1.202182
2026-01-04T13:54:00.842091,6.963113,-3.574876,1.818545,0.333532,0.160046,1.153313
2026-01-04T13:54:00.852091,7.140182,-3.455235,1.555334,0.555887,0.196698,1.108109
2026-01-04T13:54:00.862091,7.470392,-3.708875,1.071984,0.686612,0.240680,1.110552
2026-01-04T13:54:00.871091,8.030312,-3.976871,1.521835,0.792902,0.298102,1.137430
2026-01-04T13:54:00.881091,8.575876,-4.096512,1.780260,0.851545,0.353080,1.196073
2026-01-04T13:54:00.890091,9.068797,-3.823730,1.976471,0.814894,0.409279,1.279151
2026-01-04T13:54:00.900091,9.475577,-3.268595,2.383251,0.697607,0.452040,1.367116
2026-01-04T13:54:00.910091,9.719645,-2.895315,2.388036,0.411723,0.482583,1.478293
2026-01-04T13:54:00.919091,9.791430,-3.096312,2.062613,0.058643,0.499687,1.583362
2026-01-04T13:54:00.929091,9.934999,-3.651447,1.670190,-0.162490,0.483805,1.628566
2026-01-04T13:54:00.939091,9.896714,-4.407579,1.679761,-0.228463,0.426383,1.643227
2026-01-04T13:54:00.948091,9.958927,-5.096712,1.684547,-0.167377,0.343306,1.626122
2026-01-04T13:54:00.958091,10.030712,-5.513063,1.622333,0.043982,0.255341,1.602910
2026-01-04T13:54:00.967091,10.011569,-5.436492,1.316052,0.306654,0.191811,1.590692
2026-01-04T13:54:00.977091,9.930213,-5.020141,1.143769,0.514348,0.166155,1.612683
2026-01-04T13:54:00.987091,9.695717,-4.646861,1.306481,0.652403,0.164933,1.642005
2026-01-04T13:54:00.996091,9.288937,-4.369294,1.584048,0.686612,0.152716,1.672548
2026-01-04T13:54:01.006091,8.867800,-4.249652,1.804188,0.623082,0.096516,1.689652
2026-01-04T13:54:01.015091,8.614161,-4.230510,1.780260,0.511904,-0.030543,1.695761
2026-01-04T13:54:01.025091,8.786444,-4.268795,1.875972,0.375071,-0.216246,1.684765
2026-01-04T13:54:01.035091,9.159724,-4.388436,1.928615,0.233350,-0.425162,1.634675
2026-01-04T13:54:01.044091,9.934999,-4.680361,1.655833,0.123394,-0.579100,1.587027
2026-01-04T13:54:01.054091,10.528419,-4.948357,1.354337,0.086742,-0.599869,1.549153
2026-01-04T13:54:01.064091,10.748559,-5.264209,1.316052,0.118507,-0.489913,1.519832
2026-01-04T13:54:01.073091,10.528419,-5.704489,1.134197,0.183259,-0.313984,1.517388
2026-01-04T13:54:01.083091,9.839286,-6.135197,1.196411,0.343306,-0.134390,1.507615
2026-01-04T13:54:01.092091,8.953942,-6.369693,1.320838,0.543669,-0.041538,1.481958
2026-01-04T13:54:01.102091,8.370093,-6.752545,1.272981,0.651182,-0.101403,1.467297
2026-01-04T13:54:01.112091,8.417949,-7.015755,1.239482,0.700051,-0.294436,1.453858
2026-01-04T13:54:01.121091,9.040083,-6.915257,1.138983,0.691499,-0.518013,1.459967
2026-01-04T13:54:01.131091,9.934999,-6.513263,1.124626,0.540004,-0.649960,1.508836
2026-01-04T13:54:01.140091,10.619346,-6.130411,0.909272,0.226020,-0.662177,1.577253
2026-01-04T13:54:01.150091,11.026126,-5.828915,1.009771,-0.180816,-0.581543,1.672548
2026-01-04T13:54:01.160091,10.853843,-5.948556,1.196411,-0.592539,-0.456927,1.722639
2026-01-04T13:54:01.169091,10.537990,-6.857829,1.962114,-0.897971,-0.304210,1.716530
2026-01-04T13:54:01.179091,9.973284,-8.609375,2.431107,-0.961501,-0.106290,1.688431
2026-01-04T13:54:01.189091,9.288937,-10.399207,2.924029,-0.684168,0.075747,1.670105
2026-01-04T13:54:01.198091,8.609375,-11.739187,2.866601,-0.100181,0.150272,1.643227
2026-01-04T13:54:01.208091,8.331808,-12.323036,2.287538,0.669508,0.118507,1.571145
2026-01-04T13:54:01.217091,8.590233,-11.949756,1.325623,1.456302,0.021991,1.510058
2026-01-04T13:54:01.227091,9.178867,-10.767701,0.727418,2.113593,-0.061086,1.467297
2026-01-04T13:54:01.237091,9.805787,-8.882157,0.861416,2.469116,-0.034208,1.445306
2026-01-04T13:54:01.246091,9.982855,-6.862615,0.971485,2.439795,0.124616,1.495397
2026-01-04T13:54:01.256091,9.580861,-4.867001,1.316052,2.091602,0.333532,1.554040
2026-01-04T13:54:01.265091,8.815158,-3.220739,1.957328,1.473406,0.491135,1.600466
2026-01-04T13:54:01.275091,8.111668,-2.383251,2.569891,0.614530,0.499687,1.650557
2026-01-04T13:54:01.285091,7.843672,-2.694318,3.354737,-0.339641,0.342084,1.683544
2026-01-04T13:54:01.294091,8.298308,-4.297509,4.091726,-1.165530,0.073303,1.682322
2026-01-04T13:54:01.304091,9.442077,-6.833901,4.091726,-1.655444,-0.125838,1.639561
2026-01-04T13:54:01.314091,10.628917,-9.303294,3.512663,-1.720196,-0.086742,1.615127
2026-01-04T13:54:01.323091,11.236694,-11.370692,3.005385,-1.395215,0.186924,1.606575
2026-01-04T13:54:01.333091,11.030912,-12.284751,2.005185,-0.897971,0.555887,1.646892
2026-01-04T13:54:01.342091,10.040283,-11.959327,1.043270,-0.361632,0.871093,1.716530
2026-01-04T13:54:01.352091,8.752945,-10.480562,1.828116,0.097738,1.001818,1.690874
2026-01-04T13:54:01.362091,7.757530,-8.561519,2.627319,0.256563,0.938288,1.576031
2026-01-04T13:54:01.371091,7.073183,-7.240681,3.096312,0.105068,0.777020,1.408654
2026-01-04T13:54:01.381091,6.982256,-6.608976,3.388236,-0.295658,0.554665,1.230282
2026-01-04T13:54:01.390091,7.537391,-7.010970,3.215953,-0.836885,0.261450,1.042135
2026-01-04T13:54:01.400091,8.776873,-8.073383,2.756531,-1.286481,-0.001221,0.830776
2026-01-04T13:54:01.410091,10.145567,-9.351150,2.660818,-1.429424,-0.068416,0.597426
2026-01-04T13:54:01.419091,10.973484,-10.198209,2.895315,-1.285260,0.122173,0.375071
2026-01-04T13:54:01.429091,10.896914,-10.399207,2.574677,-0.906523,0.477696,0.160046
2026-01-04T13:54:01.439091,9.820143,-10.092925,2.177468,-0.476474,0.846659,-0.036651
2026-01-04T13:54:01.448091,8.417949,-9.623932,2.210968,-0.142942,1.032362,-0.262671
2026-01-04T13:54:01.458091,7.298108,-9.255437,2.708675,0.047647,0.918741,-0.554665
2026-01-04T13:54:01.467091,7.121040,-9.183653,3.148954,0.009773,0.509461,-0.864984
2026-01-04T13:54:01.477091,8.164310,-9.705288,3.416950,-0.141720,-0.053756,-1.194852
2026-01-04T13:54:01.487091,10.059426,-10.179067,3.464807,-0.163711,-0.513126,-1.533271
2026-01-04T13:54:01.496091,11.868400,-10.308279,3.091526,-0.046425,-0.686612,-1.804495
2026-01-04T13:54:01.506091,12.973884,-9.939785,2.713460,0.142942,-0.536339,-1.976759
2026-01-04T13:54:01.515091,12.911670,-8.930013,2.354537,0.320093,-0.161268,-2.063502
2026-01-04T13:54:01.525091,11.729616,-7.652246,2.665604,0.387288,0.219911,-2.136806
2026-01-04T13:54:01.535091,10.021141,-6.642475,2.560320,0.283441,0.425162,-2.265087
2026-01-04T13:54:01.544091,8.499305,-6.178267,2.019542,0.041538,0.382401,-2.401921
2026-01-04T13:54:01.554091,7.508677,-6.340979,1.339980,-0.321315,0.089186,-2.553416
2026-01-04T13:54:01.564091,7.953742,-7.121040,1.052841,-0.768468,-0.458148,-2.685363
2026-01-04T13:54:01.573091,9.681360,-8.063812,0.928415,-1.121548,-1.069013,-2.792875
2026-01-04T13:54:01.583091,12.069397,-8.910871,1.450050,-1.295034,-1.444085,-2.882061
2026-01-04T13:54:01.592091,14.347364,-9.480363,2.584248,-1.372003,-1.420872,-2.921156
2026-01-04T13:54:01.602091,15.605988,-9.786644,2.210968,-1.477071,-1.036027,-2.824640
2026-01-04T13:54:01.612091,15.333207,-9.915856,1.531406,-1.524719,-0.428827,-2.685363
2026-01-04T13:54:01.621091,13.691730,-9.810572,1.172483,-1.376889,0.158824,-2.651154
2026-01-04T13:54:01.631091,11.413763,-9.489934,0.937986,-1.051909,0.472809,-2.682919
2026-01-04T13:54:01.640091,9.533005,-8.963513,1.115055,-0.627969,0.430049,-2.791653
2026-01-04T13:54:01.650091,8.547162,-8.360522,0.555134,-0.142942,0.145385,-2.956587
2026-01-04T13:54:01.660091,8.336593,-7.125825,-0.153140,0.345749,-0.207694,-3.149620
2026-01-04T13:54:01.669091,8.786444,-5.838487,-0.890130,0.723264,-0.497244,-3.320662
2026-01-04T13:54:01.679091,9.633503,-4.508077,-0.416351,0.866206,-0.692721,-3.406183
2026-01-04T13:54:01.689091,10.547562,-3.077169,-0.110069,0.693942,-0.777020,-3.430618
2026-01-04T13:54:01.698091,10.863414,-2.215753,-0.224925,0.204028,-0.762359,-3.358536
2026-01-04T13:54:01.708091,11.274980,-1.823330,0.014356,-0.411723,-0.780685,-3.334101
2026-01-04T13:54:01.717091,11.834900,-1.751546,1.249053,-0.660956,-0.591317,-3.307223
2026-01-04T13:54:01.727091,10.537990,-3.421736,3.799802,-1.679879,-0.757472,-3.158172
2026-01-04T13:54:01.737091,13.198809,-5.125426,1.000199,-2.168571,-0.821002,-3.137403
2026-01-04T13:54:01.746091,13.835300,-6.647261,0.521635,-1.933998,-0.686612,-3.166724
2026-01-04T13:54:01.756091,13.993226,-7.211967,0.555134,-1.440419,-0.466700,-3.180163
2026-01-04T13:54:01.765091,13.366307,-7.101897,-0.334995,-0.847880,-0.228463,-3.208263
2026-01-04T13:54:01.775091,12.236894,-5.915057,-0.669990,-0.284663,-0.131946,-3.270571
2026-01-04T13:54:01.785091,11.318050,-4.187439,-0.674775,-0.020769,-0.280997,-3.310888
2026-01-04T13:54:01.794091,10.872985,-3.134597,-0.478564,-0.065973,-0.572991,-3.262019
2026-01-04T13:54:01.804091,10.963913,-2.349751,-1.459621,0.133168,-0.643851,-3.111746
2026-01-04T13:54:01.814091,11.734402,-1.971685,-0.215354,0.206472,-0.682947,-2.952921
2026-01-04T13:54:01.823091,12.447463,-1.507478,-0.459421,-0.040317,-0.703716,-2.768440
2026-01-04T13:54:01.833091,12.552747,-1.234696,-0.167497,-0.335975,-0.597426,-2.559524
2026-01-04T13:54:01.842091,12.160324,-1.067198,0.291924,-0.635299,-0.423940,-2.361604
2026-01-04T13:54:01.852091,11.490334,-1.172483,0.435493,-0.930958,-0.266337,-2.167349
2026-01-04T13:54:01.862091,10.705488,-1.459621,0.234496,-1.137430,-0.152716,-2.025628
2026-01-04T13:54:01.871091,10.083354,-1.875972,0.248853,-1.192408,-0.106290,-1.944994
2026-01-04T13:54:01.881091,9.710074,-2.167897,0.172283,-1.158200,-0.120951,-1.876577
2026-01-04T13:54:01.890091,9.485148,-2.325823,-0.464207,-1.029918,-0.191811,-1.838703
2026-01-04T13:54:01.900091,9.595218,-2.076970,-0.684347,-0.886976,-0.300545,-1.764178
2026-01-04T13:54:01.910091,9.896714,-1.789831,-0.827916,-0.796568,-0.398284,-1.637118
2026-01-04T13:54:01.919091,10.068997,-1.172483,-0.626919,-0.772133,-0.427605,-1.459967
2026-01-04T13:54:01.929091,9.982855,-0.445065,-0.090927,-0.862541,-0.364075,-1.260825
2026-01-04T13:54:01.939091,9.389435,0.071784,0.363709,-1.080009,-0.240680,-1.071457
2026-01-04T13:54:01.948091,8.575876,0.100498,0.646062,-1.343903,-0.145385,-0.919962
2026-01-04T13:54:01.958091,7.733602,-0.229710,0.669990,-1.467297,-0.072082,-0.824667
2026-01-04T13:54:01.967091,7.269395,-1.162911,0.875773,-1.240056,0.006108,-0.777020
2026-01-04T13:54:01.977091,5.919843,3.967299,13.442877,-0.813672,0.083077,-0.753807
2026-01-04T13:54:01.987091,7.422535,-2.646461,1.430907,-0.855211,-0.345749,-0.895528
2026-01-04T13:54:01.996091,7.810172,-2.522035,0.421136,-0.487470,-0.502131,-0.984714
2026-01-04T13:54:02.006091,8.001598,-1.909472,0.162711,-0.017104,-0.458148,-0.990823
2026-01-04T13:54:02.015091,7.953742,-0.995414,0.210568,0.272445,-0.356745,-0.917519
2026-01-04T13:54:02.025091,7.546962,-0.224925,0.373280,0.312762,-0.226020,-0.773355
2026-01-04T13:54:02.035091,6.915257,0.267996,0.435493,0.193033,-0.063529,-0.594982
2026-01-04T13:54:02.044091,6.072983,0.512064,0.492921,0.031764,0.087964,-0.408057
2026-01-04T13:54:02.054091,5.101497,0.540777,0.784845,-0.119729,0.173485,-0.282219
2026-01-04T13:54:02.064091,4.187439,0.191425,1.201196,-0.290771,0.102625,-0.222354
2026-01-04T13:54:02.073091,3.885943,0.119641,0.665204,-0.362853,-0.124616,-0.210137
2026-01-04T13:54:02.083091,4.283152,0.119641,0.679561,-0.339641,-0.455705,-0.234572
2026-01-04T13:54:02.092091,5.297709,0.052642,0.684347,-0.312762,-0.763581,-0.250454
2026-01-04T13:54:02.102091,6.661618,0.028713,0.535992,-0.285884,-0.894306,-0.232128
2026-01-04T13:54:02.112091,7.657032,0.100498,0.445065,-0.288328,-0.818559,-0.193033
2026-01-04T13:54:02.121091,7.992027,0.119641,0.325423,-0.312762,-0.557108,-0.105068
2026-01-04T13:54:02.131091,7.398607,0.172283,0.306281,-0.356745,-0.223576,-0.001221
2026-01-04T13:54:02.140091,6.125625,0.277567,0.253639,-0.390953,0.047647,0.103847
2026-01-04T13:54:02.150091,4.685146,0.387637,0.148355,-0.394618,0.173485,0.173485
2026-01-04T13:54:02.160091,3.881158,0.000000,-1.832902,-0.329867,0.129503,0.213802
2026-01-04T13:54:02.169091,2.861815,0.583848,0.296710,-0.036651,0.095294,0.229685
2026-01-04T13:54:02.179091,2.780459,0.588634,0.373280,0.087964,-0.124616,0.205250
2026-01-04T13:54:02.189091,3.388236,0.330209,0.502492,0.123394,-0.334754,0.118507
2026-01-04T13:54:02.198091,4.445864,0.354137,0.607776,0.019547,-0.384845,-0.090408
2026-01-04T13:54:02.208091,5.647061,0.736989,0.736989,-0.059864,-0.299323,-0.316428
2026-01-04T13:54:02.217091,5.867201,1.330409,0.641276,-0.155159,-0.114842,-0.349414
2026-01-04T13:54:02.227091,5.900700,2.024327,1.201196,-0.296880,-0.030543,-0.212581
2026-01-04T13:54:02.237091,5.718846,1.607976,0.416351,-0.280997,-0.070860,0.054977
2026-01-04T13:54:02.246091,5.627918,1.416550,0.258424,-0.394618,-0.134390,0.131946
2026-01-04T13:54:02.256091,6.001199,0.588634,1.038485,-0.503352,-0.256563,0.150272
2026-01-04T13:54:02.265091,6.891329,0.636490,0.947557,-0.439822,-0.488692,0.029321
2026-01-04T13:54:02.275091,8.054240,0.674775,0.885344,-0.431270,-0.712268,-0.034208
2026-01-04T13:54:02.285091,9.351150,0.990628,0.579063,-0.412944,-0.855211,0.015882
2026-01-04T13:54:02.294091,10.542776,1.129412,0.315852,-0.276111,-0.811228,0.312762
2026-01-04T13:54:02.304091,11.557333,0.052642,0.459421,-0.185702,-0.753807,0.454483
2026-01-04T13:54:02.314091,15.543775,0.516849,0.693918,-0.283441,-0.636521,-0.366519
2026-01-04T13:54:02.323091,15.093924,4.058227,-8.575876,-0.238237,-0.599869,-0.619417
2026-01-04T13:54:02.333091,12.074182,0.885344,0.019142,-0.335975,-0.158824,-0.250454
2026-01-04T13:54:02.342091,11.542976,0.354137,0.387637,-0.427605,0.073303,-0.085521
2026-01-04T13:54:02.352091,10.901699,0.224925,0.703489,-0.370184,0.211359,-0.012217
2026-01-04T13:54:02.362091,10.054640,0.330209,0.732203,-0.298102,0.377514,0.059864
2026-01-04T13:54:02.371091,9.092725,0.076570,0.832702,-0.235793,0.570548,0.155159
2026-01-04T13:54:02.381091,8.307880,0.033499,0.937986,-0.127059,0.772133,0.245567
2026-01-04T13:54:02.390091,7.298108,-0.904486,2.531606,0.685390,0.769690,0.194255
2026-01-04T13:54:02.400091,7.848458,-0.957129,1.942971,0.412944,0.324980,0.096516
2026-01-04T13:54:02.410091,7.412964,-0.263210,2.129612,0.301767,0.118507,0.062308
2026-01-04T13:54:02.419091,7.647461,-0.401994,1.914258,0.392175,0.036651,0.024434
2026-01-04T13:54:02.429091,8.039883,-0.349352,1.966900,0.483805,-0.029321,-0.006108
2026-01-04T13:54:02.439091,8.475377,-0.306281,2.000399,0.518013,-0.025656,-0.026878
2026-01-04T13:54:02.448091,8.839086,-0.454636,1.966900,0.493579,0.042760,-0.019547
2026-01-04T13:54:02.458091,9.087940,-0.693918,1.962114,0.460592,0.157603,0.029321
2026-01-04T13:54:02.467091,8.958727,-0.842273,1.804188,0.431270,0.287106,0.090408
2026-01-04T13:54:02.477091,8.484948,-0.904486,1.804188,0.414166,0.406836,0.180816
2026-01-04T13:54:02.487091,8.116454,-0.784845,1.617548,0.384845,0.455705,0.277332
2026-01-04T13:54:02.496091,7.752745,-0.689132,1.359123,0.333532,0.430049,0.362853
2026-01-04T13:54:02.506091,7.566105,-0.684347,1.344766,0.268780,0.379958,0.448374
2026-01-04T13:54:02.515091,7.460820,-0.875773,1.363908,0.199142,0.371405,0.524122
2026-01-04T13:54:02.525091,7.216752,-1.028913,1.359123,0.179594,0.428827,0.593760
2026-01-04T13:54:02.535091,6.857829,-1.153340,1.603191,0.227241,0.519235,0.656069
2026-01-04T13:54:02.544091,6.326622,-1.071984,1.488335,0.295658,0.598647,0.711046
2026-01-04T13:54:02.554091,5.781059,-0.981057,1.354337,0.365297,0.645073,0.762359
2026-01-04T13:54:02.564091,5.149354,-0.823130,1.119840,0.432492,0.658512,0.810007
2026-01-04T13:54:02.573091,4.723431,-0.823130,1.134197,0.455705,0.623082,0.867428
2026-01-04T13:54:02.583091,4.398007,-0.957129,1.167697,0.448374,0.551000,0.926071
2026-01-04T13:54:02.592091,4.388436,-1.354337,1.115055,0.458148,0.449596,0.993266
2026-01-04T13:54:02.602091,4.560719,-1.761117,1.220339,0.489913,0.311541,1.080009
2026-01-04T13:54:02.612091,4.895715,-1.971685,1.296909,0.538783,0.135612,1.221730
2026-01-04T13:54:02.621091,5.283352,-1.660618,0.679561,0.948062,0.180816,1.125213
2026-01-04T13:54:02.631091,6.144768,-2.282752,0.607776,1.260825,0.155159,1.077566
2026-01-04T13:54:02.640091,6.618547,-2.359323,0.693918,1.484402,0.106290,1.077566
2026-01-04T13:54:02.650091,7.355536,-1.823330,0.732203,1.646892,0.091629,1.065348
2026-01-04T13:54:02.660091,8.207381,-1.172483,0.990628,1.696983,0.105068,1.043357
2026-01-04T13:54:02.669091,9.217152,-0.526420,0.598205,1.532049,0.114842,1.056796
2026-01-04T13:54:02.679091,10.250852,-0.287138,-0.110069,1.215621,0.157603,1.093448
2026-01-04T13:54:02.689091,11.035697,-0.167497,-0.162711,0.844215,0.278554,1.127656
2026-01-04T13:54:02.698091,11.361121,-0.397208,-0.267996,0.426383,0.496022,1.199739
2026-01-04T13:54:02.708091,11.097911,-0.942772,-0.411565,0.034208,0.786794,1.299920
2026-01-04T13:54:02.717091,10.164710,-1.732403,-0.655633,-0.156381,1.138652,1.417207
2026-01-04T13:54:02.727091,8.499305,-2.330609,-0.157926,-0.119729,1.434311,1.552819
2026-01-04T13:54:02.737091,7.015755,-2.924029,-0.220139,-0.036651,1.461189,1.666440
2026-01-04T13:54:02.746091,5.881557,-3.220739,0.052642,0.127059,1.238834,1.759291
2026-01-04T13:54:02.756091,5.594419,-3.211167,0.071784,0.335975,0.846659,1.835038
2026-01-04T13:54:02.765091,6.116054,-3.038884,-0.148355,0.565661,0.422718,1.898568
2026-01-04T13:54:02.775091,7.255038,-2.555534,-0.124426,0.788015,0.113620,1.951103
2026-01-04T13:54:02.785091,8.528019,-2.043470,-0.157926,0.877202,0.002443,2.046398
2026-01-04T13:54:02.794091,9.504291,-1.741974,-0.143569,0.838106,0.087964,2.160019
2026-01-04T13:54:02.804091,9.906285,-1.526620,0.000000,0.737925,0.320093,2.263866
2026-01-04T13:54:02.814091,9.585647,-1.435693,-0.291924,0.596204,0.581543,2.342056
2026-01-04T13:54:02.823091,8.886943,-1.493121,-0.368494,0.466700,0.717155,2.367713
2026-01-04T13:54:02.833091,8.465806,-1.842473,-0.325423,0.382401,0.659734,2.329839
2026-01-04T13:54:02.842091,8.484948,-2.574677,-0.550349,0.359188,0.482583,2.266309
2026-01-04T13:54:02.852091,9.001798,-3.436093,-0.507278,0.463035,0.305432,2.208888
2026-01-04T13:54:02.862091,9.628718,-4.039084,-0.435493,0.707381,0.191811,2.166127
2026-01-04T13:54:02.871091,10.217352,-4.115654,-0.588634,0.984714,0.153938,2.166127
2026-01-04T13:54:02.881091,10.667203,-3.986442,-0.421136,1.209512,0.168598,2.216218
2026-01-04T13:54:02.890091,11.006983,-3.555734,0.076570,1.330464,0.190589,2.268753
2026-01-04T13:54:02.900091,11.255837,-2.904886,0.330209,1.276708,0.210137,2.321287
2026-01-04T13:54:02.910091,11.442477,-2.455035,0.248853,1.062905,0.230907,2.361604
2026-01-04T13:54:02.919091,11.490334,-2.191825,0.052642,0.762359,0.262671,2.379930
2026-01-04T13:54:02.929091,11.380264,-2.206182,-0.172283,0.375071,0.304210,2.390926
2026-01-04T13:54:02.939091,10.983055,-2.373680,-0.521635,-0.073303,0.329867,2.421469
2026-01-04T13:54:02.948091,10.600204,-3.024527,-0.468993,-0.478918,0.323758,2.445903
2026-01-04T13:54:02.958091,10.274780,-4.326223,-0.062213,-0.746477,0.252898,2.394591
2026-01-04T13:54:02.967091,10.561918,-6.183053,0.224925,-0.835663,0.124616,2.327396
2026-01-04T13:54:02.977091,11.035697,-8.111668,1.057627,-0.583987,0.084299,2.239431
2026-01-04T13:54:02.987091,11.514262,-9.466006,0.789631,0.117286,0.108733,2.219883
2026-01-04T13:54:02.996091,12.289536,-9.848857,0.574277,1.193630,0.223576,2.222327
2026-01-04T13:54:03.006091,12.232109,-10.159924,1.584048,1.503949,-0.006108,2.081828
2026-01-04T13:54:03.015091,12.677174,-8.173882,0.401994,1.997528,0.036651,1.999972
2026-01-04T13:54:03.025091,12.251251,-6.139982,0.674775,2.428799,0.248011,1.977981
2026-01-04T13:54:03.035091,11.586047,-4.259224,1.067198,2.422691,0.378736,1.995085
2026-01-04T13:54:03.044091,11.093125,-3.163311,0.894915,1.958433,0.350636,2.085493
2026-01-04T13:54:03.054091,11.150553,-2.847458,1.110269,1.215621,0.183259,2.204001
2026-01-04T13:54:03.064091,11.667402,-3.297309,1.488335,0.307876,-0.068416,2.351830
2026-01-04T13:54:03.073091,12.873385,-4.316651,1.866401,-0.563217,-0.295658,2.463008
2026-01-04T13:54:03.083091,13.978869,-5.589633,2.163111,-1.186300,-0.373849,2.515542
2026-01-04T13:54:03.092091,14.548361,-6.924828,2.359323,-1.534493,-0.206472,2.543642
2026-01-04T13:54:03.102091,14.218151,-8.025527,2.947957,-1.560149,0.180816,2.525316
2026-01-04T13:54:03.112091,12.839886,-8.623732,3.617947,-1.297477,0.629191,2.444682
2026-01-04T13:54:03.121091,11.126625,-8.805587,4.527220,-0.902858,0.946840,2.310291
2026-01-04T13:54:03.131091,9.528219,-9.097511,5.733202,-0.416610,1.100778,2.119701
2026-01-04T13:54:03.140091,8.236095,-9.556933,6.044269,0.014660,1.095892,1.929112
2026-01-04T13:54:03.150091,7.532605,-9.982855,4.847858,0.335975,0.921184,1.815491
2026-01-04T13:54:03.160091,7.556533,-9.767501,3.541377,0.632856,0.638964,1.743409
2026-01-04T13:54:03.169091,8.212167,-9.207581,3.024527,0.679282,0.365297,1.717752
2026-01-04T13:54:03.179091,9.255437,-8.532805,2.813959,0.497244,0.206472,1.753182
2026-01-04T13:54:03.189091,9.958927,-7.834101,3.335594,0.218689,0.267558,1.788613
2026-01-04T13:54:03.198091,9.968498,-7.508677,3.541377,-0.243124,0.496022,1.857029
2026-01-04T13:54:03.208091,9.365507,-7.881957,4.163511,-0.788015,0.748920,1.942551
2026-01-04T13:54:03.217091,8.312665,-8.590233,4.407579,-1.231504,0.939510,1.973094
2026-01-04T13:54:03.227091,7.168896,-9.824929,4.086941,-1.611462,1.021366,1.997528
2026-01-04T13:54:03.237091,6.077769,-11.394621,4.254438,-1.721417,1.011592,1.954768
2026-01-04T13:54:03.246091,5.312066,-12.854243,4.589433,-1.494176,0.930958,1.816712
2026-01-04T13:54:03.256091,4.800002,-14.074582,4.067798,-1.116661,0.766024,1.717752
2026-01-04T13:54:03.265091,4.637290,-14.691930,3.139383,-0.505796,0.577878,1.604131
2026-01-04T13:54:03.275091,4.666004,-14.151152,2.483749,0.316428,0.436157,1.426980
2026-01-04T13:54:03.285091,4.733003,-12.538390,1.971685,1.042135,0.299323,1.254716
2026-01-04T13:54:03.294091,4.862215,-10.528419,1.741974,1.459967,0.164933,1.123991
2026-01-04T13:54:03.304091,5.197210,-8.494520,1.536192,1.545488,0.042760,0.981049
2026-01-04T13:54:03.314091,5.283352,-6.642475,1.962114,1.378111,-0.043982,0.791681
2026-01-04T13:54:03.323091,5.565705,-5.245067,3.397808,1.048244,-0.107512,0.477696
2026-01-04T13:54:03.333091,5.991627,-4.484149,4.426721,0.596204,-0.169820,0.098960
2026-01-04T13:54:03.342091,6.690331,-4.852644,4.555934,0.087964,-0.233350,-0.313984
2026-01-04T13:54:03.352091,7.618747,-6.192624,3.737588,-0.353080,-0.334754,-0.747698
2026-01-04T13:54:03.362091,8.944370,-8.159525,2.622533,-0.572991,-0.503352,-1.189965
2026-01-04T13:54:03.371091,10.537990,-10.341779,1.512263,-0.599869,-0.703716,-1.561371
2026-01-04T13:54:03.381091,12.193823,-12.021540,0.684347,-0.379958,-0.844215,-1.852143
2026-01-04T13:54:03.390091,13.471591,-12.528819,0.579063,0.117286,-0.818559,-2.095267
2026-01-04T13:54:03.400091,13.797015,-11.380264,0.827916,0.670729,-0.603534,-2.236988
2026-01-04T13:54:03.410091,13.055240,-8.987441,1.507478,0.981049,-0.310319,-2.289522
2026-01-04T13:54:03.419091,11.787044,-6.589833,3.058027,0.880867,-0.105068,-2.405586
2026-01-04T13:54:03.429091,10.523633,-5.053641,4.168296,0.338419,-0.105068,-2.544864
2026-01-04T13:54:03.439091,9.628718,-4.622933,4.177868,-0.386066,-0.268780,-2.723236
2026-01-04T13:54:03.448091,9.279366,-5.058426,3.297309,-0.968832,-0.496022,-2.994460
2026-01-04T13:54:03.458091,9.547362,-6.245266,2.201396,-1.442863,-0.713490,-3.255911
2026-01-04T13:54:03.467091,10.274780,-7.834101,0.492921,-1.662774,-0.908967,-3.474600
2026-01-04T13:54:03.477091,11.227123,-9.016155,-0.416351,-1.499062,-1.032362,-3.641977
2026-01-04T13:54:03.487091,12.256037,-9.360722,0.143569,-1.139874,-1.080009,-3.715281
2026-01-04T13:54:03.496091,12.940384,-8.858229,0.708275,-0.891863,-1.005483,-3.673742
2026-01-04T13:54:03.506091,13.050454,-7.948956,0.957129,-0.927293,-0.857654,-3.540574
2026-01-04T13:54:03.515091,12.854243,-7.259823,1.919043,-1.164308,-0.702494,-3.434283
2026-01-04T13:54:03.525091,12.796815,-7.130611,3.359522,-1.446528,-0.580321,-3.418401
2026-01-04T13:54:03.535091,12.681959,-7.489534,3.546163,-1.640783,-0.466700,-3.401296
2026-01-04T13:54:03.544091,12.495319,-7.886743,2.828316,-1.552819,-0.329867,-3.450166
2026-01-04T13:54:03.554091,12.026326,-7.594818,1.622333,-1.138652,-0.142942,-3.617543
2026-01-04T13:54:03.564091,11.006983,-6.384050,-0.397208,-0.565661,0.052534,-3.839898
2026-01-04T13:54:03.573091,9.805787,-5.053641,-1.469193,-0.019547,0.112399,-4.064696
2026-01-04T13:54:03.583091,9.078368,-3.929014,-1.550549,0.263893,-0.074525,-4.238182
2026-01-04T13:54:03.592091,9.269794,-3.297309,-0.933200,0.092851,-0.535117,-4.280942
2026-01-04T13:54:03.602091,10.356136,-3.158525,-1.057627,-0.302989,-1.037248,-4.262616
2026-01-04T13:54:03.612091,12.011969,-3.144168,-1.545763,-0.651182,-1.393994,-4.188091
2026-01-04T13:54:03.621091,13.954941,-2.924029,0.741775,-0.692721,-1.470963,-4.103791
2026-01-04T13:54:03.631091,16.500904,-2.746960,2.991028,-0.880867,-1.457524,-3.987727
2026-01-04T13:54:03.640091,15.299707,-5.245067,12.370892,-1.302364,-1.055574,-3.628538
2026-01-04T13:54:03.650091,19.190437,-3.976871,2.732603,-1.971872,-0.772133,-3.420844
2026-01-04T13:54:03.660091,18.252451,-5.407779,1.895115,-2.001194,-0.135612,-3.291341
2026-01-04T13:54:03.669091,16.084553,-5.584847,0.282353,-1.659109,0.536339,-3.170389
2026-01-04T13:54:03.679091,13.275379,-5.154139,-0.957129,-1.187521,0.900415,-3.134959
2026-01-04T13:54:03.689091,10.662417,-4.465006,-1.373480,-0.696386,0.853989,-3.170389
2026-01-04T13:54:03.698091,9.145367,-3.876372,-1.330409,-0.400727,0.456927,-3.138624
2026-01-04T13:54:03.708091,8.815158,-3.967299,-1.234696,-0.211359,-0.048869,-3.037221
2026-01-04T13:54:03.717091,9.628718,-4.110869,-0.971485,0.024434,-0.521678,-2.915048
2026-01-04T13:54:03.727091,10.887342,-3.814159,-0.267996,0.346971,-0.767246,-2.791653
2026-01-04T13:54:03.737091,11.825329,-3.005385,0.291924,0.604756,-0.733038,-2.601063
2026-01-04T13:54:03.746091,12.112468,-1.909472,0.478564,0.733038,-0.500909,-2.357939
2026-01-04T13:54:03.756091,11.648260,-0.722632,0.765703,0.689055,-0.200363,-2.119701
2026-01-04T13:54:03.765091,10.561918,0.411565,0.928415,0.454483,0.041538,-1.899790
2026-01-04T13:54:03.775091,9.403792,1.153340,0.770488,0.045204,0.175929,-1.706757
2026-01-04T13:54:03.785091,8.260023,1.368694,0.449850,-0.439822,0.182037,-1.551597
2026-01-04T13:54:03.794091,7.494320,1.124626,0.114855,-0.908967,0.065973,-1.434311
2026-01-04T13:54:03.804091,7.058826,0.449850,-0.071784,-1.288925,-0.134390,-1.343903
2026-01-04T13:54:03.814091,7.173682,-0.507278,-0.315852,-1.479515,-0.364075,-1.274264
2026-01-04T13:54:03.823091,7.657032,-1.325623,-0.291924,-1.436754,-0.553443,-1.199739
2026-01-04T13:54:03.833091,8.212167,-1.741974,0.071784,-1.204625,-0.625525,-1.145982
2026-01-04T13:54:03.842091,8.633303,-1.933400,0.507278,-0.893084,-0.555887,-1.087339
2026-01-04T13:54:03.852091,8.571090,-1.651047,0.875773,-0.543669,-0.359188,-1.031140
2026-01-04T13:54:03.862091,7.901100,-1.119840,1.167697,-0.265115,-0.118507,-0.967610
2026-01-04T13:54:03.871091,6.977470,-0.468993,1.411765,-0.122173,0.070860,-0.889419
2026-01-04T13:54:03.881091,6.025127,0.143569,1.402194,-0.076969,0.155159,-0.811228
2026-01-04T13:54:03.890091,5.273781,0.526420,1.220339,-0.135612,0.107512,-0.755029
2026-01-04T13:54:03.900091,4.814359,0.713061,0.770488,-0.278554,-0.053756,-0.703716
2026-01-04T13:54:03.910091,4.962714,0.727418,0.368494,-0.434935,-0.277332,-0.653625
2026-01-04T13:54:03.919091,5.479563,0.626919,0.200997,-0.527787,-0.476474,-0.603534
2026-01-04T13:54:03.929091,6.063412,0.445065,0.148355,-0.580321,-0.579100,-0.560774
2026-01-04T13:54:03.939091,6.709474,0.200997,0.253639,-0.640186,-0.532674,-0.491135
2026-01-04T13:54:03.948091,6.695117,-0.023928,0.535992,-0.638964,-0.346971,-0.425162
2026-01-04T13:54:03.958091,6.144768,-0.153140,0.861416,-0.588873,-0.063529,-0.382401
2026-01-04T13:54:03.967091,5.029713,-0.358923,1.196411,-0.542448,0.188146,-0.348193
2026-01-04T13:54:03.977091,3.862015,-0.315852,1.177268,-0.469144,0.302989,-0.315206
2026-01-04T13:54:03.987091,2.933600,-0.205782,1.134197,-0.386066,0.256563,-0.306654
2026-01-04T13:54:03.996091,2.325823,-0.129212,1.043270,-0.340862,0.070860,-0.296880
2026-01-04T13:54:04.006091,2.450250,-0.009571,0.971485,-0.348193,-0.230907,-0.270002
2026-01-04T13:54:04.015091,3.201596,-0.014356,0.885344,-0.381179,-0.531452,-0.222354
2026-01-04T13:54:04.025091,4.153940,-0.124426,0.937986,-0.403170,-0.697607,-0.153938
2026-01-04T13:54:04.035091,4.957928,-0.263210,0.827916,-0.376292,-0.647517,-0.080634
2026-01-04T13:54:04.044091,5.130211,-0.282353,0.937986,-0.306654,-0.401949,-0.002443
2026-01-04T13:54:04.054091,4.728217,-0.392422,1.033699,-0.255341,-0.080634,0.065973
2026-01-04T13:54:04.064091,3.742374,-0.368494,1.000199,-0.180816,0.167377,0.130725
2026-01-04T13:54:04.073091,2.895315,-0.239282,0.928415,-0.097738,0.224798,0.157603
2026-01-04T13:54:04.083091,2.464607,0.014356,0.789631,-0.035430,0.061086,0.158824
2026-01-04T13:54:04.092091,2.933600,0.406779,0.751346,-0.001221,-0.271224,0.140498
2026-01-04T13:54:04.102091,4.302295,0.899701,0.449850,-0.045204,-0.673173,0.114842
2026-01-04T13:54:04.112091,6.269195,1.162911,0.267996,-0.179594,-0.983492,0.102625
2026-01-04T13:54:04.121091,8.331808,1.205982,0.162711,-0.346971,-1.126435,0.091629
2026-01-04T13:54:04.131091,10.198209,1.325623,0.047856,-0.524122,-1.112996,0.081855
2026-01-04T13:54:04.140091,11.806186,1.210768,-0.062213,-0.707381,-1.007927,0.065973
2026-01-04T13:54:04.150091,12.849457,1.014556,-0.129212,-0.858876,-0.857654,0.078190
2026-01-04T13:54:04.160091,13.476376,0.665204,0.162711,-0.987158,-0.773355,0.081855
2026-01-04T13:54:04.169091,13.572089,0.387637,0.416351,-0.702494,-0.775798,0.002443
2026-01-04T13:54:04.179091,13.945370,0.746560,2.919243,0.261450,-0.223576,0.272445
2026-01-04T13:54:04.189091,12.122039,0.311066,0.875773,-0.019547,0.171042,0.427605
2026-01-04T13:54:04.198091,11.045269,-0.038285,0.583848,-0.403170,0.354301,0.392175
2026-01-04T13:54:04.208091,9.533005,0.105284,0.641276,-0.279776,0.463035,0.375071
2026-01-04T13:54:04.217091,8.413164,0.200997,0.689132,-0.140498,0.485026,0.337197
2026-01-04T13:54:04.227091,7.853243,0.267996,0.708275,-0.068416,0.456927,0.272445
2026-01-04T13:54:04.237091,8.465806,0.100498,0.574277,-0.598647,0.311541,0.270002
2026-01-04T13:54:04.246091,8.317451,-0.014356,0.971485,-0.058643,-0.241902,0.460592
2026-01-04T13:54:04.256091,8.681160,0.253639,2.091326,0.301767,-0.399505,0.480139
2026-01-04T13:54:04.265091,9.154939,0.200997,2.579462,0.416610,-0.337197,0.425162
2026-01-04T13:54:04.275091,9.494720,-0.105284,2.828316,0.493579,-0.183259,0.392175
2026-01-04T13:54:04.285091,9.518648,-0.440279,3.014956,0.596204,0.009773,0.365297
2026-01-04T13:54:04.294091,9.394221,-0.669990,2.871387,0.734259,0.178372,0.340862
2026-01-04T13:54:04.304091,9.332008,-0.512064,2.244467,0.889419,0.255341,0.331088
2026-01-04T13:54:04.314091,9.288937,-0.090927,1.823330,1.006705,0.256563,0.332310
2026-01-04T13:54:04.323091,9.504291,0.574277,1.612762,1.015257,0.244346,0.370184
2026-01-04T13:54:04.333091,9.595218,1.234696,1.641476,0.844215,0.284663,0.450818
2026-01-04T13:54:04.342091,9.432506,1.780260,1.713260,0.482583,0.390953,0.577878
2026-01-04T13:54:04.352091,8.839086,1.655833,1.722832,0.018325,0.535117,0.717155
2026-01-04T13:54:04.362091,7.944171,1.024128,1.670190,-0.399505,0.669508,0.835663
2026-01-04T13:54:04.371091,6.915257,0.090927,1.890329,-0.642630,0.750142,0.911410
2026-01-04T13:54:04.381091,5.986842,-0.981057,2.139183,-0.689055,0.750142,0.930958
2026-01-04T13:54:04.390091,5.498706,-2.043470,2.277967,-0.542448,0.656069,0.922406
2026-01-04T13:54:04.400091,5.431707,-2.469392,1.852044,-0.210137,0.474031,0.916297
2026-01-04T13:54:04.410091,5.915057,-2.210968,1.531406,0.150272,0.219911,0.962723
2026-01-04T13:54:04.419091,6.489334,-1.569691,1.172483,0.458148,0.024434,1.154535
2026-01-04T13:54:04.429091,3.101098,-2.431107,-1.497906,0.751364,0.109955,0.943175
2026-01-04T13:54:04.439091,7.211967,-0.488135,0.775274,1.018923,0.409279,0.998153
2026-01-04T13:54:04.448091,6.896114,-0.143569,0.866201,0.928514,0.579100,1.116661
2026-01-04T13:54:04.458091,6.470192,0.062213,0.842273,0.692721,0.753807,1.216843
2026-01-04T13:54:04.467091,5.757131,0.009571,0.780060,0.492357,0.912632,1.321912
2026-01-04T13:54:04.477091,4.867001,-0.162711,0.813559,0.326201,0.960279,1.412320
2026-01-04T13:54:04.487091,4.244867,-0.588634,0.995414,0.190589,0.867428,1.492954
2026-01-04T13:54:04.496091,3.976871,-1.129412,1.119840,0.130725,0.642630,1.574810
2026-01-04T13:54:04.506091,4.287938,-1.253839,0.818345,0.221133,0.342084,1.720196
2026-01-04T13:54:04.515091,5.536991,-1.253839,0.803988,0.544891,0.153938,1.529606
2026-01-04T13:54:04.525091,6.843472,-2.029113,0.057427,0.878424,-0.048869,1.368337
2026-01-04T13:54:04.535091,7.972884,-2.187039,-0.062213,1.193630,-0.079412,1.306029
2026-01-04T13:54:04.544091,8.776873,-1.832902,-0.459421,1.437976,0.103847,1.301142
2026-01-04T13:54:04.554091,8.886943,-1.239482,-0.612562,1.544267,0.408057,1.341459
2026-01-04T13:54:04.564091,8.145168,-0.574277,-0.636490,1.502728,0.726929,1.431867
2026-01-04T13:54:04.573091,6.867400,-0.095712,-0.622133,1.313359,0.951727,1.544267
2026-01-04T13:54:04.583091,5.565705,0.282353,-0.789631,1.007927,0.966388,1.653000
2026-01-04T13:54:04.592091,4.599005,0.330209,-0.631705,0.729372,0.780685,1.736078
2026-01-04T13:54:04.602091,4.661218,0.196211,0.119641,0.447153,0.351858,1.766621
2026-01-04T13:54:04.612091,5.881557,-0.401994,0.258424,0.166155,-0.178372,1.786169
2026-01-04T13:54:04.621091,7.929814,-1.186840,-0.162711,0.024434,-0.541226,1.783726
2026-01-04T13:54:04.631091,9.891928,-1.957328,-0.421136,0.045204,-0.555887,1.788613
2026-01-04T13:54:04.640091,11.136196,-2.469392,-0.641276,0.167377,-0.255341,1.850921
2026-01-04T13:54:04.650091,11.356336,-2.670390,-0.760917,0.300545,0.191811,1.938885
2026-01-04T13:54:04.660091,10.523633,-2.694318,-0.947557,0.392175,0.594982,2.024406
2026-01-04T13:54:04.669091,9.226723,-2.536391,-0.856630,0.459370,0.822224,2.078163
2026-01-04T13:54:04.679091,7.944171,-2.091326,-0.119641,0.492357,0.813672,2.046398
2026-01-04T13:54:04.689091,7.250252,-1.469193,0.425922,0.366519,0.555887,2.021963
2026-01-04T13:54:04.698091,7.479963,-1.330409,0.842273,0.085521,0.100181,1.992641
2026-01-04T13:54:04.708091,8.776873,-1.785045,1.067198,-0.243124,-0.392175,1.981646
2026-01-04T13:54:04.717091,10.686345,-2.751745,0.512064,-0.498465,-0.652403,1.991420
2026-01-04T13:54:04.727091,12.246466,-4.206582,0.181854,-0.591317,-0.542448,2.026850
2026-01-04T13:54:04.737091,12.801600,-5.613561,0.282353,-0.433714,-0.171042,2.107484
2026-01-04T13:54:04.746091,12.318250,-6.431907,-0.066999,-0.029321,0.280997,2.204001
2026-01-04T13:54:04.756091,10.892128,-6.561119,-0.339780,0.482583,0.640186,2.273639
2026-01-04T13:54:04.765091,9.135796,-6.245266,-0.148355,0.983492,0.764803,2.298074
2026-01-04T13:54:04.775091,7.752745,-5.580062,0.157926,1.418428,0.624304,2.250427
2026-01-04T13:54:04.785091,7.317251,-4.565505,0.579063,1.676213,0.251676,2.141693
2026-01-04T13:54:04.794091,7.963313,-3.761517,0.818345,1.683544,-0.243124,2.032959
2026-01-04T13:54:04.804091,9.777073,-3.531806,0.301495,1.401324,-0.717155,1.969429
2026-01-04T13:54:04.814091,12.035897,-3.584448,0.052642,1.028696,-0.944397,1.997528
2026-01-04T13:54:04.823091,13.844871,-3.632304,-0.272781,0.626747,-0.850324,2.111149
2026-01-04T13:54:04.833091,14.739787,-3.943371,-0.354137,0.199142,-0.493579,2.245540
2026-01-04T13:54:04.842091,14.404792,-4.613361,-0.239282,-0.173485,-0.009773,2.340835
2026-01-04T13:54:04.852091,13.093525,-5.603990,0.177068,-0.433714,0.431270,2.397034
2026-01-04T13:54:04.862091,11.385049,-6.685546,0.870987,-0.450818,0.674395,2.390926
2026-01-04T13:54:04.871091,9.791430,-7.704888,0.976271,-0.222354,0.664621,2.335948
2026-01-04T13:54:04.881091,9.102297,-8.743373,0.708275,0.332310,0.520457,2.240653
2026-01-04T13:54:04.890091,7.901100,-14.127224,3.416950,0.561995,0.114842,2.116036
2026-01-04T13:54:04.900091,9.796215,-9.494720,1.268195,1.081231,-0.359188,1.970650
2026-01-04T13:54:04.910091,10.863414,-8.877371,0.416351,1.518610,-0.623082,2.019520
2026-01-04T13:54:04.919091,11.901899,-7.365107,0.157926,1.609018,-0.623082,2.201557
2026-01-04T13:54:04.929091,12.390035,-5.584847,0.430708,1.354898,-0.441044,2.416582
2026-01-04T13:54:04.939091,12.212966,-3.976871,1.148554,0.778242,-0.186924,2.599841
2026-01-04T13:54:04.948091,11.456834,-3.196810,1.761117,-0.081855,0.053756,2.779436
2026-01-04T13:54:04.958091,10.585847,-3.675375,2.464607,-1.037248,0.233350,2.918713
2026-01-04T13:54:04.967091,9.700502,-5.278566,3.259024,-1.800830,0.298102,2.913826
2026-01-04T13:54:04.977091,9.169296,-7.695317,3.675375,-2.255313,0.221133,2.796540
2026-01-04T13:54:04.987091,9.236295,-10.212566,3.751945,-2.290744,0.056199,2.637715
2026-01-04T13:54:04.996091,9.523433,-12.189038,3.962514,-1.853364,-0.051312,2.461786
2026-01-04T13:54:05.006091,9.710074,-13.141381,3.436093,-1.126435,-0.019547,2.356717
2026-01-04T13:54:05.015091,9.456434,-13.122239,2.177468,-0.368962,0.095294,2.362826
2026-01-04T13:54:05.025091,8.910871,-12.346964,0.928415,0.213802,0.180816,2.438573
2026-01-04T13:54:05.035091,8.384450,-10.691131,0.823130,0.604756,0.166155,2.494773
2026-01-04T13:54:05.044091,7.987241,-8.886943,1.679761,0.698829,0.067195,2.427577
2026-01-04T13:54:05.054091,7.791030,-7.604390,2.526820,0.463035,-0.095294,2.322509
2026-01-04T13:54:05.064091,7.862815,-7.121040,3.737588,0.096516,-0.229685,2.185675
2026-01-04T13:54:05.073091,8.130811,-7.341179,4.709074,-0.348193,-0.279776,2.036624
2026-01-04T13:54:05.083091,8.279166,-8.494520,4.575076,-0.794124,-0.207694,1.897347
2026-01-04T13:54:05.092091,8.207381,-10.274780,3.919443,-1.050687,-0.079412,1.755626
2026-01-04T13:54:05.102091,8.073383,-11.624332,3.067598,-1.082452,0.023212,1.645670
2026-01-04T13:54:05.112091,7.680960,-12.662817,1.986042,-0.900415,0.182037,1.562592
2026-01-04T13:54:05.121091,6.977470,-12.997812,1.076770,-0.472809,0.317649,1.459967
2026-01-04T13:54:05.131091,6.331408,-12.686745,0.765703,0.050090,0.339641,1.313359
2026-01-04T13:54:05.140091,5.804987,-12.208180,0.382851,0.452040,0.199142,1.144761
2026-01-04T13:54:05.150091,5.900700,-11.595618,1.167697,0.753807,-0.072082,0.900415
2026-01-04T13:54:05.160091,6.699903,-11.045269,3.053241,0.989601,-0.372627,0.525343
2026-01-04T13:54:05.169091,7.901100,-10.595418,4.484149,1.095892,-0.551000,0.179594
2026-01-04T13:54:05.179091,9.107082,-10.413563,4.460221,1.137430,-0.494800,-0.089186
2026-01-04T13:54:05.189091,9.700502,-10.365707,3.828516,1.197295,-0.215024,-0.304210
2026-01-04T13:54:05.198091,9.437292,-9.820143,2.651247,1.304807,0.196698,-0.515570
2026-01-04T13:54:05.208091,8.384450,-9.379864,1.249053,1.348790,0.536339,-0.685390
2026-01-04T13:54:05.217091,7.149753,-9.236295,0.258424,1.335351,0.635299,-0.808785
2026-01-04T13:54:05.227091,6.245266,-9.121439,0.296710,1.365894,0.508239,-0.983492
2026-01-04T13:54:05.237091,5.924628,-8.776873,0.928415,1.431867,0.229685,-1.247386
2026-01-04T13:54:05.246091,6.417550,-7.920242,1.899901,1.439198,-0.162490,-1.574810
2026-01-04T13:54:05.256091,7.747959,-7.092326,2.823530,1.293812,-0.638964,-1.930333
2026-01-04T13:54:05.265091,9.513862,-6.326622,3.048455,0.979827,-1.016479,-2.213775
2026-01-04T13:54:05.275091,11.260623,-5.398207,2.483749,0.626747,-1.091005,-2.448347
2026-01-04T13:54:05.285091,12.390035,-4.445864,2.268395,0.199142,-0.860098,-2.662150
2026-01-04T13:54:05.294091,12.753744,-3.962514,2.536391,-0.482583,-0.505796,-2.825862
2026-01-04T13:54:05.304091,12.476177,-4.814359,1.272981,-1.517388,-0.168598,-2.817309
2026-01-04T13:54:05.314091,11.801401,-6.728617,-0.727418,-2.488664,0.056199,-2.733010
2026-01-04T13:54:05.323091,11.303693,-9.164510,-0.937986,-2.951700,0.135612,-2.780657
2026-01-04T13:54:05.333091,10.920842,-11.475977,-0.311066,-2.917491,0.079412,-2.863735
2026-01-04T13:54:05.342091,10.810772,-13.179666,-0.148355,-2.483777,-0.061086,-2.906496
2026-01-04T13:54:05.352091,10.987841,-14.007583,-0.066999,-1.668883,-0.202807,-2.992017
2026-01-04T13:54:05.362091,11.370692,-13.749158,0.526420,-0.652403,-0.295658,-3.152063
2026-01-04T13:54:05.371091,11.643474,-12.260823,0.602991,0.324980,-0.317649,-3.291341
2026-01-04T13:54:05.381091,11.590832,-9.844072,0.387637,1.110552,-0.233350,-3.390301
2026-01-04T13:54:05.390091,11.179267,-7.116254,0.569491,1.582140,-0.100181,-3.480709
2026-01-04T13:54:05.400091,10.466206,-4.436293,0.626919,1.677435,0.006108,-3.590665
2026-01-04T13:54:05.410091,9.528219,-2.206182,-0.033499,1.477071,0.040317,-3.731164
2026-01-04T13:54:05.419091,8.551947,-0.531206,-0.622133,1.018923,-0.061086,-3.853337
2026-01-04T13:54:05.429091,8.236095,0.119641,-0.425922,0.155159,-0.410501,-3.943745
2026-01-04T13:54:05.439091,8.867800,-0.550349,-0.521635,-0.818559,-0.880867,-3.969401
2026-01-04T13:54:05.448091,10.968698,-2.143969,0.847059,-1.653000,-1.457524,-4.004831
2026-01-04T13:54:05.458091,14.404792,-4.201796,1.818545,-2.241874,-1.909564,-4.045148
2026-01-04T13:54:05.467091,17.984453,-6.623332,2.254038,-2.660928,-1.974316,-3.929084
2026-01-04T13:54:05.477091,20.563917,-8.705088,0.713061,-2.604728,-1.446528,-3.733607
2026-01-04T13:54:05.487091,20.635702,-9.413364,0.105284,-1.996307,-0.430049,-3.543017
2026-01-04T13:54:05.496091,18.185452,-8.685946,0.047856,-1.282816,0.610865,-3.341432
2026-01-04T13:54:05.506091,14.500504,-7.293323,0.129212,-0.753807,1.232725,-3.219259
2026-01-04T13:54:05.515091,10.992627,-5.733202,-0.205782,-0.405614,1.309694,-3.199711
2026-01-04T13:54:05.525091,8.422735,-4.426721,-0.856630,-0.199142,0.934623,-3.277902
2026-01-04T13:54:05.535091,7.412964,-3.359522,-0.799202,-0.017104,0.302989,-3.425731
2026-01-04T13:54:05.544091,8.020741,-2.713460,0.468993,0.141720,-0.450818,-3.593108
2026-01-04T13:54:05.554091,10.289137,-2.522035,0.756131,0.139277,-1.192408,-3.661525
2026-01-04T13:54:05.564091,13.500305,-2.847458,0.224925,0.053756,-1.626122,-3.628538
2026-01-04T13:54:05.573091,16.376476,-2.962314,0.033499,0.046425,-1.546710,-3.486818
2026-01-04T13:54:05.583091,17.749958,-2.364108,0.095712,0.051312,-0.977384,-3.240028
2026-01-04T13:54:05.592091,17.051252,-1.134197,0.110069,-0.158824,-0.184481,-2.932152
2026-01-04T13:54:05.602091,14.739787,-0.258424,0.023928,-0.579100,0.504574,-2.635272
2026-01-04T13:54:05.612091,11.973684,0.100498,0.291924,-1.058018,0.852767,-2.373821
2026-01-04T13:54:05.621091,9.638289,-0.162711,0.650847,-1.574810,0.808785,-2.177123
2026-01-04T13:54:05.631091,8.231309,-0.732203,0.751346,-2.001194,0.500909,-2.046398
2026-01-04T13:54:05.640091,7.747959,-1.402194,0.602991,-2.206444,0.064751,-1.991420
2026-01-04T13:54:05.650091,8.087740,-1.942971,0.799202,-2.164905,-0.376292,-1.960877
2026-01-04T13:54:05.660091,9.140582,-2.220539,0.842273,-1.968207,-0.723264,-1.913229
2026-01-04T13:54:05.669091,10.327422,-2.354537,0.607776,-1.734856,-0.885754,-1.811825
2026-01-04T13:54:05.679091,11.241480,-2.364108,0.550349,-1.478293,-0.780685,-1.679879
2026-01-04T13:54:05.689091,11.279765,-2.397608,0.866201,-1.237612,-0.464257,-1.543045
2026-01-04T13:54:05.698091,10.518848,-2.536391,0.890130,-0.998153,-0.070860,-1.393994
2026-01-04T13:54:05.708091,9.059226,-2.651247,0.751346,-0.714712,0.252898,-1.270599
2026-01-04T13:54:05.717091,7.561319,-2.813959,0.899701,-0.382401,0.416610,-1.187521
2026-01-04T13:54:05.727091,6.226124,-2.756531,1.038485,-0.003665,0.416610,-1.123991
2026-01-04T13:54:05.737091,5.393422,-2.435893,1.143769,0.442266,0.322536,-1.064127
2026-01-04T13:54:05.746091,4.699503,-1.976471,1.330409,0.648738,0.096516,-1.037248
2026-01-04T13:54:05.756091,4.924428,-1.019342,0.741775,0.806341,-0.083077,-1.011592
2026-01-04T13:54:05.765091,5.005784,-0.110069,0.483350,0.884532,-0.185702,-0.970053
2026-01-04T13:54:05.775091,5.106283,0.880558,0.320638,0.777020,-0.207694,-0.893084
2026-01-04T13:54:05.785091,4.957928,1.612762,0.363709,0.487470,-0.178372,-0.785572
2026-01-04T13:54:05.794091,4.560719,1.799402,0.411565,0.064751,-0.108733,-0.667064
2026-01-04T13:54:05.804091,4.000799,1.607976,0.368494,-0.382401,-0.036651,-0.552222
2026-01-04T13:54:05.814091,3.302095,1.091127,0.583848,-0.751364,-0.054977,-0.478918
2026-01-04T13:54:05.823091,3.105883,0.095712,0.952343,-0.934623,-0.200363,-0.444709
2026-01-04T13:54:05.833091,3.483949,-0.827916,0.866201,-0.985936,-0.455705,-0.449596
2026-01-04T13:54:05.842091,4.216153,-1.651047,0.521635,-0.807563,-0.623082,-0.477696
2026-01-04T13:54:05.852091,5.115854,-2.086541,0.095712,-0.466700,-0.643851,-0.493579
2026-01-04T13:54:05.862091,5.632704,-1.938186,-0.090927,-0.091629,-0.527787,-0.466700
2026-01-04T13:54:05.871091,5.584847,-1.397408,0.023928,0.193033,-0.284663,-0.408057
2026-01-04T13:54:05.881091,4.929214,-0.669990,0.071784,0.345749,0.034208,-0.315206
2026-01-04T13:54:05.890091,3.684946,-0.028713,0.296710,0.355523,0.277332,-0.208915
2026-01-04T13:54:05.900091,2.421536,0.531206,0.531206,0.257785,0.353080,-0.103847
2026-01-04T13:54:05.910091,1.411765,0.885344,0.909272,0.095294,0.251676,-0.026878
2026-01-04T13:54:05.919091,1.086341,0.765703,1.134197,-0.096516,-0.006108,0.041538
2026-01-04T13:54:05.929091,1.363908,0.555134,1.105484,-0.217467,-0.332310,0.079412
2026-01-04T13:54:05.939091,2.364108,0.440279,0.981057,-0.270002,-0.602312,0.084299
2026-01-04T13:54:05.948091,3.665804,0.387637,0.851844,-0.295658,-0.734259,0.092851
2026-01-04T13:54:05.958091,4.890929,0.507278,0.703489,-0.305432,-0.719599,0.101403
2026-01-04T13:54:05.967091,5.862415,0.516849,0.555134,-0.342084,-0.601091,0.106290
2026-01-04T13:54:05.977091,6.580262,0.626919,0.205782,-0.408057,-0.493579,0.098960
2026-01-04T13:54:05.987091,7.140182,0.177068,0.272781,-0.474031,-0.529009,0.034208
2026-01-04T13:54:05.996091,8.049455,0.373280,0.124426,-0.532674,-0.801455,-0.178372
2026-01-04T13:54:06.006091,9.671788,0.851844,0.071784,-0.566882,-1.240056,-0.394618
2026-01-04T13:54:06.015091,7.235895,5.379065,-18.271593,-0.210137,-1.447750,-0.188146
2026-01-04T13:54:06.025091,13.308879,0.732203,-2.306680,-0.526565,-1.467297,0.316428
2026-01-04T13:54:06.035091,15.424134,0.851844,0.052642,-0.799011,-1.282816,0.199142
2026-01-04T13:54:06.044091,16.697117,2.129612,0.291924,-0.842993,-0.907745,0.250454
2026-01-04T13:54:06.054091,16.271193,1.134197,0.693918,-0.861319,-0.234572,0.580321
2026-01-04T13:54:06.064091,13.988440,0.516849,1.038485,-0.844215,0.565661,0.720820
2026-01-04T13:54:06.073091,10.748559,0.267996,0.842273,-0.664621,1.210734,0.812450
2026-01-04T13:54:06.083091,7.838886,0.157926,0.775274,-0.412944,1.489289,0.877202
2026-01-04T13:54:06.092091,7.202396,0.114855,0.646062,-0.879645,1.310916,0.974940
2026-01-04T13:54:06.102091,5.307280,-0.636490,1.636690,-0.052534,0.455705,0.869871
2026-01-04T13:54:06.112091,5.168496,0.239282,1.660618,0.604756,-0.166155,0.711046
2026-01-04T13:54:06.121091,6.541976,0.937986,1.579262,0.886976,-0.581543,0.557108
2026-01-04T13:54:06.131091,8.413164,1.751546,1.497906,1.011592,-0.821002,0.437379
2026-01-04T13:54:06.140091,10.188638,2.124826,1.301695,0.972497,-0.786794,0.339641
2026-01-04T13:54:06.150091,11.533404,2.388036,1.115055,0.747698,-0.504574,0.116064
2026-01-04T13:54:06.160091,11.854043,3.278166,0.885344,0.415388,-0.112399,-0.120951
2026-01-04T13:54:06.169091,11.385049,3.474378,0.885344,0.034208,0.293215,-0.239459
2026-01-04T13:54:06.179091,10.231709,3.340380,0.880558,-0.442266,0.559552,-0.252898
2026-01-04T13:54:06.189091,11.810972,3.440878,1.641476,-0.940732,0.756251,0.452040
2026-01-04T13:54:06.198091,8.283951,1.545763,2.187039,-0.941954,0.629191,0.614530
2026-01-04T13:54:06.208091,7.939385,0.196211,1.765903,-0.905302,0.428827,0.658512
2026-01-04T13:54:06.217091,7.858029,-0.378065,1.564905,-0.797789,0.195476,0.746477
2026-01-04T13:54:06.227091,8.006384,-0.330209,1.253839,-0.607199,-0.085521,0.907745
2026-01-04T13:54:06.237091,8.346165,0.004785,1.067198,-0.256563,-0.152716,1.382998
2026-01-04T13:54:06.246091,8.786444,-0.349352,1.536192,0.129503,-0.040317,2.041511
2026-01-04T13:54:06.256091,11.633903,-37.734814,-2.177468,0.365297,0.012217,2.403143
2026-01-04T13:54:06.265091,9.355936,-0.358923,4.254438,0.485026,0.162490,1.218065
2026-01-04T13:54:06.275091,7.944171,-2.105683,1.981257,0.766024,0.172263,0.972497
2026-01-04T13:54:06.285091,7.695317,-2.072184,1.885544,1.078787,0.194255,1.092226
2026-01-04T13:54:06.294091,6.350551,-1.253839,1.517049,1.489289,0.290771,0.899193
2026-01-04T13:54:06.304091,7.542176,-1.186840,1.430907,1.661553,0.246789,0.875980
2026-01-04T13:54:06.314091,7.757530,-0.823130,0.957129,1.685987,0.246789,0.913854
2026-01-04T13:54:06.323091,8.001598,-0.224925,0.799202,1.642005,0.283441,0.952949
2026-01-04T13:54:06.333091,8.063812,0.110069,0.579063,1.518610,0.333532,0.978605
2026-01-04T13:54:06.342091,8.073383,0.210568,0.741775,1.193630,0.301767,0.825889
2026-01-04T13:54:06.352091,8.035098,0.636490,0.516849,0.888197,0.244346,0.565661
2026-01-04T13:54:06.362091,8.183453,2.009970,0.459421,0.471587,0.251676,0.460592
2026-01-04T13:54:06.371091,7.336394,1.919043,0.440279,0.094073,0.367740,0.663399
2026-01-04T13:54:06.381091,6.752545,1.607976,0.660419,-0.283441,0.546113,1.022588
2026-01-04T13:54:06.390091,6.154339,1.172483,0.851844,-0.577878,0.833220,1.490510
2026-01-04T13:54:06.400091,1.914258,-2.766102,1.459621,-0.437379,0.888197,1.599244
2026-01-04T13:54:06.410091,5.259424,-1.220339,1.325623,-0.164933,0.585208,1.573588
2026-01-04T13:54:06.419091,4.780859,-1.009771,0.861416,0.213802,0.522900,1.919338
2026-01-04T13:54:06.429091,4.594219,-1.478764,0.952343,0.459370,0.515570,2.312735
2026-01-04T13:54:06.439091,2.388036,-0.248853,0.512064,1.069013,0.663399,1.346346
2026-01-04T13:54:06.448091,3.488735,-1.138983,0.234496,1.317025,0.676838,1.462411
2026-01-04T13:54:06.458091,0.981057,-2.775674,-0.344566,1.337794,0.426383,1.499062
2026-01-04T13:54:06.467091,4.895715,-0.186640,0.650847,1.273042,0.202807,1.392772
2026-01-04T13:54:06.477091,5.991627,0.320638,0.588634,1.099557,0.051312,1.362229
2026-01-04T13:54:06.487091,7.231109,0.339780,0.813559,0.756251,0.007330,1.361007
2026-01-04T13:54:06.496091,8.331808,0.205782,0.789631,0.389731,0.118507,1.424537
2026-01-04T13:54:06.506091,8.618947,-0.282353,1.167697,0.108733,0.355523,1.590692
2026-01-04T13:54:06.515091,8.417949,-0.679561,0.823130,-0.199142,0.563217,1.788613
2026-01-04T13:54:06.525091,7.724031,-1.100698,0.401994,-0.307876,0.722042,2.139249
2026-01-04T13:54:06.535091,10.451849,-0.866201,0.368494,-0.120951,0.730594,1.712865
2026-01-04T13:54:06.544091,3.282952,-1.129412,-0.497707,-0.068416,0.604756,1.533271
2026-01-04T13:54:06.554091,4.709074,-5.063212,-0.181854,0.454483,0.565661,1.694539
2026-01-04T13:54:06.564091,5.795416,-4.546362,-0.196211,0.939510,0.274889,1.700648
2026-01-04T13:54:06.573091,7.121040,-4.331008,-0.239282,1.178969,-0.125838,1.654222
2026-01-04T13:54:06.583091,8.882157,-4.101297,-0.129212,1.248608,-0.433714,1.637118
2026-01-04T13:54:06.592091,10.849057,-3.814159,-0.129212,1.203404,-0.577878,1.671326
2026-01-04T13:54:06.602091,12.442677,-3.321237,-0.693918,1.092226,-0.513126,1.753182
2026-01-04T13:54:06.612091,13.261022,-2.804388,-1.426122,0.902858,-0.230907,1.859473
2026-01-04T13:54:06.621091,13.203595,-2.426322,-1.464407,0.640186,0.156381,1.992641
2026-01-04T13:54:06.631091,12.256037,-2.096112,-0.957129,0.318871,0.511904,2.107484
2026-01-04T13:54:06.640091,10.892128,-2.277967,-0.617348,-0.076969,0.748920,2.208888
2026-01-04T13:54:06.650091,9.475577,-3.038884,-0.392422,-0.438601,0.835663,2.280970
2026-01-04T13:54:06.660091,8.542376,-4.417150,-0.028713,-0.686612,0.709825,2.340835
2026-01-04T13:54:06.669091,8.370093,-6.101697,0.229710,-0.753807,0.425162,2.382373
2026-01-04T13:54:06.679091,9.087940,-7.537391,0.684347,-0.485026,0.105068,2.373821
2026-01-04T13:54:06.689091,10.327422,-8.164310,1.134197,0.054977,-0.117286,2.366491
2026-01-04T13:54:06.698091,11.509476,-8.082954,1.009771,0.449596,-0.235793,2.441016
2026-01-04T13:54:06.708091,12.461820,-7.743173,0.100498,0.575434,-0.263893,2.524094
2026-01-04T13:54:06.717091,12.705888,-6.608976,-0.454636,0.796568,-0.092851,2.577850
2026-01-04T13:54:06.727091,11.949756,-5.096712,-0.435493,1.036027,0.228463,2.636493
2026-01-04T13:54:06.737091,10.944770,-4.091726,0.253639,0.966388,0.409279,2.623054
2026-01-04T13:54:06.746091,9.963713,-3.455235,1.033699,0.745255,0.456927,2.549750
2026-01-04T13:54:06.756091,9.111868,-3.546163,1.119840,0.393397,0.398284,2.486221
2026-01-04T13:54:06.765091,8.657232,-4.484149,1.048056,0.054977,0.288328,2.409251
2026-01-04T13:54:06.775091,8.566304,-5.747559,1.028913,-0.116064,0.153938,2.323730
2026-01-04T13:54:06.785091,9.006584,-7.231109,1.153340,-0.169820,-0.006108,2.257757
2026-01-04T13:54:06.794091,9.580861,-8.240881,2.115255,-0.228463,-0.219911,2.190562
2026-01-04T13:54:06.804091,10.456634,-9.499505,0.607776,-0.212581,-0.397062,2.138027
2026-01-04T13:54:06.814091,10.925627,-9.303294,1.028913,0.073303,-0.399505,2.129475
2026-01-04T13:54:06.823091,11.102696,-8.422735,1.588834,0.350636,-0.310319,2.144136
2026-01-04T13:54:06.833091,10.877771,-7.470392,1.861615,0.436157,-0.216246,2.155132
2026-01-04T13:54:06.842091,10.466206,-6.494120,2.076970,0.355523,-0.167377,2.129475
2026-01-04T13:54:06.852091,9.968498,-5.924628,2.646461,0.153938,-0.172263,2.054950
2026-01-04T13:54:06.862091,9.786644,-5.919843,3.101098,-0.168598,-0.249232,1.979202
2026-01-04T13:54:06.871091,9.949356,-6.652046,3.857230,-0.432492,-0.329867,1.868025
2026-01-04T13:54:06.881091,10.303494,-7.872386,4.287938,-0.535117,-0.307876,1.743409
2026-01-04T13:54:06.890091,10.509276,-9.174081,4.153940,-0.448374,-0.177150,1.674992
2026-01-04T13:54:06.900091,10.427920,-10.207781,3.072384,-0.107512,0.004886,1.639561
2026-01-04T13:54:06.910091,10.255637,-10.762916,2.325823,0.346971,0.172263,1.643227
2026-01-04T13:54:06.919091,10.021141,-11.078768,2.163111,0.795346,0.312762,1.656666
2026-01-04T13:54:06.929091,9.643075,-10.619346,2.254038,1.233947,0.412944,1.635896
2026-01-04T13:54:06.939091,9.279366,-9.403792,2.498106,1.512502,0.469144,1.587027
2026-01-04T13:54:06.948091,9.035298,-8.001598,3.225524,1.533271,0.434935,1.503949
2026-01-04T13:54:06.958091,9.044869,-6.786044,3.828516,1.309694,0.328645,1.375668
2026-01-04T13:54:06.967091,9.389435,-6.235695,3.986442,0.799011,0.194255,1.284038
2026-01-04T13:54:06.977091,9.887142,-6.632904,4.201796,0.128281,0.145385,1.236390
2026-01-04T13:54:06.987091,10.140782,-7.556533,3.857230,-0.491135,0.279776,1.211956
2026-01-04T13:54:06.996091,9.801001,-8.877371,3.110669,-0.995710,0.560774,1.240056
2026-01-04T13:54:07.006091,8.824729,-10.198209,2.325823,-1.273042,0.875980,1.288925
2026-01-04T13:54:07.015091,7.451249,-11.260623,1.349551,-1.288925,1.094670,1.303586
2026-01-04T13:54:07.025091,6.154339,-12.093325,1.081555,-1.111774,1.095892,1.254716
2026-01-04T13:54:07.035091,5.245067,-12.634103,1.062413,-0.835663,0.849102,1.147204
2026-01-04T13:54:07.044091,4.929214,-12.739387,1.091127,-0.478918,0.474031,0.989601
2026-01-04T13:54:07.054091,5.450849,-12.318250,1.818545,-0.068416,0.100181,0.783129
2026-01-04T13:54:07.064091,6.546762,-11.691331,3.584448,0.267558,-0.190589,0.520457
2026-01-04T13:54:07.073091,7.896314,-11.131410,4.766502,0.339641,-0.316428,0.334754
2026-01-04T13:54:07.083091,9.265009,-10.839486,5.082355,0.333532,-0.251676,0.210137
2026-01-04T13:54:07.092091,10.025926,-10.590632,4.962714,0.389731,-0.007330,0.034208
2026-01-04T13:54:07.102091,10.164710,-10.547562,4.106083,0.397062,0.301767,-0.098960
2026-01-04T13:54:07.112091,9.647860,-10.447063,3.254238,0.481361,0.607199,-0.244346
2026-01-04T13:54:07.121091,8.556733,-10.001998,2.569891,0.751364,0.813672,-0.496022
2026-01-04T13:54:07.131091,7.637889,-9.250652,2.354537,1.029918,0.762359,-0.788015
2026-01-04T13:54:07.140091,7.293323,-8.322237,2.727817,1.180191,0.445931,-1.102000
2026-01-04T13:54:07.150091,7.633104,-7.345965,3.316452,1.180191,0.026878,-1.447750
2026-01-04T13:54:07.160091,8.547162,-6.427121,3.766302,1.015257,-0.317649,-1.781282
2026-01-04T13:54:07.169091,9.561719,-5.814558,4.173082,0.632856,-0.497244,-2.039067
2026-01-04T13:54:07.179091,10.619346,-5.618347,4.331008,0.142942,-0.530230,-2.238209
2026-01-04T13:54:07.189091,11.337193,-5.656632,3.986442,-0.328645,-0.427605,-2.405586
2026-01-04T13:54:07.198091,11.586047,-6.087340,3.704089,-0.841772,-0.262671,-2.541198
2026-01-04T13:54:07.208091,11.576475,-6.857829,3.034099,-1.260825,-0.108733,-2.649932
2026-01-04T13:54:07.217091,11.136196,-7.786244,2.134397,-1.425759,0.002443,-2.765997
2026-01-04T13:54:07.227091,10.619346,-8.824729,1.330409,-1.450193,0.012217,-2.863735
2026-01-04T13:54:07.237091,10.222138,-9.824929,1.048056,-1.320690,-0.106290,-2.940704
2026-01-04T13:54:07.246091,10.164710,-10.408778,0.952343,-0.985936,-0.291993,-3.027447
2026-01-04T13:54:07.256091,10.298708,-10.432706,1.143769,-0.577878,-0.459370,-3.100751
2026-01-04T13:54:07.265091,10.490134,-10.045069,1.153340,-0.161268,-0.553443,-3.158172
2026-01-04T13:54:07.275091,10.619346,-9.107082,1.162911,0.276111,-0.555887,-3.208263
2026-01-04T13:54:07.285091,10.504491,-7.843672,1.287338,0.610865,-0.527787,-3.288897
2026-01-04T13:54:07.294091,10.528419,-6.465406,1.335195,0.799011,-0.532674,-3.395188
2026-01-04T13:54:07.304091,10.662417,-5.149354,1.143769,0.878424,-0.594982,-3.555234
2026-01-04T13:54:07.314091,10.796415,-4.158725,0.224925,0.778242,-0.724486,-3.700620
2026-01-04T13:54:07.323091,11.341979,-3.751945,-0.397208,0.481361,-0.930958,-3.773924
2026-01-04T13:54:07.333091,12.313465,-3.680161,-0.133998,0.058643,-1.187521,-3.726277
2026-01-04T13:54:07.342091,13.514662,-3.842873,0.220139,-0.503352,-1.348790,-3.585778
2026-01-04T13:54:07.352091,14.261222,-4.393222,0.014356,-1.137430,-1.304807,-3.364645
2026-01-04T13:54:07.362091,14.452648,-5.082355,0.267996,-1.633453,-1.086118,-3.139846
2026-01-04T13:54:07.371091,14.112867,-5.747559,1.746760,-1.831373,-0.773355,-2.982243
2026-01-04T13:54:07.381091,13.438091,-6.685546,2.746960,-1.930333,-0.565661,-2.855183
2026-01-04T13:54:07.390091,13.237094,-7.944171,2.837887,-1.770287,-0.496022,-2.807536
2026-01-04T13:54:07.400091,13.131810,-8.288737,2.340180,-1.216843,-0.459370,-2.875952
2026-01-04T13:54:07.410091,12.959527,-7.752745,0.961914,-0.492357,-0.375071,-2.967582
2026-01-04T13:54:07.419091,12.662817,-6.302694,0.047856,0.268780,-0.238237,-3.043329
2026-01-04T13:54:07.429091,12.074182,-4.240081,-0.162711,0.821002,-0.124616,-3.088534
2026-01-04T13:54:07.439091,11.318050,-2.335394,-0.277567,0.944397,-0.109955,-3.071429
2026-01-04T13:54:07.448091,10.724630,-0.736989,-0.028713,0.614530,-0.221133,-3.001791
2026-01-04T13:54:07.458091,10.303494,0.224925,-0.028713,0.051312,-0.378736,-2.867400
2026-01-04T13:54:07.467091,9.872786,0.258424,0.492921,-0.291993,-0.625525,-2.745227
2026-01-04T13:54:07.477091,11.648260,3.665804,-10.834700,-0.902858,-0.957836,-2.692693
2026-01-04T13:54:07.487091,10.628917,0.277567,1.100698,-1.415985,-1.047022,-2.497216
2026-01-04T13:54:07.496091,11.925827,-0.296710,1.143769,-1.932777,-1.043357,-2.382373
2026-01-04T13:54:07.506091,12.112468,-2.043470,1.607976,-1.859473,-0.943175,-2.320065
2026-01-04T13:54:07.515091,13.581661,-2.182254,0.985842,-2.157575,-0.952949,-2.273639
2026-01-04T13:54:07.525091,13.337593,-2.766102,0.957129,-1.985311,-0.579100,-2.180788
2026-01-04T13:54:07.535091,12.155538,-3.244667,0.851844,-1.688431,-0.109955,-2.050063
2026-01-04T13:54:07.544091,10.480562,-3.522234,0.780060,-1.375668,0.228463,-1.918116
2026-01-04T13:54:07.554091,8.666803,-3.637090,0.531206,-1.010370,0.388510,-1.805717
2026-01-04T13:54:07.564091,7.197610,-3.565305,0.239282,-0.608421,0.351858,-1.738522
2026-01-04T13:54:07.573091,6.149554,-3.397808,0.464207,-0.177150,0.135612,-1.723861
2026-01-04T13:54:07.583091,6.010770,-2.895315,1.349551,0.329867,-0.204028,-1.747074
2026-01-04T13:54:07.592091,6.675975,-1.880758,1.804188,0.718377,-0.583987,-1.764178
2026-01-04T13:54:07.602091,8.044669,-1.177268,0.957129,0.799011,-0.864984,-1.711644
2026-01-04T13:54:07.612091,9.389435,-0.435493,0.454636,0.808785,-0.871093,-1.645670
2026-01-04T13:54:07.621091,10.040283,0.698704,0.540777,0.711046,-0.593760,-1.547932
2026-01-04T13:54:07.631091,9.667003,1.421336,0.430708,0.366519,-0.153938,-1.407433
2026-01-04T13:54:07.640091,8.240881,0.512064,0.923629,-0.150272,0.208915,-1.485623
2026-01-04T13:54:07.650091,6.690331,0.483350,0.397208,-0.602312,0.362853,-1.780060
2026-01-04T13:54:07.660091,5.345565,1.244267,0.081355,-1.127656,0.237015,-1.881464
2026-01-04T13:54:07.669091,4.278366,0.890130,-0.095712,-1.373224,-0.021991,-1.604131
2026-01-04T13:54:07.679091,4.120440,0.401994,-0.177068,-1.954768,-0.359188,-0.949284
2026-01-04T13:54:07.689091,4.622933,-0.038285,-0.234496,-1.852143,-0.691499,-0.218689
2026-01-04T13:54:07.698091,5.082355,-0.775274,0.468993,-1.672548,-0.847880,0.593760
2026-01-04T13:54:07.708091,20.171494,0.430708,1.756331,-1.126435,-1.015257,-0.737925
2026-01-04T13:54:07.717091,8.063812,-5.962913,0.531206,-0.978605,-0.630412,-0.399505
2026-01-04T13:54:07.727091,8.384450,-0.756131,1.009771,-0.359188,-0.139277,-0.478918
2026-01-04T13:54:07.737091,8.571090,-1.100698,0.622133,-0.067195,0.251676,-0.637743
2026-01-04T13:54:07.746091,4.469792,-2.727817,0.358923,0.349414,0.588873,-0.502131
2026-01-04T13:54:07.756091,3.282952,-0.727418,-0.019142,0.547335,0.702494,-0.434935
2026-01-04T13:54:07.765091,1.808973,0.119641,-0.100498,0.560774,0.557108,-0.412944
2026-01-04T13:54:07.775091,0.880558,0.205782,-0.167497,0.516791,0.189368,-0.387288
2026-01-04T13:54:07.785091,0.875773,0.306281,0.028713,0.421496,-0.350636,-0.519235
2026-01-04T13:54:07.794091,1.765903,0.339780,-0.023928,0.345749,-0.896749,-0.790459
2026-01-04T13:54:07.804091,4.000799,1.210768,0.291924,0.262671,-1.236390,-1.069013
2026-01-04T13:54:07.814091,4.689932,1.440479,0.459421,0.134390,-1.246164,-1.122770
2026-01-04T13:54:07.823091,0.449850,-1.430907,0.229710,-0.167377,-0.993266,-0.730594
2026-01-04T13:54:07.833091,5.048855,1.052841,0.550349,-0.354301,-0.485026,-0.036651
2026-01-04T13:54:07.842091,7.082754,-1.703689,0.526420,-0.471587,-0.120951,0.291993
2026-01-04T13:54:07.852091,5.393422,0.267996,0.646062,-0.206472,-0.263893,0.145385
2026-01-04T13:54:07.862091,5.111069,0.339780,0.339780,-0.024434,-0.477696,0.117286
2026-01-04T13:54:07.871091,6.795616,-3.732803,-4.201796,0.087964,-0.702494,0.145385
2026-01-04T13:54:07.881091,6.302694,1.512263,0.143569,0.654847,-0.586430,0.113620
2026-01-04T13:54:07.890091,7.484749,1.703689,0.110069,0.547335,-0.713490,0.171042
2026-01-04T13:54:07.900091,8.733802,2.493321,-0.703489,0.458148,-0.768468,0.000000
2026-01-04T13:54:07.910091,9.844072,2.880958,-0.468993,0.003665,-0.730594,-0.054977
2026-01-04T13:54:07.919091,10.791629,2.885744,-0.373280,-0.436157,-0.637743,-0.025656
2026-01-04T13:54:07.929091,11.485548,2.483749,0.000000,-0.801455,-0.492357,0.014660
2026-01-04T13:54:07.939091,11.715259,1.828116,0.545563,-1.067792,-0.323758,0.042760
2026-01-04T13:54:07.948091,11.629117,1.464407,0.646062,-1.172861,-0.130725,0.128281
2026-01-04T13:54:07.958091,11.241480,0.282353,0.703489,-1.102000,0.061086,0.262671
2026-01-04T13:54:07.967091,10.810772,0.000000,0.784845,-0.921184,0.215024,0.322536
2026-01-04T13:54:07.977091,10.317851,-0.162711,0.904486,-0.739146,0.400727,0.477696
2026-01-04T13:54:07.987091,9.805787,-0.191425,0.368494,-0.321315,0.035430,0.197920
2026-01-04T13:54:07.996091,9.126225,-0.942772,2.498106,0.179594,0.157603,0.138055
2026-01-04T13:54:08.006091,8.566304,-0.081355,2.110469,0.475253,0.226020,0.140498
2026-01-04T13:54:08.015091,8.011170,0.248853,2.282752,0.654847,0.251676,0.130725
2026-01-04T13:54:08.025091,7.508677,0.569491,2.636890,0.777020,0.277332,0.136833
2026-01-04T13:54:08.035091,7.317251,1.086341,2.498106,0.833220,0.234572,0.150272
2026-01-04T13:54:08.044091,7.446463,1.579262,1.923829,0.780685,0.087964,0.163711
2026-01-04T13:54:08.054091,7.972884,1.756331,1.670190,0.623082,-0.065973,0.157603
2026-01-04T13:54:08.064091,8.638089,1.770688,1.899901,0.384845,-0.080634,0.095294
2026-01-04T13:54:08.073091,9.083154,1.780260,1.804188,0.133168,0.051312,-0.015882
2026-01-04T13:54:08.083091,9.317651,2.120040,1.584048,-0.164933,0.244346,-0.156381
2026-01-04T13:54:08.092091,8.561519,2.943171,1.794616,-0.372627,0.411723,0.064751
2026-01-04T13:54:08.102091,8.145168,0.933200,1.775474,-0.470366,0.488692,0.373849
2026-01-04T13:54:08.112091,7.513462,0.234496,1.986042,-0.477696,0.551000,0.439822
2026-01-04T13:54:08.121091,6.924828,-0.421136,2.397608,-0.343306,0.614530,0.410501
2026-01-04T13:54:08.131091,6.379265,-0.899701,2.206182,-0.124616,0.685390,0.400727
2026-01-04T13:54:08.140091,5.737988,-1.153340,1.885544,0.108733,0.763581,0.410501
2026-01-04T13:54:08.150091,5.082355,-1.167697,1.655833,0.355523,0.799011,0.459370
2026-01-04T13:54:08.160091,4.618147,-0.823130,1.205982,0.547335,0.724486,0.591317
2026-01-04T13:54:08.169091,4.752145,-0.937986,0.990628,0.613308,0.515570,0.783129
2026-01-04T13:54:08.179091,5.240281,-0.947557,0.933200,0.525343,0.195476,0.915075
2026-01-04T13:54:08.189091,6.336194,-0.923629,0.961914,0.375071,-0.140498,1.029918
2026-01-04T13:54:08.198091,7.819744,-0.832702,0.789631,0.207694,-0.366519,1.181413
2026-01-04T13:54:08.208091,8.427521,-1.033699,0.770488,0.400727,-0.113620,1.069013
2026-01-04T13:54:08.217091,9.882357,-0.679561,0.473778,0.416610,0.164933,1.099557
2026-01-04T13:54:08.227091,9.686145,-0.401994,0.569491,0.300545,0.500909,1.237612
2026-01-04T13:54:08.237091,8.700302,-0.287138,0.607776,0.166155,0.875980,1.390328
2026-01-04T13:54:08.246091,7.183253,-0.282353,1.115055,0.124616,1.152091,1.486845
2026-01-04T13:54:08.256091,5.690132,-0.296710,1.201196,0.158824,1.271821,1.563814
2026-01-04T13:54:08.265091,4.862215,-0.531206,1.086341,0.260228,1.238834,1.631009
2026-01-04T13:54:08.275091,4.584648,-0.923629,1.095912,0.315206,1.007927,1.657887
2026-01-04T13:54:08.285091,5.618347,-0.909272,0.378065,0.057421,0.472809,1.642005
2026-01-04T13:54:08.294091,6.441478,-1.674975,-0.124426,0.025656,0.173485,1.646892
2026-01-04T13:54:08.304091,7.685746,-1.890329,-0.531206,0.134390,0.057421,1.674992
2026-01-04T13:54:08.314091,8.772087,-1.837687,-0.770488,0.246789,0.094073,1.716530
2026-01-04T13:54:08.323091,9.336793,-1.703689,-0.650847,0.338419,0.259006,1.784947
2026-01-04T13:54:08.333091,9.456434,-1.536192,-0.296710,0.387288,0.436157,1.863138
2026-01-04T13:54:08.342091,9.193224,-1.320838,-0.124426,0.390953,0.561995,1.940107
2026-01-04T13:54:08.352091,8.858229,-1.258624,0.358923,0.384845,0.604756,1.987755
2026-01-04T13:54:08.362091,8.757730,-1.330409,0.961914,0.423940,0.582765,2.002415
2026-01-04T13:54:08.371091,8.896514,-1.258624,1.272981,0.502131,0.541226,1.981646
2026-01-04T13:54:08.381091,9.174081,-1.244267,0.607776,0.553443,0.554665,1.982868
2026-01-04T13:54:08.390091,9.241080,-1.167697,-0.234496,0.627969,0.654847,1.992641
2026-01-04T13:54:08.400091,8.877371,-0.952343,-0.406779,0.648738,0.790459,2.035402
2026-01-04T13:54:08.410091,8.384450,-0.885344,-0.631705,0.541226,0.856432,2.100154
2026-01-04T13:54:08.419091,7.901100,-1.004985,-0.689132,0.354301,0.785572,2.174679
2026-01-04T13:54:08.429091,7.810172,-1.339980,-0.531206,0.152716,0.568104,2.245540
2026-01-04T13:54:08.439091,8.164310,-1.789831,0.014356,0.000000,0.251676,2.302961
2026-01-04T13:54:08.448091,9.140582,-2.234896,0.459421,-0.105068,-0.073303,2.364047
2026-01-04T13:54:08.458091,10.298708,-2.522035,0.473778,-0.150272,-0.272445,2.426356
2026-01-04T13:54:08.467091,11.227123,-2.914457,0.641276,-0.103847,-0.260228,2.478890
2026-01-04T13:54:08.477091,11.672188,-3.034099,0.746560,0.026878,-0.048869,2.521651
2026-01-04T13:54:08.487091,11.298908,-3.024527,0.349352,0.153938,0.274889,2.565633
2026-01-04T13:54:08.496091,10.308279,-3.120240,-0.071784,0.256563,0.575434,2.596176
2026-01-04T13:54:08.506091,9.073583,-3.311666,-0.354137,0.339641,0.726929,2.577850
2026-01-04T13:54:08.515091,8.116454,-3.751945,-0.617348,0.377514,0.647517,2.547307
2026-01-04T13:54:08.525091,7.738388,-4.488935,-0.602991,0.404392,0.373849,2.506990
2026-01-04T13:54:08.535091,8.154739,-5.292923,-0.177068,0.493579,-0.001221,2.444682
2026-01-04T13:54:08.544091,9.107082,-5.905486,0.057427,0.652403,-0.339641,2.395812
2026-01-04T13:54:08.554091,10.131210,-5.953342,0.311066,0.841772,-0.522900,2.372600
2026-01-04T13:54:08.564091,11.140982,-5.723631,0.746560,1.001818,-0.537561,2.366491
2026-01-04T13:54:08.573091,11.562118,-5.225924,0.890130,1.042135,-0.409279,2.414138
2026-01-04T13:54:08.583091,11.523833,-4.699503,0.631705,0.966388,-0.210137,2.472781
2026-01-04T13:54:08.592091,10.920842,-4.197010,0.622133,0.761137,-0.007330,2.516764
2026-01-04T13:54:08.602091,10.088140,-4.144368,0.325423,0.434935,0.100181,2.554637
2026-01-04T13:54:08.612091,9.284151,-4.359722,0.119641,0.113620,0.073303,2.550972
2026-01-04T13:54:08.621091,8.824729,-5.063212,0.263210,-0.147829,-0.092851,2.480112
2026-01-04T13:54:08.631091,8.714659,-6.130411,0.229710,-0.386066,-0.379958,2.404365
2026-01-04T13:54:08.640091,9.403792,-7.365107,0.234496,-0.455705,-0.740368,2.321287
2026-01-04T13:54:08.650091,10.633703,-8.370093,1.119840,-0.320093,-1.036027,2.206444
2026-01-04T13:54:08.660091,11.940184,-8.886943,1.933400,-0.144164,-1.156978,2.146580
2026-01-04T13:54:08.669091,12.844671,-9.188438,2.067398,0.008552,-1.062905,2.200336
2026-01-04T13:54:08.679091,13.117453,-8.925228,1.976471,0.183259,-0.811228,2.284635
2026-01-04T13:54:08.689091,12.701102,-8.149953,2.115255,0.321315,-0.494800,2.350608
2026-01-04T13:54:08.698091,11.638689,-7.556533,2.158325,0.306654,-0.196698,2.427577
2026-01-04T13:54:08.708091,10.418349,-7.422535,2.277967,0.227241,-0.006108,2.476447
2026-01-04T13:54:08.717091,9.336793,-7.604390,2.359323,0.092851,-0.013439,2.454456
2026-01-04T13:54:08.727091,8.791230,-8.417949,2.105683,-0.050090,-0.178372,2.406808
2026-01-04T13:54:08.737091,8.992227,-9.504291,1.818545,-0.057421,-0.444709,2.327396
2026-01-04T13:54:08.746091,9.896714,-10.217352,1.574477,0.161268,-0.712268,2.210109
2026-01-04T13:54:08.756091,11.064411,-10.403992,1.593619,0.478918,-0.875980,2.096489
2026-01-04T13:54:08.765091,12.093325,-10.088140,1.450050,0.750142,-0.861319,2.053728
2026-01-04T13:54:08.775091,12.672388,-9.231509,1.746760,0.990823,-0.662177,2.028072
2026-01-04T13:54:08.785091,12.758530,-8.092526,2.890529,1.087339,-0.346971,1.948659
2026-01-04T13:54:08.794091,12.198609,-7.523034,3.488735,0.852767,0.007330,1.923003
2026-01-04T13:54:08.804091,11.385049,-7.719245,3.929014,0.481361,0.326201,1.944994
2026-01-04T13:54:08.814091,10.542776,-8.465806,4.058227,0.245567,0.563217,1.871690
2026-01-04T13:54:08.823091,9.561719,-9.408578,3.948157,0.078190,0.704938,1.789834
2026-01-04T13:54:08.833091,8.834301,-10.911271,3.512663,0.023212,0.735481,1.706757
2026-01-04T13:54:08.842091,8.322237,-12.117253,3.058027,0.244346,0.681725,1.584584
2026-01-04T13:54:08.852091,8.121239,-12.638888,2.756531,0.585208,0.558330,1.466076
2026-01-04T13:54:08.862091,8.193024,-12.576675,2.474178,0.943175,0.415388,1.372003
2026-01-04T13:54:08.871091,8.236095,-11.552547,2.474178,1.304807,0.338419,1.274264
2026-01-04T13:54:08.881091,8.197810,-10.045069,2.464607,1.413541,0.343306,1.204625
2026-01-04T13:54:08.890091,7.920242,-8.714659,2.431107,1.222951,0.397062,1.177747
2026-01-04T13:54:08.900091,7.446463,-7.762316,2.330609,0.846659,0.467922,1.138652
2026-01-04T13:54:08.910091,7.015755,-7.556533,2.598605,0.277332,0.504574,1.091005
2026-01-04T13:54:08.919091,6.781259,-8.331808,3.024527,-0.333532,0.454483,0.962723
2026-01-04T13:54:08.929091,6.915257,-9.700502,2.924029,-0.763581,0.298102,0.774576
2026-01-04T13:54:08.939091,7.393821,-11.102696,2.756531,-0.883310,0.133168,0.570548
2026-01-04T13:54:08.948091,7.834101,-11.767901,2.349751,-0.648738,0.107512,0.329867
2026-01-04T13:54:08.958091,7.810172,-11.437692,1.627119,-0.140498,0.240680,0.056199
2026-01-04T13:54:08.967091,7.264609,-10.107282,1.138983,0.453261,0.431270,-0.246789
2026-01-04T13:54:08.977091,6.288337,-8.475377,0.756131,0.874758,0.537561,-0.530230
2026-01-04T13:54:08.987091,5.637490,-7.264609,1.138983,0.974940,0.421496,-0.811228
2026-01-04T13:54:08.996091,5.541777,-6.853043,1.694118,0.756251,0.072082,-1.111774
2026-01-04T13:54:09.006091,6.441478,-7.278966,2.019542,0.371405,-0.425162,-1.391550
2026-01-04T13:54:09.015091,8.044669,-8.035098,2.206182,0.017104,-0.880867,-1.682322
2026-01-04T13:54:09.025091,10.045069,-9.040083,2.603390,-0.156381,-1.154535,-1.980424
2026-01-04T13:54:09.035091,11.844471,-9.537790,2.799602,-0.140498,-1.163087,-2.223549
2026-01-04T13:54:09.044091,12.878171,-9.236295,2.694318,0.029321,-0.911410,-2.397034
2026-01-04T13:54:09.054091,12.792029,-7.982456,2.445464,0.246789,-0.483805,-2.533868
2026-01-04T13:54:09.064091,11.657831,-6.077769,2.287538,0.322536,-0.062308,-2.659706
2026-01-04T13:54:09.073091,9.973284,-4.560719,1.584048,0.178372,0.193033,-2.834414
2026-01-04T13:54:09.083091,8.394021,-3.866801,0.689132,-0.223576,0.142942,-3.001791
2026-01-04T13:54:09.092091,7.738388,-4.101297,0.315852,-0.847880,-0.224798,-3.116633
2026-01-04T13:54:09.102091,8.216952,-5.048855,0.133998,-1.566258,-0.805120,-3.191159
2026-01-04T13:54:09.112091,9.877571,-6.814758,0.516849,-2.216218,-1.391550,-3.295006
2026-01-04T13:54:09.121091,12.442677,-9.087940,1.311266,-2.714684,-1.772730,-3.368310
2026-01-04T13:54:09.131091,15.103496,-11.203195,1.210768,-2.891835,-1.756848,-3.316997
2026-01-04T13:54:09.140091,16.730616,-12.519247,0.813559,-2.635272,-1.303586,-3.198489
2026-01-04T13:54:09.150091,16.716257,-12.959527,1.105484,-2.043954,-0.549778,-3.084868
2026-01-04T13:54:09.160091,15.141781,-12.423534,1.129412,-1.337794,0.212581,-2.999347
2026-01-04T13:54:09.169091,12.476177,-11.097911,0.751346,-0.652403,0.719599,-2.971247
2026-01-04T13:54:09.179091,10.049854,-9.341579,0.512064,-0.068416,0.842993,-3.061655
2026-01-04T13:54:09.189091,8.240881,-7.566105,0.157926,0.357966,0.608421,-3.240028
2026-01-04T13:54:09.198091,7.331608,-5.670989,0.081355,0.641408,0.162490,-3.458718
2026-01-04T13:54:09.208091,7.369893,-3.823730,-0.421136,0.772133,-0.349414,-3.677407
2026-01-04T13:54:09.217091,8.015955,-2.282752,-0.928415,0.781907,-0.801455,-3.900984
2026-01-04T13:54:09.227091,9.389435,-1.282552,-0.602991,0.680503,-1.122770,-4.036596
2026-01-04T13:54:09.237091,11.102696,-1.043270,0.177068,0.323758,-1.325577,-4.065918
2026-01-04T13:54:09.246091,12.825529,-1.584048,0.320638,-0.213802,-1.352455,-3.977953
2026-01-04T13:54:09.256091,14.380863,-2.426322,0.349352,-0.777020,-1.211956,-3.825237
2026-01-04T13:54:09.265091,15.510276,-3.450450,0.488135,-1.282816,-0.968832,-3.679851
2026-01-04T13:54:09.275091,15.979269,-4.412364,0.617348,-1.646892,-0.678060,-3.524691
2026-01-04T13:54:09.285091,15.716058,-5.044070,0.665204,-1.815491,-0.373849,-3.349984
2026-01-04T13:54:09.294091,15.098710,-5.087140,0.870987,-1.842369,-0.128281,-3.192381
2026-01-04T13:54:09.304091,14.050654,-4.819144,1.091127,-1.844812,0.019547,-3.039664
2026-01-04T13:54:09.314091,13.036097,-4.488935,1.258624,-1.876577,0.054977,-2.896722
2026-01-04T13:54:09.323091,12.279965,-4.206582,1.100698,-1.910786,0.013439,-2.769662
2026-01-04T13:54:09.333091,11.700902,-4.206582,0.808774,-1.871690,-0.037873,-2.686584
2026-01-04T13:54:09.342091,11.203195,-4.096512,0.914058,-1.659109,-0.047647,-2.646267
2026-01-04T13:54:09.352091,10.805986,-3.938585,1.014556,-1.315803,-0.018325,-2.608394
2026-01-04T13:54:09.362091,10.389635,-3.761517,0.818345,-0.918741,-0.002443,-2.570520
2026-01-04T13:54:09.371091,10.150353,-3.637090,0.416351,-0.547335,-0.031764,-2.508212
2026-01-04T13:54:09.381091,10.092925,-3.684946,-0.019142,-0.224798,-0.083077,-2.419025
2026-01-04T13:54:09.390091,10.001998,-3.790230,-0.411565,0.078190,-0.097738,-2.307848
2026-01-04T13:54:09.400091,9.844072,-3.536591,-0.521635,0.362853,-0.043982,-2.184453
2026-01-04T13:54:09.410091,9.351150,-3.034099,-0.177068,0.615752,0.061086,-2.062280
2026-01-04T13:54:09.419091,8.504091,-2.230110,0.421136,0.803898,0.168598,-1.957211
2026-01-04T13:54:09.429091,7.551748,-1.292124,0.727418,0.864984,0.228463,-1.857029
2026-01-04T13:54:09.439091,6.656832,-0.564706,0.789631,0.774576,0.200363,-1.766621
2026-01-04T13:54:09.448091,6.025127,-0.114855,0.765703,0.571769,0.063529,-1.690874
2026-01-04T13:54:09.458091,5.718846,-0.033499,0.689132,0.320093,-0.169820,-1.612683
2026-01-04T13:54:09.467091,6.135197,-0.210568,0.756131,0.086742,-0.447153,-1.555262
2026-01-04T13:54:09.477091,6.896114,-0.574277,0.564706,-0.085521,-0.691499,-1.492954
2026-01-04T13:54:09.487091,7.905885,-0.713061,-0.090927,-0.164933,-0.811228,-1.403768
2026-01-04T13:54:09.496091,8.767302,-0.689132,-0.488135,-0.155159,-0.731816,-1.315803
2026-01-04T13:54:09.506091,8.977870,-0.531206,-0.416351,-0.106290,-0.463035,-1.222951
2026-01-04T13:54:09.515091,8.355736,-0.373280,-0.272781,-0.130725,-0.100181,-1.106887
2026-01-04T13:54:09.525091,7.154539,-0.339780,-0.071784,-0.226020,0.206472,-0.973718
2026-01-04T13:54:09.535091,5.785845,-0.473778,0.110069,-0.322536,0.367740,-0.872315
2026-01-04T13:54:09.544091,4.512863,-0.698704,0.296710,-0.406836,0.367740,-0.788015
2026-01-04T13:54:09.554091,3.512663,-0.933200,0.669990,-0.417831,0.256563,-0.713490
2026-01-04T13:54:09.564091,3.086741,-1.148554,1.019342,-0.356745,0.069638,-0.657290
2026-01-04T13:54:09.573091,2.976671,-1.177268,0.660419,-0.342084,-0.147829,-0.583987
2026-01-04T13:54:09.583091,3.517449,-0.971485,0.177068,-0.285884,-0.334754,-0.522900
2026-01-04T13:54:09.592091,4.134797,-0.583848,-0.148355,-0.223576,-0.465479,-0.476474
2026-01-04T13:54:09.602091,4.742574,-0.052642,-0.057427,-0.227241,-0.485026,-0.411723
2026-01-04T13:54:09.612091,5.048855,0.306281,0.181854,-0.332310,-0.355523,-0.348193
2026-01-04T13:54:09.621091,4.852644,0.330209,0.526420,-0.500909,-0.125838,-0.267558
2026-01-04T13:54:09.631091,4.106083,0.248853,0.708275,-0.692721,0.091629,-0.185702
2026-01-04T13:54:09.640091,3.235096,-0.148355,0.818345,-0.839328,0.205250,-0.118507
2026-01-04T13:54:09.650091,2.665604,-0.478564,0.914058,-0.889419,0.168598,-0.079412
2026-01-04T13:54:09.660091,2.349751,-0.890130,0.799202,-0.834441,0.017104,-0.067195
2026-01-04T13:54:09.669091,2.517249,-1.143769,0.684347,-0.691499,-0.199142,-0.063529
2026-01-04T13:54:09.679091,3.196810,-1.162911,0.626919,-0.470366,-0.422718,-0.075747
2026-01-04T13:54:09.689091,4.398007,-0.942772,0.703489,-0.226020,-0.612086,-0.094073
2026-01-04T13:54:09.698091,5.536991,-0.598205,0.660419,-0.041538,-0.702494,-0.092851
2026-01-04T13:54:09.708091,6.613761,-0.224925,0.363709,0.086742,-0.658512,-0.063529
2026-01-04T13:54:09.717091,7.384250,0.296710,-0.019142,0.164933,-0.520457,-0.015882
2026-01-04T13:54:09.727091,7.829315,0.684347,-0.138783,0.160046,-0.377514,0.030543
2026-01-04T13:54:09.737091,8.082954,0.866201,-0.090927,0.070860,-0.329867,0.074525
2026-01-04T13:54:09.746091,8.408378,0.722632,-0.124426,-0.035430,-0.416610,0.112399
2026-01-04T13:54:09.756091,9.064012,0.430708,0.263210,-0.123394,-0.714712,-0.053756
2026-01-04T13:54:09.765091,10.317851,0.459421,0.052642,-0.113620,-1.160643,-0.323758
2026-01-04T13:54:09.775091,12.294322,1.387837,0.713061,0.287106,-1.170417,-0.166155
2026-01-04T13:54:09.785091,13.988440,1.622333,-0.588634,0.094073,-1.153313,0.097738
2026-01-04T13:54:09.794091,15.605988,1.646261,-0.732203,-0.023212,-1.001818,0.228463
2026-01-04T13:54:09.804091,16.122837,1.986042,-0.301495,0.028099,-0.535117,0.334754
2026-01-04T13:54:09.814091,14.821143,2.335394,0.315852,0.045204,0.185702,0.452040
2026-01-04T13:54:09.823091,12.136396,2.210968,0.660419,0.035430,0.855211,0.541226
2026-01-04T13:54:09.833091,9.260223,2.148754,0.598205,0.046425,1.252273,0.377514
2026-01-04T13:54:09.842091,6.637689,2.048256,0.626919,0.050090,1.419650,0.127059
2026-01-04T13:54:09.852091,6.637689,3.153740,3.503092,-0.235793,1.177747,-0.103847
2026-01-04T13:54:09.862091,3.909872,2.857030,1.674975,0.145385,0.431270,0.087964
2026-01-04T13:54:09.871091,4.656432,3.000599,1.397408,0.410501,-0.213802,0.193033
2026-01-04T13:54:09.881091,6.269195,3.091526,1.325623,0.525343,-0.687834,0.166155
2026-01-04T13:54:09.890091,8.432306,3.321237,1.292124,0.571769,-0.926071,0.069638
2026-01-04T13:54:09.900091,10.456634,3.555734,1.014556,0.493579,-0.839328,0.003665
2026-01-04T13:54:09.910091,11.633903,3.661018,0.832702,0.309097,-0.496022,-0.023212
2026-01-04T13:54:09.919091,11.911470,3.512663,0.765703,0.051312,-0.046425,-0.007330
2026-01-04T13:54:09.929091,11.284551,3.125026,1.105484,-0.232128,0.372627,0.045204
2026-01-04T13:54:09.939091,10.097711,2.392822,1.205982,-0.470366,0.660956,0.100181
2026-01-04T13:54:09.948091,8.839086,1.660618,1.603191,-0.581543,0.753807,0.139277
2026-01-04T13:54:09.958091,8.092526,1.024128,1.966900,-0.560774,0.632856,0.136833
2026-01-04T13:54:09.967091,8.011170,0.617348,1.708475,-0.454483,0.404392,0.125838
2026-01-04T13:54:09.977091,8.365307,0.291924,1.584048,-0.277332,0.210137,0.101403
2026-01-04T13:54:09.987091,9.030512,0.258424,1.674975,-0.081855,0.120951,0.094073
2026-01-04T13:54:09.996091,9.442077,0.473778,1.646261,0.043982,0.171042,0.124616
2026-01-04T13:54:10.006091,9.489934,0.636490,1.584048,0.109955,0.340862,0.208915
2026-01-04T13:54:10.015091,9.016155,0.689132,1.732403,0.152716,0.565661,0.331088
2026-01-04T13:54:10.025091,8.322237,0.526420,1.622333,0.135612,0.715933,0.415388
2026-01-04T13:54:10.035091,7.427321,0.401994,1.406979,0.089186,0.791681,0.491135
2026-01-04T13:54:10.044091,6.556333,0.143569,1.330409,0.056199,0.811228,0.605978
2026-01-04T13:54:10.054091,5.876772,-0.186640,1.296909,0.059864,0.784350,0.774576
2026-01-04T13:54:10.064091,5.278566,-0.617348,1.512263,0.146607,0.736703,0.988379
2026-01-04T13:54:10.073091,5.029713,-0.870987,1.497906,0.257785,0.621860,1.167974
2026-01-04T13:54:10.083091,5.484349,-0.928415,1.454836,0.338419,0.504574,1.297477
2026-01-04T13:54:10.092091,4.948357,-0.966700,1.205982,0.266337,0.381179,1.242499
2026-01-04T13:54:10.102091,5.201996,-0.411565,0.617348,0.191811,0.335975,1.188743
2026-01-04T13:54:10.112091,5.431707,-0.287138,0.622133,0.136833,0.384845,1.203404
2026-01-04T13:54:10.121091,5.666203,-1.043270,-0.234496,0.063529,0.471587,1.214399
2026-01-04T13:54:10.131091,5.623133,-0.296710,0.674775,-0.024434,0.563217,1.231504
2026-01-04T13:54:10.140091,5.704489,-0.521635,0.598205,-0.135612,0.615752,1.290147
2026-01-04T13:54:10.150091,5.618347,-0.741775,0.593420,-0.237015,0.667064,1.381776
2026-01-04T13:54:10.160091,5.402993,-1.004985,0.550349,-0.294436,0.704938,1.475850
2026-01-04T13:54:10.169091,5.197210,-1.205982,0.569491,-0.310319,0.691499,1.554040
2026-01-04T13:54:10.179091,5.149354,-1.526620,0.708275,-0.268780,0.623082,1.628566
2026-01-04T13:54:10.189091,5.359922,-1.861615,0.789631,-0.129503,0.510683,1.710422
2026-01-04T13:54:10.198091,5.886343,-2.134397,1.000199,0.081855,0.388510,1.811825
2026-01-04T13:54:10.208091,6.671189,-3.527020,1.148554,0.263893,0.342084,1.704313
2026-01-04T13:54:10.217091,7.494320,-2.297109,0.038285,0.475253,0.371405,1.646892
2026-01-04T13:54:10.227091,7.901100,-2.072184,-0.167497,0.645073,0.500909,1.685987
2026-01-04T13:54:10.237091,7.901100,-1.679761,-0.177068,0.698829,0.664621,1.773952
2026-01-04T13:54:10.246091,7.499106,-1.043270,-0.138783,0.626747,0.812450,1.865582
2026-01-04T13:54:10.256091,6.805187,-0.717846,0.224925,0.433714,0.897971,1.951103
2026-01-04T13:54:10.265091,6.125625,-0.550349,0.306281,0.127059,0.863763,2.063502
2026-01-04T13:54:10.275091,5.733202,-0.899701,0.172283,-0.200363,0.700051,2.163684
2026-01-04T13:54:10.285091,5.728417,-1.464407,0.258424,-0.455705,0.423940,2.240653
2026-01-04T13:54:10.294091,6.403193,-2.191825,0.311066,-0.588873,0.073303,2.278526
2026-01-04T13:54:10.304091,7.551748,-2.857030,0.516849,-0.566882,-0.255341,2.285857
2026-01-04T13:54:10.314091,9.049655,-3.536591,0.311066,-0.452040,-0.466700,2.277305
2026-01-04T13:54:10.323091,10.523633,-4.048655,0.220139,-0.294436,-0.508239,2.271196
2026-01-04T13:54:10.333091,11.538190,-4.460221,-0.157926,-0.034208,-0.373849,2.272418
2026-01-04T13:54:10.342091,11.854043,-4.508077,-0.057427,0.270002,-0.113620,2.272418
2026-01-04T13:54:10.352091,11.542976,-4.383651,-0.186640,0.486248,0.178372,2.288300
2026-01-04T13:54:10.362091,10.604989,-4.235296,-0.401994,0.656069,0.383623,2.311513
2026-01-04T13:54:10.371091,9.719645,-3.900300,-0.435493,0.827111,0.406836,2.298074
2026-01-04T13:54:10.381091,9.236295,-3.474378,0.057427,0.913854,0.199142,2.276083
2026-01-04T13:54:10.390091,9.614361,-3.158525,0.368494,0.875980,-0.180816,2.256535
2026-01-04T13:54:10.400091,10.729416,-2.943171,0.368494,0.769690,-0.540004,2.247983
2026-01-04T13:54:10.410091,12.078968,-2.947957,0.416351,0.629191,-0.681725,2.277305
2026-01-04T13:54:10.419091,13.098310,-3.067598,0.488135,0.455705,-0.579100,2.355495
2026-01-04T13:54:10.429091,13.476376,-3.550948,1.119840,0.294436,-0.322536,2.430021
2026-01-04T13:54:10.439091,13.174881,-4.297509,1.450050,0.142942,-0.031764,2.486221
2026-01-04T13:54:10.448091,12.370892,-5.163711,1.215553,0.042760,0.204028,2.548529
2026-01-04T13:54:10.458091,11.480762,-5.919843,0.684347,0.013439,0.306654,2.577850
2026-01-04T13:54:10.467091,10.581061,-6.350551,-0.028713,0.021991,0.235793,2.613280
2026-01-04T13:54:10.477091,10.193424,-6.498906,-0.282353,0.054977,-0.029321,2.631606
2026-01-04T13:54:10.487091,10.542776,-6.608976,0.028713,0.067195,-0.394618,2.626719
2026-01-04T13:54:10.496091,11.365907,-6.853043,0.210568,0.075747,-0.696386,2.612059
2026-01-04T13:54:10.506091,12.236894,-6.991827,0.406779,0.127059,-0.835663,2.597398
2026-01-04T13:54:10.515091,12.916456,-7.049255,0.727418,0.222354,-0.799011,2.585181
2026-01-04T13:54:10.525091,13.184452,-7.255038,1.359123,0.351858,-0.615752,2.574185
2026-01-04T13:54:10.535091,13.131810,-7.551748,2.555534,0.515570,-0.355523,2.590068
2026-01-04T13:54:10.544091,12.729816,-8.154739,3.048455,0.660956,-0.074525,2.627941
2026-01-04T13:54:10.554091,12.174681,-9.241080,2.062613,0.777020,0.190589,2.726901
2026-01-04T13:54:10.564091,11.576475,-9.810572,1.148554,0.972497,0.333532,2.860070
2026-01-04T13:54:10.573091,10.959127,-9.432506,0.588634,0.839328,0.161268,2.965139
2026-01-04T13:54:10.583091,10.619346,-8.585447,-0.713061,0.467922,-0.212581,3.014008
2026-01-04T13:54:10.592091,10.475777,-7.484749,-1.344766,0.709825,-0.254119,3.033556
2026-01-04T13:54:10.602091,10.159924,-6.321837,-0.114855,0.660956,-0.289550,2.982243
2026-01-04T13:54:10.612091,9.949356,-5.781059,1.009771,0.362853,-0.322536,2.900387
2026-01-04T13:54:10.621091,9.748359,-6.034698,1.885544,-0.024434,-0.328645,2.808757
2026-01-04T13:54:10.631091,9.882357,-6.910471,2.742174,-0.371405,-0.304210,2.701245
2026-01-04T13:54:10.640091,10.183852,-8.561519,1.823330,-0.135612,-0.039095,2.604728
2026-01-04T13:54:10.650091,10.499705,-9.585647,3.833301,-0.640186,-0.090408,2.528981
2026-01-04T13:54:10.660091,10.040283,-11.246266,2.952743,-0.717155,0.012217,2.471560
2026-01-04T13:54:10.669091,9.556933,-11.830114,1.895115,-0.486248,0.190589,2.477668
2026-01-04T13:54:10.679091,9.011369,-11.925827,0.928415,-0.263893,0.283441,2.458121
2026-01-04T13:54:10.689091,8.614161,-11.533404,0.387637,-0.021991,0.259006,2.384817
2026-01-04T13:54:10.698091,8.446663,-10.590632,0.827916,0.210137,0.195476,2.240653
2026-01-04T13:54:10.708091,8.164310,-9.585647,1.162911,0.278554,0.177150,2.090380
2026-01-04T13:54:10.717091,7.987241,-8.671589,1.536192,0.217467,0.189368,1.974316
2026-01-04T13:54:10.727091,7.867600,-7.738388,2.129612,0.075747,0.172263,1.830151
2026-01-04T13:54:10.737091,7.939385,-7.063612,2.589034,-0.204028,0.120951,1.715309
2026-01-04T13:54:10.746091,8.020741,-6.967899,2.694318,-0.571769,0.127059,1.635896
2026-01-04T13:54:10.756091,7.987241,-7.518248,2.732603,-0.944397,0.244346,1.539380
2026-01-04T13:54:10.765091,7.872386,-8.733802,2.536391,-1.310916,0.433714,1.464854
2026-01-04T13:54:10.775091,7.475177,-10.336993,2.124826,-1.488067,0.608421,1.346346
2026-01-04T13:54:10.785091,6.982256,-11.777472,1.952543,-1.393994,0.729372,1.119104
2026-01-04T13:54:10.794091,6.805187,-13.064811,1.665404,-1.034805,0.759916,0.769690
2026-01-04T13:54:10.804091,6.752545,-13.849657,1.564905,-0.361632,0.674395,0.309097
2026-01-04T13:54:10.814091,6.996613,-13.792229,1.555334,0.423940,0.525343,-0.193033
2026-01-04T13:54:10.823091,7.255038,-13.079168,1.115055,0.989601,0.393397,-0.602312
2026-01-04T13:54:10.833091,7.628318,-12.179467,1.124626,1.307251,0.290771,-0.946840
2026-01-04T13:54:10.842091,7.891528,-10.839486,1.751546,1.433089,0.218689,-1.277929
2026-01-04T13:54:10.852091,8.279166,-9.422935,2.488535,1.335351,0.200363,-1.577253
2026-01-04T13:54:10.862091,8.389236,-8.327022,3.440878,1.134987,0.244346,-1.852143
2026-01-04T13:54:10.871091,8.169096,-7.322037,3.555734,0.889419,0.296880,-2.097710
2026-01-04T13:54:10.881091,7.901100,-6.967899,2.325823,0.428827,0.274889,-2.269974
2026-01-04T13:54:10.890091,7.819744,-7.494320,0.713061,-0.119729,0.100181,-2.425134
2026-01-04T13:54:10.900091,8.226524,-8.551947,-0.052642,-0.609643,-0.205250,-2.604728
2026-01-04T13:54:10.910091,9.178867,-10.011569,-0.354137,-1.120326,-0.565661,-2.741562
2026-01-04T13:54:10.919091,10.609775,-11.552547,0.052642,-1.412320,-0.891863,-2.868622
2026-01-04T13:54:10.929091,12.342178,-12.308679,1.584048,-1.314581,-1.065348,-3.062877
2026-01-04T13:54:10.939091,13.801800,-12.509676,2.402393,-1.142317,-0.974940,-3.109303
2026-01-04T13:54:10.948091,14.232508,-12.610175,2.134397,-0.956614,-0.583987,-2.996904
2026-01-04T13:54:10.958091,13.442877,-12.356535,1.751546,-0.618195,-0.007330,-2.912604
2026-01-04T13:54:10.967091,11.662617,-11.739187,1.550549,-0.200363,0.496022,-2.869844
2026-01-04T13:54:10.977091,9.590432,-10.853843,1.038485,0.182037,0.762359,-2.847853
2026-01-04T13:54:10.987091,7.618747,-9.671788,0.320638,0.610865,0.748920,-2.957808
2026-01-04T13:54:10.996091,6.025127,-7.834101,-0.847059,1.098335,0.502131,-3.222924
2026-01-04T13:54:11.006091,5.187639,-6.020341,-1.411765,1.436754,0.019547,-3.533243
2026-01-04T13:54:11.015091,5.637490,-4.924428,-2.230110,1.382998,-0.649960,-3.767816
2026-01-04T13:54:11.025091,7.054041,-4.244867,-0.588634,1.253495,-1.288925,-3.909536
2026-01-04T13:54:11.035091,9.446863,-4.067798,0.545563,0.812450,-1.805717,-3.916867
2026-01-04T13:54:11.044091,12.083754,-4.608576,0.129212,0.111177,-2.048841,-3.726277
2026-01-04T13:54:11.054091,14.328221,-5.331208,0.468993,-0.425162,-1.902233,-3.517361
2026-01-04T13:54:11.064091,15.744772,-5.661418,1.531406,-0.833220,-1.426980,-3.330436
2026-01-04T13:54:11.073091,15.730415,-6.163911,1.713260,-1.285260,-0.767246,-3.049438
2026-01-04T13:54:11.083091,14.371292,-6.776473,1.378265,-1.618792,-0.131946,-2.802649
2026-01-04T13:54:11.092091,12.442677,-7.192824,1.205982,-1.721417,0.266337,-2.674367
2026-01-04T13:54:11.102091,10.681560,-7.283751,1.138983,-1.643227,0.340862,-2.648711
2026-01-04T13:54:11.112091,9.379864,-7.073183,0.851844,-1.419650,0.161268,-2.691471
2026-01-04T13:54:11.121091,8.963513,-6.527620,0.655633,-1.073900,-0.146607,-2.792875
2026-01-04T13:54:11.131091,9.054440,-5.608776,0.215354,-0.679282,-0.433714,-2.924822
2026-01-04T13:54:11.140091,9.590432,-4.651647,0.425922,-0.329867,-0.621860,-2.999347
2026-01-04T13:54:11.150091,10.207781,-3.852444,0.971485,-0.073303,-0.662177,-3.048216
2026-01-04T13:54:11.160091,10.834700,-3.220739,1.196411,0.050090,-0.563217,-3.039664
2026-01-04T13:54:11.169091,11.145767,-2.809173,1.411765,0.058643,-0.360410,-2.998125
2026-01-04T13:54:11.179091,11.117053,-2.560320,1.220339,-0.062308,-0.146607,-2.900387
2026-01-04T13:54:11.189091,10.829915,-2.565105,0.909272,-0.251676,0.000000,-2.781879
2026-01-04T13:54:11.198091,10.490134,-2.699103,0.813559,-0.428827,0.070860,-2.686584
2026-01-04T13:54:11.208091,10.116853,-2.699103,0.813559,-0.540004,0.100181,-2.591289
2026-01-04T13:54:11.217091,9.911071,-2.665604,1.004985,-0.609643,0.118507,-2.516764
2026-01-04T13:54:11.227091,9.619146,-2.493321,0.981057,-0.663399,0.118507,-2.431243
2026-01-04T13:54:11.237091,9.260223,-2.163111,0.842273,-0.711046,0.102625,-2.350608
2026-01-04T13:54:11.246091,8.901300,-1.828116,0.674775,-0.783129,0.075747,-2.285857
2026-01-04T13:54:11.256091,8.523234,-1.607976,0.521635,-0.858876,0.028099,-2.234544
2026-01-04T13:54:11.265091,8.389236,-1.679761,0.540777,-0.902858,-0.045204,-2.177123
2026-01-04T13:54:11.275091,8.508877,-1.923829,0.617348,-0.901636,-0.141720,-2.144136
2026-01-04T13:54:11.285091,8.858229,-2.277967,0.526420,-0.802676,-0.208915,-2.114815
2026-01-04T13:54:11.294091,9.375078,-2.459821,0.588634,-0.591317,-0.201585,-2.058615
2026-01-04T13:54:11.304091,9.556933,-2.316252,0.612562,-0.377514,-0.094073,-1.962098
2026-01-04T13:54:11.314091,9.355936,-2.120040,0.449850,-0.233350,0.090408,-1.836260
