Timestamp,Acceleration_X,Acceleration_Y,Acceleration_Z,Gyro_X,Gyro_Y,Gyro_Z
2025-12-31T16:05:35.300927,9.719645,-1.550549,1.665404,-0.012217,-0.023212,0.026878
2025-12-31T16:05:35.310927,9.738787,-1.631905,1.622333,-0.004886,-0.029321,0.023212
2025-12-31T16:05:35.319927,9.719645,-1.579262,1.631905,0.002443,-0.028099,0.018325
2025-12-31T16:05:35.329927,9.695717,-1.555334,1.689332,0.003665,-0.020769,0.017104
2025-12-31T16:05:35.338927,9.719645,-1.560120,1.655833,0.006108,-0.015882,0.019547
2025-12-31T16:05:35.348927,9.628718,-1.507478,1.665404,0.004886,-0.015882,0.015882
2025-12-31T16:05:35.358927,9.643075,-1.517049,1.718046,0.002443,-0.018325,0.018325
2025-12-31T16:05:35.367927,9.585647,-1.488335,1.651047,-0.002443,-0.019547,0.020769
2025-12-31T16:05:35.377927,9.647860,-1.478764,1.603191,-0.012217,-0.026878,0.020769
2025-12-31T16:05:35.387927,9.647860,-1.564905,1.603191,-0.020769,-0.029321,0.025656
2025-12-31T16:05:35.396927,9.748359,-1.555334,1.694118,-0.023212,-0.029321,0.021991
2025-12-31T16:05:35.406927,9.676574,-1.521835,1.617548,-0.021991,-0.028099,0.017104
2025-12-31T16:05:35.415927,9.690931,-1.521835,1.660618,-0.021991,-0.025656,0.017104
2025-12-31T16:05:35.425927,9.676574,-1.507478,1.622333,-0.028099,-0.024434,0.018325
2025-12-31T16:05:35.435927,9.710074,-1.545763,1.670190,-0.026878,-0.028099,0.018325
2025-12-31T16:05:35.444927,9.662217,-1.607976,1.651047,-0.019547,-0.026878,0.019547
2025-12-31T16:05:35.454927,9.633503,-1.627119,1.665404,-0.015882,-0.029321,0.015882
2025-12-31T16:05:35.463927,9.714859,-1.531406,1.631905,-0.012217,-0.032986,0.018325
2025-12-31T16:05:35.473927,9.643075,-1.574477,1.655833,-0.017104,-0.036651,0.015882
2025-12-31T16:05:35.483927,9.676574,-1.607976,1.684547,-0.018325,-0.035430,0.017104
2025-12-31T16:05:35.492927,9.695717,-1.574477,1.636690,-0.013439,-0.035430,0.018325
2025-12-31T16:05:35.502927,9.743573,-1.564905,1.641476,-0.014660,-0.032986,0.014660
2025-12-31T16:05:35.512927,9.652646,-1.622333,1.684547,-0.017104,-0.030543,0.013439
2025-12-31T16:05:35.521927,9.729216,-1.584048,1.631905,-0.017104,-0.025656,0.018325
2025-12-31T16:05:35.531927,9.662217,-1.674975,1.689332,-0.012217,-0.024434,0.019547
2025-12-31T16:05:35.540927,9.633503,-1.564905,1.703689,-0.007330,-0.019547,0.023212
2025-12-31T16:05:35.550927,9.633503,-1.536192,1.722832,-0.007330,-0.024434,0.024434
2025-12-31T16:05:35.560927,9.628718,-1.459621,1.631905,-0.015882,-0.028099,0.026878
2025-12-31T16:05:35.569927,9.724431,-1.564905,1.646261,-0.026878,-0.031764,0.028099
2025-12-31T16:05:35.579927,9.695717,-1.536192,1.627119,-0.032986,-0.034208,0.025656
2025-12-31T16:05:35.588927,9.714859,-1.631905,1.584048,-0.024434,-0.039095,0.023212
2025-12-31T16:05:35.598927,9.796215,-1.612762,1.646261,-0.017104,-0.047647,0.014660
2025-12-31T16:05:35.608927,9.815358,-1.636690,1.741974,-0.006108,-0.043982,0.008552
2025-12-31T16:05:35.617927,9.786644,-1.550549,1.689332,0.000000,-0.029321,0.006108
2025-12-31T16:05:35.627927,9.762716,-1.607976,1.679761,-0.001221,-0.017104,0.007330
2025-12-31T16:05:35.637927,9.738787,-1.603191,1.694118,-0.003665,-0.009773,0.008552
2025-12-31T16:05:35.646927,9.576076,-1.540977,1.665404,-0.006108,-0.007330,0.014660
2025-12-31T16:05:35.656927,9.571290,-1.521835,1.674975,-0.009773,-0.015882,0.015882
2025-12-31T16:05:35.665927,9.614361,-1.493121,1.651047,-0.013439,-0.028099,0.020769
2025-12-31T16:05:35.675927,9.671788,-1.550549,1.684547,-0.013439,-0.032986,0.015882
2025-12-31T16:05:35.685927,9.628718,-1.493121,1.698904,-0.018325,-0.026878,0.015882
2025-12-31T16:05:35.694927,9.647860,-1.497906,1.703689,-0.030543,-0.020769,0.019547
2025-12-31T16:05:35.704927,9.724431,-1.540977,1.627119,-0.042760,-0.017104,0.018325
2025-12-31T16:05:35.713927,9.609575,-1.598405,1.588834,-0.037873,-0.021991,0.017104
2025-12-31T16:05:35.723927,9.647860,-1.627119,1.636690,-0.024434,-0.029321,0.013439
2025-12-31T16:05:35.733927,9.667003,-1.636690,1.631905,-0.010995,-0.031764,0.014660
2025-12-31T16:05:35.742927,9.734002,-1.622333,1.660618,-0.003665,-0.028099,0.015882
2025-12-31T16:05:35.752927,9.748359,-1.560120,1.660618,-0.007330,-0.018325,0.023212
2025-12-31T16:05:35.762927,9.729216,-1.521835,1.665404,-0.014660,-0.014660,0.025656
2025-12-31T16:05:35.771927,9.676574,-1.631905,1.641476,-0.015882,-0.015882,0.028099
2025-12-31T16:05:35.781927,9.671788,-1.651047,1.646261,-0.009773,-0.023212,0.024434
2025-12-31T16:05:35.790927,9.700502,-1.545763,1.684547,-0.004886,-0.030543,0.019547
2025-12-31T16:05:35.800927,9.734002,-1.588834,1.655833,-0.006108,-0.031764,0.020769
2025-12-31T16:05:35.810927,9.734002,-1.593619,1.674975,-0.010995,-0.028099,0.017104
2025-12-31T16:05:35.819927,9.743573,-1.651047,1.703689,-0.004886,-0.017104,0.017104
2025-12-31T16:05:35.829927,9.681360,-1.670190,1.689332,0.009773,-0.007330,0.018325
2025-12-31T16:05:35.838927,9.580861,-1.612762,1.665404,0.020769,-0.006108,0.015882
2025-12-31T16:05:35.848927,9.647860,-1.564905,1.622333,0.023212,-0.007330,0.017104
2025-12-31T16:05:35.858927,9.600004,-1.560120,1.598405,0.019547,-0.017104,0.019547
2025-12-31T16:05:35.867927,9.571290,-1.521835,1.646261,0.012217,-0.020769,0.020769
2025-12-31T16:05:35.877927,9.643075,-1.521835,1.593619,0.006108,-0.025656,0.023212
2025-12-31T16:05:35.887927,9.566504,-1.454836,1.646261,-0.004886,-0.031764,0.021991
2025-12-31T16:05:35.896927,9.738787,-1.406979,1.689332,-0.018325,-0.034208,0.014660
2025-12-31T16:05:35.906927,9.734002,-1.459621,1.684547,-0.031764,-0.035430,0.013439
2025-12-31T16:05:35.915927,9.753144,-1.574477,1.655833,-0.035430,-0.029321,0.015882
2025-12-31T16:05:35.925927,9.805787,-1.593619,1.631905,-0.029321,-0.025656,0.013439
2025-12-31T16:05:35.935927,9.757930,-1.612762,1.641476,-0.023212,-0.023212,0.007330
2025-12-31T16:05:35.944927,9.690931,-1.598405,1.598405,-0.017104,-0.021991,0.009773
2025-12-31T16:05:35.954927,9.700502,-1.603191,1.727617,-0.017104,-0.026878,0.010995
2025-12-31T16:05:35.963927,9.676574,-1.607976,1.694118,-0.014660,-0.026878,0.013439
2025-12-31T16:05:35.973927,9.676574,-1.622333,1.698904,-0.008552,-0.029321,0.008552
2025-12-31T16:05:35.983927,9.681360,-1.540977,1.665404,-0.007330,-0.028099,0.010995
2025-12-31T16:05:35.992927,9.719645,-1.622333,1.660618,-0.014660,-0.029321,0.014660
2025-12-31T16:05:36.002927,9.714859,-1.584048,1.679761,-0.019547,-0.030543,0.014660
2025-12-31T16:05:36.012927,9.690931,-1.607976,1.670190,-0.017104,-0.028099,0.015882
2025-12-31T16:05:36.021927,9.652646,-1.588834,1.655833,-0.015882,-0.023212,0.015882
2025-12-31T16:05:36.031927,9.643075,-1.627119,1.694118,-0.013439,-0.018325,0.017104
2025-12-31T16:05:36.040927,9.643075,-1.631905,1.665404,-0.010995,-0.017104,0.023212
2025-12-31T16:05:36.050927,9.595218,-1.579262,1.588834,-0.015882,-0.019547,0.024434
2025-12-31T16:05:36.060927,9.623932,-1.560120,1.636690,-0.020769,-0.028099,0.021991
2025-12-31T16:05:36.069927,9.614361,-1.584048,1.584048,-0.019547,-0.035430,0.023212
2025-12-31T16:05:36.079927,9.686145,-1.660618,1.593619,-0.012217,-0.043982,0.018325
2025-12-31T16:05:36.088927,9.786644,-1.607976,1.646261,-0.002443,-0.050090,0.010995
2025-12-31T16:05:36.098927,9.824929,-1.631905,1.689332,0.004886,-0.043982,0.010995
2025-12-31T16:05:36.108927,9.844072,-1.564905,1.684547,0.004886,-0.029321,0.009773
2025-12-31T16:05:36.117927,9.710074,-1.612762,1.703689,0.001221,-0.017104,0.009773
2025-12-31T16:05:36.127927,9.580861,-1.641476,1.698904,0.000000,-0.014660,0.010995
2025-12-31T16:05:36.137927,9.614361,-1.545763,1.612762,0.006108,-0.020769,0.013439
2025-12-31T16:05:36.146927,9.566504,-1.622333,1.665404,0.013439,-0.032986,0.012217
2025-12-31T16:05:36.156927,9.633503,-1.555334,1.713260,0.012217,-0.037873,0.013439
2025-12-31T16:05:36.165927,9.643075,-1.622333,1.727617,0.004886,-0.034208,0.018325
2025-12-31T16:05:36.175927,9.662217,-1.507478,1.651047,0.003665,-0.024434,0.021991
2025-12-31T16:05:36.185927,9.595218,-1.588834,1.660618,-0.001221,-0.017104,0.023212
2025-12-31T16:05:36.194927,9.571290,-1.612762,1.646261,-0.006108,-0.013439,0.023212
2025-12-31T16:05:36.204927,9.619146,-1.607976,1.646261,-0.004886,-0.019547,0.024434
2025-12-31T16:05:36.213927,9.590432,-1.569691,1.598405,-0.006108,-0.036651,0.018325
2025-12-31T16:05:36.223927,9.748359,-1.665404,1.670190,-0.002443,-0.043982,0.018325
2025-12-31T16:05:36.233927,9.767501,-1.631905,1.607976,0.002443,-0.041538,0.019547
2025-12-31T16:05:36.242927,9.777073,-1.651047,1.689332,0.004886,-0.034208,0.020769
2025-12-31T16:05:36.252927,9.762716,-1.684547,1.598405,0.006108,-0.025656,0.018325
2025-12-31T16:05:36.262927,9.667003,-1.617548,1.741974,0.010995,-0.025656,0.019547
2025-12-31T16:05:36.271927,9.657432,-1.622333,1.617548,0.013439,-0.030543,0.018325
2025-12-31T16:05:36.281927,9.671788,-1.607976,1.651047,0.017104,-0.032986,0.018325
2025-12-31T16:05:36.290927,9.710074,-1.584048,1.679761,0.023212,-0.034208,0.017104
2025-12-31T16:05:36.300927,9.796215,-1.612762,1.646261,0.032986,-0.032986,0.017104
2025-12-31T16:05:36.310927,9.686145,-1.560120,1.684547,0.039095,-0.023212,0.018325
2025-12-31T16:05:36.319927,9.695717,-1.545763,1.660618,0.041538,-0.019547,0.015882
2025-12-31T16:05:36.329927,9.619146,-1.526620,1.651047,0.042760,-0.019547,0.018325
2025-12-31T16:05:36.338927,9.580861,-1.512263,1.646261,0.036651,-0.023212,0.018325
2025-12-31T16:05:36.348927,9.576076,-1.531406,1.607976,0.031764,-0.028099,0.020769
2025-12-31T16:05:36.358927,9.556933,-1.526620,1.622333,0.025656,-0.031764,0.024434
2025-12-31T16:05:36.367927,9.657432,-1.493121,1.670190,0.018325,-0.035430,0.024434
2025-12-31T16:05:36.377927,9.628718,-1.512263,1.617548,0.012217,-0.032986,0.024434
2025-12-31T16:05:36.387927,9.662217,-1.488335,1.660618,0.003665,-0.034208,0.017104
2025-12-31T16:05:36.396927,9.623932,-1.464407,1.612762,-0.006108,-0.035430,0.014660
2025-12-31T16:05:36.406927,9.671788,-1.483550,1.636690,-0.014660,-0.034208,0.019547
2025-12-31T16:05:36.415927,9.681360,-1.569691,1.660618,-0.019547,-0.035430,0.017104
2025-12-31T16:05:36.425927,9.647860,-1.521835,1.631905,-0.018325,-0.037873,0.008552
2025-12-31T16:05:36.435927,9.743573,-1.560120,1.703689,-0.013439,-0.040317,0.007330
2025-12-31T16:05:36.444927,9.714859,-1.607976,1.655833,-0.017104,-0.039095,0.009773
2025-12-31T16:05:36.454927,9.734002,-1.564905,1.684547,-0.019547,-0.037873,0.009773
2025-12-31T16:05:36.463927,9.767501,-1.612762,1.660618,-0.015882,-0.032986,0.010995
2025-12-31T16:05:36.473927,9.719645,-1.636690,1.607976,-0.013439,-0.031764,0.010995
2025-12-31T16:05:36.483927,9.781858,-1.684547,1.684547,-0.008552,-0.030543,0.007330
2025-12-31T16:05:36.492927,9.757930,-1.607976,1.670190,0.000000,-0.031764,0.012217
2025-12-31T16:05:36.502927,9.781858,-1.698904,1.698904,0.009773,-0.030543,0.014660
2025-12-31T16:05:36.512927,9.748359,-1.694118,1.694118,0.017104,-0.026878,0.018325
2025-12-31T16:05:36.521927,9.719645,-1.531406,1.737189,0.017104,-0.017104,0.021991
2025-12-31T16:05:36.531927,9.643075,-1.497906,1.713260,0.008552,-0.010995,0.024434
2025-12-31T16:05:36.540927,9.619146,-1.469193,1.593619,-0.004886,-0.012217,0.029321
2025-12-31T16:05:36.550927,9.609575,-1.497906,1.603191,-0.021991,-0.020769,0.031764
2025-12-31T16:05:36.560927,9.609575,-1.497906,1.550549,-0.025656,-0.036651,0.021991
2025-12-31T16:05:36.569927,9.729216,-1.550549,1.603191,-0.020769,-0.051312,0.013439
2025-12-31T16:05:36.579927,9.820143,-1.598405,1.579262,-0.015882,-0.053756,0.012217
2025-12-31T16:05:36.588927,9.925428,-1.607976,1.655833,-0.012217,-0.046425,0.006108
2025-12-31T16:05:36.598927,9.772287,-1.521835,1.684547,-0.018325,-0.026878,0.006108
2025-12-31T16:05:36.608927,9.748359,-1.579262,1.636690,-0.029321,-0.015882,0.008552
2025-12-31T16:05:36.617927,9.652646,-1.584048,1.598405,-0.031764,-0.015882,0.012217
2025-12-31T16:05:36.627927,9.614361,-1.584048,1.660618,-0.025656,-0.023212,0.014660
2025-12-31T16:05:36.637927,9.647860,-1.550549,1.641476,-0.028099,-0.031764,0.014660
2025-12-31T16:05:36.646927,9.671788,-1.502692,1.660618,-0.029321,-0.035430,0.017104
2025-12-31T16:05:36.656927,9.686145,-1.574477,1.722832,-0.026878,-0.029321,0.018325
2025-12-31T16:05:36.665927,9.614361,-1.569691,1.646261,-0.025656,-0.019547,0.015882
2025-12-31T16:05:36.675927,9.537790,-1.584048,1.646261,-0.028099,-0.012217,0.019547
2025-12-31T16:05:36.685927,9.571290,-1.584048,1.627119,-0.034208,-0.018325,0.015882
2025-12-31T16:05:36.694927,9.590432,-1.555334,1.627119,-0.030543,-0.025656,0.015882
2025-12-31T16:05:36.704927,9.647860,-1.636690,1.641476,-0.019547,-0.034208,0.012217
2025-12-31T16:05:36.713927,9.753144,-1.598405,1.641476,-0.017104,-0.037873,0.009773
2025-12-31T16:05:36.723927,9.796215,-1.540977,1.670190,-0.021991,-0.031764,0.009773
2025-12-31T16:05:36.733927,9.724431,-1.560120,1.564905,-0.030543,-0.021991,0.014660
2025-12-31T16:05:36.742927,9.743573,-1.550549,1.574477,-0.035430,-0.017104,0.014660
2025-12-31T16:05:36.752927,9.705288,-1.569691,1.636690,-0.040317,-0.020769,0.012217
2025-12-31T16:05:36.762927,9.724431,-1.588834,1.660618,-0.039095,-0.029321,0.010995
2025-12-31T16:05:36.771927,9.724431,-1.622333,1.612762,-0.030543,-0.036651,0.007330
2025-12-31T16:05:36.781927,9.786644,-1.636690,1.622333,-0.021991,-0.039095,0.003665
2025-12-31T16:05:36.790927,9.777073,-1.631905,1.636690,-0.014660,-0.032986,0.001221
2025-12-31T16:05:36.800927,9.734002,-1.603191,1.679761,-0.008552,-0.024434,0.004886
2025-12-31T16:05:36.810927,9.628718,-1.555334,1.622333,-0.006108,-0.015882,0.009773
2025-12-31T16:05:36.819927,9.623932,-1.588834,1.612762,-0.009773,-0.014660,0.009773
2025-12-31T16:05:36.829927,9.595218,-1.569691,1.636690,-0.009773,-0.018325,0.012217
2025-12-31T16:05:36.838927,9.614361,-1.560120,1.593619,-0.008552,-0.023212,0.014660
2025-12-31T16:05:36.848927,9.566504,-1.521835,1.579262,-0.012217,-0.026878,0.014660
2025-12-31T16:05:36.858927,9.614361,-1.469193,1.631905,-0.021991,-0.028099,0.017104
2025-12-31T16:05:36.867927,9.657432,-1.426122,1.651047,-0.031764,-0.025656,0.017104
2025-12-31T16:05:36.877927,9.662217,-1.540977,1.536192,-0.040317,-0.023212,0.018325
2025-12-31T16:05:36.887927,9.657432,-1.588834,1.574477,-0.042760,-0.021991,0.017104
2025-12-31T16:05:36.896927,9.609575,-1.574477,1.574477,-0.041538,-0.025656,0.013439
2025-12-31T16:05:36.906927,9.681360,-1.545763,1.574477,-0.036651,-0.034208,0.008552
2025-12-31T16:05:36.915927,9.623932,-1.507478,1.617548,-0.034208,-0.040317,0.007330
2025-12-31T16:05:36.925927,9.724431,-1.564905,1.660618,-0.037873,-0.045204,0.006108
2025-12-31T16:05:36.935927,9.810572,-1.631905,1.655833,-0.039095,-0.042760,0.006108
2025-12-31T16:05:36.944927,9.796215,-1.646261,1.660618,-0.036651,-0.031764,0.012217
2025-12-31T16:05:36.954927,9.719645,-1.631905,1.612762,-0.030543,-0.026878,0.014660
2025-12-31T16:05:36.963927,9.719645,-1.598405,1.660618,-0.025656,-0.024434,0.013439
2025-12-31T16:05:36.973927,9.623932,-1.622333,1.670190,-0.025656,-0.025656,0.012217
2025-12-31T16:05:36.983927,9.686145,-1.598405,1.636690,-0.030543,-0.026878,0.015882
2025-12-31T16:05:36.992927,9.647860,-1.603191,1.646261,-0.026878,-0.024434,0.020769
2025-12-31T16:05:37.002927,9.643075,-1.517049,1.622333,-0.021991,-0.019547,0.019547
2025-12-31T16:05:37.012927,9.628718,-1.445264,1.674975,-0.028099,-0.015882,0.018325
2025-12-31T16:05:37.021927,9.537790,-1.550549,1.627119,-0.045204,-0.015882,0.021991
2025-12-31T16:05:37.031927,9.561719,-1.584048,1.622333,-0.053756,-0.023212,0.021991
2025-12-31T16:05:37.040927,9.647860,-1.536192,1.579262,-0.058643,-0.035430,0.023212
2025-12-31T16:05:37.050927,9.714859,-1.617548,1.607976,-0.046425,-0.047647,0.018325
2025-12-31T16:05:37.060927,9.762716,-1.584048,1.622333,-0.031764,-0.051312,0.013439
2025-12-31T16:05:37.069927,9.829715,-1.560120,1.627119,-0.036651,-0.040317,0.009773
2025-12-31T16:05:37.079927,9.791430,-1.617548,1.598405,-0.041538,-0.025656,0.014660
2025-12-31T16:05:37.088927,9.767501,-1.636690,1.684547,-0.041538,-0.014660,0.017104
2025-12-31T16:05:37.098927,9.686145,-1.631905,1.622333,-0.036651,-0.014660,0.015882
2025-12-31T16:05:37.108927,9.652646,-1.588834,1.655833,-0.029321,-0.023212,0.019547
2025-12-31T16:05:37.117927,9.700502,-1.569691,1.660618,-0.028099,-0.031764,0.019547
2025-12-31T16:05:37.127927,9.714859,-1.521835,1.689332,-0.032986,-0.031764,0.020769
2025-12-31T16:05:37.137927,9.738787,-1.569691,1.679761,-0.042760,-0.028099,0.019547
2025-12-31T16:05:37.146927,9.676574,-1.607976,1.660618,-0.047647,-0.018325,0.021991
2025-12-31T16:05:37.156927,9.628718,-1.574477,1.617548,-0.043982,-0.007330,0.021991
2025-12-31T16:05:37.165927,9.643075,-1.526620,1.622333,-0.043982,-0.009773,0.019547
2025-12-31T16:05:37.175927,9.647860,-1.536192,1.603191,-0.048869,-0.017104,0.017104
2025-12-31T16:05:37.185927,9.556933,-1.598405,1.555334,-0.043982,-0.026878,0.018325
2025-12-31T16:05:37.194927,9.652646,-1.655833,1.584048,-0.040317,-0.034208,0.014660
2025-12-31T16:05:37.204927,9.719645,-1.584048,1.598405,-0.029321,-0.031764,0.015882
2025-12-31T16:05:37.213927,9.734002,-1.617548,1.593619,-0.031764,-0.025656,0.019547
2025-12-31T16:05:37.223927,9.700502,-1.607976,1.612762,-0.039095,-0.023212,0.021991
2025-12-31T16:05:37.233927,9.710074,-1.584048,1.641476,-0.040317,-0.026878,0.020769
2025-12-31T16:05:37.242927,9.710074,-1.646261,1.579262,-0.030543,-0.031764,0.021991
2025-12-31T16:05:37.252927,9.791430,-1.636690,1.622333,-0.023212,-0.037873,0.023212
2025-12-31T16:05:37.262927,9.767501,-1.708475,1.612762,-0.013439,-0.037873,0.024434
2025-12-31T16:05:37.271927,9.796215,-1.708475,1.646261,-0.006108,-0.034208,0.023212
2025-12-31T16:05:37.281927,9.839286,-1.641476,1.651047,-0.003665,-0.025656,0.023212
2025-12-31T16:05:37.290927,9.681360,-1.651047,1.607976,0.000000,-0.017104,0.020769
2025-12-31T16:05:37.300927,9.576076,-1.607976,1.607976,0.008552,-0.013439,0.019547
2025-12-31T16:05:37.310927,9.576076,-1.540977,1.665404,0.006108,-0.018325,0.017104
2025-12-31T16:05:37.319927,9.614361,-1.507478,1.612762,-0.001221,-0.026878,0.017104
2025-12-31T16:05:37.329927,9.638289,-1.517049,1.560120,-0.003665,-0.036651,0.015882
2025-12-31T16:05:37.338927,9.667003,-1.488335,1.617548,-0.004886,-0.036651,0.013439
2025-12-31T16:05:37.348927,9.662217,-1.464407,1.612762,-0.010995,-0.031764,0.015882
2025-12-31T16:05:37.358927,9.676574,-1.502692,1.560120,-0.018325,-0.026878,0.014660
2025-12-31T16:05:37.367927,9.734002,-1.512263,1.550549,-0.029321,-0.023212,0.014660
2025-12-31T16:05:37.377927,9.690931,-1.545763,1.603191,-0.030543,-0.020769,0.017104
2025-12-31T16:05:37.387927,9.623932,-1.550549,1.579262,-0.026878,-0.024434,0.015882
2025-12-31T16:05:37.396927,9.676574,-1.545763,1.555334,-0.025656,-0.030543,0.012217
2025-12-31T16:05:37.406927,9.705288,-1.550549,1.574477,-0.029321,-0.037873,0.012217
2025-12-31T16:05:37.415927,9.724431,-1.545763,1.560120,-0.026878,-0.039095,0.012217
2025-12-31T16:05:37.425927,9.781858,-1.555334,1.584048,-0.026878,-0.035430,0.009773
2025-12-31T16:05:37.435927,9.801001,-1.450050,1.660618,-0.026878,-0.031764,0.009773
2025-12-31T16:05:37.444927,9.748359,-1.488335,1.622333,-0.032986,-0.023212,0.015882
2025-12-31T16:05:37.454927,9.748359,-1.545763,1.540977,-0.041538,-0.021991,0.019547
2025-12-31T16:05:37.463927,9.662217,-1.540977,1.617548,-0.045204,-0.017104,0.020769
2025-12-31T16:05:37.473927,9.676574,-1.627119,1.588834,-0.042760,-0.021991,0.018325
2025-12-31T16:05:37.483927,9.647860,-1.540977,1.584048,-0.040317,-0.021991,0.019547
2025-12-31T16:05:37.492927,9.662217,-1.545763,1.670190,-0.039095,-0.018325,0.021991
2025-12-31T16:05:37.502927,9.652646,-1.512263,1.612762,-0.041538,-0.015882,0.021991
2025-12-31T16:05:37.512927,9.571290,-1.517049,1.617548,-0.048869,-0.015882,0.019547
2025-12-31T16:05:37.521927,9.609575,-1.555334,1.579262,-0.052534,-0.018325,0.020769
2025-12-31T16:05:37.531927,9.647860,-1.526620,1.502692,-0.062308,-0.030543,0.014660
2025-12-31T16:05:37.540927,9.676574,-1.631905,1.493121,-0.064751,-0.042760,0.010995
2025-12-31T16:05:37.550927,9.805787,-1.631905,1.497906,-0.050090,-0.045204,0.007330
2025-12-31T16:05:37.560927,9.815358,-1.617548,1.670190,-0.045204,-0.040317,0.002443
2025-12-31T16:05:37.569927,9.810572,-1.694118,1.579262,-0.050090,-0.028099,0.002443
2025-12-31T16:05:37.579927,9.719645,-1.694118,1.588834,-0.037873,-0.018325,0.002443
2025-12-31T16:05:37.588927,9.628718,-1.689332,1.540977,-0.032986,-0.019547,0.007330
2025-12-31T16:05:37.598927,9.604789,-1.689332,1.536192,-0.032986,-0.025656,0.014660
2025-12-31T16:05:37.608927,9.652646,-1.703689,1.641476,-0.021991,-0.036651,0.015882
2025-12-31T16:05:37.617927,9.647860,-1.708475,1.598405,-0.006108,-0.039095,0.013439
2025-12-31T16:05:37.627927,9.638289,-1.631905,1.655833,0.002443,-0.035430,0.013439
2025-12-31T16:05:37.637927,9.657432,-1.588834,1.679761,-0.002443,-0.030543,0.013439
2025-12-31T16:05:37.646927,9.686145,-1.564905,1.588834,-0.015882,-0.028099,0.018325
2025-12-31T16:05:37.656927,9.681360,-1.622333,1.588834,-0.024434,-0.026878,0.017104
2025-12-31T16:05:37.665927,9.628718,-1.646261,1.564905,-0.020769,-0.032986,0.014660
2025-12-31T16:05:37.675927,9.714859,-1.679761,1.588834,-0.020769,-0.032986,0.015882
2025-12-31T16:05:37.685927,9.681360,-1.670190,1.569691,-0.017104,-0.035430,0.012217
2025-12-31T16:05:37.694927,9.676574,-1.665404,1.550549,-0.010995,-0.034208,0.014660
2025-12-31T16:05:37.704927,9.690931,-1.655833,1.612762,-0.008552,-0.030543,0.018325
2025-12-31T16:05:37.713927,9.657432,-1.607976,1.555334,-0.003665,-0.031764,0.013439
2025-12-31T16:05:37.723927,9.667003,-1.579262,1.603191,-0.001221,-0.035430,0.017104
2025-12-31T16:05:37.733927,9.700502,-1.584048,1.564905,-0.006108,-0.042760,0.014660
2025-12-31T16:05:37.742927,9.786644,-1.627119,1.579262,-0.002443,-0.046425,0.015882
2025-12-31T16:05:37.752927,9.834500,-1.674975,1.555334,0.003665,-0.039095,0.012217
2025-12-31T16:05:37.762927,9.719645,-1.655833,1.584048,0.012217,-0.032986,0.012217
2025-12-31T16:05:37.771927,9.762716,-1.540977,1.564905,0.014660,-0.026878,0.015882
2025-12-31T16:05:37.781927,9.681360,-1.598405,1.588834,0.013439,-0.025656,0.014660
2025-12-31T16:05:37.790927,9.690931,-1.607976,1.569691,0.013439,-0.028099,0.015882
2025-12-31T16:05:37.800927,9.628718,-1.545763,1.627119,0.018325,-0.025656,0.015882
2025-12-31T16:05:37.810927,9.619146,-1.574477,1.560120,0.021991,-0.029321,0.013439
2025-12-31T16:05:37.819927,9.590432,-1.454836,1.584048,0.015882,-0.031764,0.012217
2025-12-31T16:05:37.829927,9.604789,-1.478764,1.584048,0.008552,-0.034208,0.014660
2025-12-31T16:05:37.838927,9.690931,-1.526620,1.526620,0.006108,-0.040317,0.012217
2025-12-31T16:05:37.848927,9.719645,-1.493121,1.584048,0.002443,-0.039095,0.012217
2025-12-31T16:05:37.858927,9.690931,-1.521835,1.512263,-0.007330,-0.035430,0.012217
2025-12-31T16:05:37.867927,9.710074,-1.521835,1.517049,-0.014660,-0.035430,0.010995
2025-12-31T16:05:37.877927,9.652646,-1.612762,1.560120,-0.009773,-0.037873,0.013439
2025-12-31T16:05:37.887927,9.729216,-1.588834,1.502692,-0.007330,-0.040317,0.010995
2025-12-31T16:05:37.896927,9.757930,-1.612762,1.564905,-0.002443,-0.043982,0.007330
2025-12-31T16:05:37.906927,9.753144,-1.574477,1.631905,-0.001221,-0.040317,0.003665
2025-12-31T16:05:37.915927,9.743573,-1.603191,1.612762,0.003665,-0.039095,0.003665
2025-12-31T16:05:37.925927,9.710074,-1.564905,1.560120,0.002443,-0.037873,0.003665
2025-12-31T16:05:37.935927,9.748359,-1.617548,1.603191,0.002443,-0.039095,0.006108
2025-12-31T16:05:37.944927,9.772287,-1.660618,1.555334,0.007330,-0.035430,0.008552
2025-12-31T16:05:37.954927,9.801001,-1.607976,1.607976,0.013439,-0.029321,0.008552
2025-12-31T16:05:37.963927,9.700502,-1.631905,1.622333,0.018325,-0.024434,0.012217
2025-12-31T16:05:37.973927,9.652646,-1.540977,1.598405,0.019547,-0.026878,0.012217
2025-12-31T16:05:37.983927,9.667003,-1.526620,1.579262,0.012217,-0.025656,0.018325
2025-12-31T16:05:37.992927,9.676574,-1.469193,1.545763,-0.002443,-0.028099,0.019547
2025-12-31T16:05:38.002927,9.690931,-1.550549,1.536192,-0.015882,-0.029321,0.020769
2025-12-31T16:05:38.012927,9.690931,-1.507478,1.478764,-0.021991,-0.034208,0.020769
2025-12-31T16:05:38.021927,9.719645,-1.588834,1.517049,-0.019547,-0.037873,0.017104
2025-12-31T16:05:38.031927,9.810572,-1.607976,1.555334,-0.012217,-0.042760,0.008552
2025-12-31T16:05:38.040927,9.777073,-1.641476,1.588834,-0.002443,-0.041538,0.007330
2025-12-31T16:05:38.050927,9.801001,-1.569691,1.603191,0.004886,-0.030543,0.003665
2025-12-31T16:05:38.060927,9.700502,-1.555334,1.521835,0.004886,-0.023212,0.004886
2025-12-31T16:05:38.069927,9.657432,-1.584048,1.574477,0.001221,-0.024434,0.008552
2025-12-31T16:05:38.079927,9.657432,-1.593619,1.588834,0.002443,-0.030543,0.009773
2025-12-31T16:05:38.088927,9.662217,-1.550549,1.574477,0.008552,-0.037873,0.013439
2025-12-31T16:05:38.098927,9.753144,-1.517049,1.593619,0.010995,-0.040317,0.013439
2025-12-31T16:05:38.108927,9.686145,-1.517049,1.564905,0.002443,-0.034208,0.014660
2025-12-31T16:05:38.117927,9.743573,-1.555334,1.560120,-0.007330,-0.025656,0.018325
2025-12-31T16:05:38.127927,9.690931,-1.502692,1.526620,-0.012217,-0.020769,0.015882
2025-12-31T16:05:38.137927,9.633503,-1.584048,1.536192,-0.012217,-0.021991,0.015882
2025-12-31T16:05:38.146927,9.623932,-1.564905,1.469193,-0.008552,-0.028099,0.017104
2025-12-31T16:05:38.156927,9.647860,-1.579262,1.507478,-0.003665,-0.032986,0.017104
2025-12-31T16:05:38.165927,9.743573,-1.631905,1.540977,0.003665,-0.039095,0.010995
2025-12-31T16:05:38.175927,9.762716,-1.521835,1.588834,0.004886,-0.034208,0.009773
2025-12-31T16:05:38.185927,9.757930,-1.579262,1.536192,0.004886,-0.025656,0.015882
2025-12-31T16:05:38.194927,9.633503,-1.497906,1.584048,0.000000,-0.025656,0.020769
2025-12-31T16:05:38.204927,9.662217,-1.560120,1.493121,-0.003665,-0.031764,0.020769
2025-12-31T16:05:38.213927,9.710074,-1.550549,1.512263,-0.002443,-0.041538,0.020769
2025-12-31T16:05:38.223927,9.796215,-1.564905,1.540977,0.000000,-0.047647,0.017104
2025-12-31T16:05:38.233927,9.810572,-1.641476,1.564905,0.003665,-0.043982,0.012217
2025-12-31T16:05:38.242927,9.815358,-1.588834,1.579262,0.013439,-0.025656,0.013439
2025-12-31T16:05:38.252927,9.772287,-1.564905,1.574477,0.019547,-0.013439,0.013439
2025-12-31T16:05:38.262927,9.695717,-1.536192,1.612762,0.021991,-0.014660,0.010995
2025-12-31T16:05:38.271927,9.571290,-1.512263,1.574477,0.020769,-0.019547,0.013439
2025-12-31T16:05:38.281927,9.633503,-1.402194,1.531406,0.017104,-0.029321,0.015882
2025-12-31T16:05:38.290927,9.638289,-1.368694,1.536192,0.009773,-0.034208,0.017104
2025-12-31T16:05:38.300927,9.700502,-1.397408,1.555334,-0.001221,-0.037873,0.010995
2025-12-31T16:05:38.310927,9.743573,-1.450050,1.483550,-0.009773,-0.037873,0.010995
2025-12-31T16:05:38.319927,9.710074,-1.473978,1.507478,-0.014660,-0.029321,0.013439
2025-12-31T16:05:38.329927,9.695717,-1.517049,1.440479,-0.013439,-0.023212,0.012217
2025-12-31T16:05:38.338927,9.662217,-1.521835,1.545763,-0.010995,-0.031764,0.009773
2025-12-31T16:05:38.348927,9.662217,-1.493121,1.469193,-0.007330,-0.036651,0.009773
2025-12-31T16:05:38.358927,9.738787,-1.540977,1.521835,-0.007330,-0.040317,0.009773
2025-12-31T16:05:38.367927,9.743573,-1.507478,1.507478,-0.013439,-0.041538,0.009773
2025-12-31T16:05:38.377927,9.786644,-1.560120,1.502692,-0.015882,-0.041538,0.013439
2025-12-31T16:05:38.387927,9.719645,-1.622333,1.545763,-0.010995,-0.034208,0.014660
2025-12-31T16:05:38.396927,9.724431,-1.603191,1.493121,-0.006108,-0.037873,0.014660
2025-12-31T16:05:38.406927,9.772287,-1.622333,1.507478,-0.004886,-0.036651,0.019547
2025-12-31T16:05:38.415927,9.753144,-1.584048,1.517049,-0.001221,-0.031764,0.023212
2025-12-31T16:05:38.425927,9.700502,-1.665404,1.526620,0.003665,-0.026878,0.024434
2025-12-31T16:05:38.435927,9.681360,-1.617548,1.493121,0.015882,-0.025656,0.024434
2025-12-31T16:05:38.444927,9.643075,-1.545763,1.493121,0.034208,-0.026878,0.018325
2025-12-31T16:05:38.454927,9.652646,-1.421336,1.555334,0.040317,-0.023212,0.018325
2025-12-31T16:05:38.463927,9.576076,-1.359123,1.564905,0.021991,-0.019547,0.020769
2025-12-31T16:05:38.473927,9.619146,-1.421336,1.473978,-0.002443,-0.023212,0.021991
2025-12-31T16:05:38.483927,9.609575,-1.473978,1.483550,-0.013439,-0.029321,0.023212
2025-12-31T16:05:38.492927,9.667003,-1.497906,1.435693,-0.008552,-0.040317,0.020769
2025-12-31T16:05:38.502927,9.729216,-1.536192,1.464407,-0.007330,-0.050090,0.017104
2025-12-31T16:05:38.512927,9.858429,-1.493121,1.550549,-0.004886,-0.054977,0.009773
2025-12-31T16:05:38.521927,9.839286,-1.478764,1.579262,-0.001221,-0.046425,0.006108
2025-12-31T16:05:38.531927,9.829715,-1.502692,1.564905,-0.006108,-0.029321,0.008552
2025-12-31T16:05:38.540927,9.748359,-1.473978,1.560120,-0.008552,-0.014660,0.013439
2025-12-31T16:05:38.550927,9.719645,-1.521835,1.526620,-0.006108,-0.020769,0.014660
2025-12-31T16:05:38.560927,9.681360,-1.464407,1.531406,-0.007330,-0.025656,0.015882
2025-12-31T16:05:38.569927,9.667003,-1.402194,1.512263,-0.010995,-0.035430,0.015882
2025-12-31T16:05:38.579927,9.671788,-1.497906,1.507478,-0.024434,-0.040317,0.020769
2025-12-31T16:05:38.588927,9.729216,-1.521835,1.641476,-0.035430,-0.035430,0.023212
2025-12-31T16:05:38.598927,9.738787,-1.512263,1.545763,-0.041538,-0.020769,0.021991
2025-12-31T16:05:38.608927,9.667003,-1.612762,1.545763,-0.042760,-0.014660,0.023212
2025-12-31T16:05:38.617927,9.595218,-1.631905,1.440479,-0.040317,-0.019547,0.020769
2025-12-31T16:05:38.627927,9.623932,-1.569691,1.464407,-0.024434,-0.025656,0.018325
2025-12-31T16:05:38.637927,9.686145,-1.607976,1.459621,-0.012217,-0.037873,0.018325
2025-12-31T16:05:38.646927,9.724431,-1.526620,1.426122,-0.001221,-0.041538,0.012217
2025-12-31T16:05:38.656927,9.738787,-1.569691,1.450050,0.002443,-0.034208,0.012217
2025-12-31T16:05:38.665927,9.753144,-1.564905,1.512263,0.000000,-0.030543,0.015882
2025-12-31T16:05:38.675927,9.719645,-1.584048,1.512263,-0.003665,-0.026878,0.023212
2025-12-31T16:05:38.685927,9.724431,-1.588834,1.502692,-0.004886,-0.031764,0.023212
2025-12-31T16:05:38.694927,9.753144,-1.607976,1.521835,0.001221,-0.040317,0.021991
2025-12-31T16:05:38.704927,9.805787,-1.584048,1.545763,0.009773,-0.040317,0.020769
2025-12-31T16:05:38.713927,9.844072,-1.517049,1.564905,0.015882,-0.034208,0.017104
2025-12-31T16:05:38.723927,9.805787,-1.507478,1.584048,0.008552,-0.023212,0.018325
2025-12-31T16:05:38.733927,9.719645,-1.521835,1.550549,-0.002443,-0.015882,0.021991
2025-12-31T16:05:38.742927,9.652646,-1.617548,1.536192,0.000000,-0.014660,0.020769
2025-12-31T16:05:38.752927,9.633503,-1.555334,1.517049,0.012217,-0.019547,0.021991
2025-12-31T16:05:38.762927,9.671788,-1.512263,1.526620,0.024434,-0.026878,0.018325
2025-12-31T16:05:38.771927,9.657432,-1.440479,1.517049,0.024434,-0.031764,0.019547
2025-12-31T16:05:38.781927,9.695717,-1.454836,1.507478,0.012217,-0.035430,0.020769
2025-12-31T16:05:38.790927,9.705288,-1.445264,1.473978,-0.003665,-0.029321,0.024434
2025-12-31T16:05:38.800927,9.662217,-1.483550,1.464407,-0.013439,-0.028099,0.024434
2025-12-31T16:05:38.810927,9.662217,-1.569691,1.445264,-0.012217,-0.030543,0.019547
2025-12-31T16:05:38.819927,9.671788,-1.593619,1.411765,-0.002443,-0.032986,0.018325
2025-12-31T16:05:38.829927,9.748359,-1.569691,1.459621,0.012217,-0.032986,0.015882
2025-12-31T16:05:38.838927,9.676574,-1.612762,1.497906,0.015882,-0.037873,0.012217
2025-12-31T16:05:38.848927,9.686145,-1.617548,1.445264,0.018325,-0.042760,0.007330
2025-12-31T16:05:38.858927,9.753144,-1.555334,1.507478,0.021991,-0.042760,0.009773
2025-12-31T16:05:38.867927,9.686145,-1.588834,1.464407,0.025656,-0.042760,0.007330
2025-12-31T16:05:38.877927,9.719645,-1.555334,1.497906,0.029321,-0.040317,0.006108
2025-12-31T16:05:38.887927,9.681360,-1.497906,1.483550,0.030543,-0.037873,0.010995
2025-12-31T16:05:38.896927,9.695717,-1.454836,1.378265,0.024434,-0.041538,0.013439
2025-12-31T16:05:38.906927,9.729216,-1.536192,1.430907,0.018325,-0.043982,0.012217
2025-12-31T16:05:38.915927,9.700502,-1.521835,1.421336,0.018325,-0.045204,0.014660
2025-12-31T16:05:38.925927,9.734002,-1.521835,1.426122,0.023212,-0.047647,0.013439
2025-12-31T16:05:38.935927,9.676574,-1.488335,1.512263,0.025656,-0.043982,0.010995
2025-12-31T16:05:38.944927,9.643075,-1.406979,1.507478,0.029321,-0.035430,0.009773
2025-12-31T16:05:38.954927,9.576076,-1.363908,1.392622,0.024434,-0.032986,0.006108
2025-12-31T16:05:38.963927,9.633503,-1.330409,1.354337,0.009773,-0.040317,0.006108
2025-12-31T16:05:38.973927,9.633503,-1.378265,1.311266,-0.001221,-0.056199,0.003665
2025-12-31T16:05:38.983927,9.619146,-1.387837,1.253839,0.003665,-0.073303,-0.009773
2025-12-31T16:05:38.992927,9.710074,-1.416550,1.253839,0.012217,-0.087964,-0.009773
2025-12-31T16:05:39.002927,9.777073,-1.426122,1.359123,0.010995,-0.090408,-0.014660
2025-12-31T16:05:39.012927,9.834500,-1.397408,1.277767,0.012217,-0.079412,-0.020769
2025-12-31T16:05:39.021927,9.767501,-1.316052,1.258624,0.012217,-0.068416,-0.028099
2025-12-31T16:05:39.031927,9.686145,-1.359123,1.239482,0.006108,-0.072082,-0.032986
2025-12-31T16:05:39.040927,9.556933,-1.263410,1.186840,0.017104,-0.076969,-0.039095
2025-12-31T16:05:39.050927,9.537790,-1.344766,1.263410,0.026878,-0.090408,-0.046425
2025-12-31T16:05:39.060927,9.523433,-1.330409,1.172483,0.035430,-0.100181,-0.053756
2025-12-31T16:05:39.069927,9.480363,-1.311266,1.182054,0.046425,-0.102625,-0.063529
2025-12-31T16:05:39.079927,9.379864,-1.249053,1.153340,0.053756,-0.103847,-0.070860
2025-12-31T16:05:39.088927,9.332008,-1.177268,1.086341,0.057421,-0.117286,-0.083077
2025-12-31T16:05:39.098927,9.322436,-1.110269,0.971485,0.063529,-0.140498,-0.095294
2025-12-31T16:05:39.108927,9.346365,-1.162911,0.971485,0.046425,-0.180816,-0.095294
2025-12-31T16:05:39.117927,9.446863,-1.234696,0.928415,0.048869,-0.212581,-0.108733
2025-12-31T16:05:39.127927,9.566504,-1.158126,0.842273,0.056199,-0.246789,-0.124616
2025-12-31T16:05:39.137927,9.714859,-1.052841,0.904486,0.054977,-0.268780,-0.135612
2025-12-31T16:05:39.146927,9.801001,-1.086341,0.981057,0.041538,-0.276111,-0.144164
2025-12-31T16:05:39.156927,9.834500,-1.105484,0.933200,0.032986,-0.273667,-0.157603
2025-12-31T16:05:39.165927,9.805787,-1.100698,0.981057,0.020769,-0.274889,-0.168598
2025-12-31T16:05:39.175927,9.801001,-1.138983,0.976271,0.018325,-0.278554,-0.177150
2025-12-31T16:05:39.185927,9.719645,-1.134197,1.033699,0.039095,-0.289550,-0.190589
2025-12-31T16:05:39.194927,9.767501,-1.143769,1.033699,0.054977,-0.301767,-0.204028
2025-12-31T16:05:39.204927,9.724431,-1.071984,0.985842,0.064751,-0.310319,-0.217467
2025-12-31T16:05:39.213927,9.600004,-1.014556,0.937986,0.073303,-0.312762,-0.223576
2025-12-31T16:05:39.223927,9.609575,-0.971485,0.933200,0.086742,-0.315206,-0.232128
2025-12-31T16:05:39.233927,9.499505,-0.971485,0.933200,0.102625,-0.324980,-0.240680
2025-12-31T16:05:39.242927,9.422935,-0.875773,0.909272,0.120951,-0.345749,-0.255341
2025-12-31T16:05:39.252927,9.446863,-0.875773,0.827916,0.119729,-0.371405,-0.260228
2025-12-31T16:05:39.262927,9.504291,-0.837487,0.727418,0.130725,-0.410501,-0.274889
2025-12-31T16:05:39.271927,9.638289,-0.832702,0.708275,0.133168,-0.443488,-0.284663
2025-12-31T16:05:39.281927,9.700502,-0.885344,0.732203,0.120951,-0.465479,-0.289550
2025-12-31T16:05:39.290927,9.844072,-0.995414,0.727418,0.116064,-0.476474,-0.288328
2025-12-31T16:05:39.300927,9.949356,-1.038485,0.746560,0.135612,-0.471587,-0.289550
2025-12-31T16:05:39.310927,9.887142,-1.062413,0.703489,0.174707,-0.450818,-0.298102
2025-12-31T16:05:39.319927,9.801001,-0.904486,0.607776,0.211359,-0.436157,-0.323758
2025-12-31T16:05:39.329927,9.676574,-0.732203,0.641276,0.213802,-0.432492,-0.345749
2025-12-31T16:05:39.338927,9.566504,-0.693918,0.521635,0.201585,-0.434935,-0.345749
2025-12-31T16:05:39.348927,9.442077,-0.693918,0.521635,0.189368,-0.463035,-0.346971
2025-12-31T16:05:39.358927,9.360722,-0.789631,0.507278,0.188146,-0.502131,-0.351858
2025-12-31T16:05:39.367927,9.351150,-0.799202,0.430708,0.206472,-0.537561,-0.362853
2025-12-31T16:05:39.377927,9.332008,-0.727418,0.315852,0.227241,-0.571769,-0.379958
2025-12-31T16:05:39.387927,9.399007,-0.655633,0.349352,0.224798,-0.593760,-0.387288
2025-12-31T16:05:39.396927,9.308079,-0.693918,0.334995,0.229685,-0.619417,-0.400727
2025-12-31T16:05:39.406927,9.332008,-0.631705,0.287138,0.241902,-0.648738,-0.416610
2025-12-31T16:05:39.415927,9.303294,-0.502492,0.339780,0.257785,-0.669508,-0.437379
2025-12-31T16:05:39.425927,9.308079,-0.454636,0.401994,0.254119,-0.662177,-0.453261
2025-12-31T16:05:39.435927,9.169296,-0.354137,0.435493,0.241902,-0.659734,-0.474031
2025-12-31T16:05:39.444927,9.025726,-0.210568,0.483350,0.212581,-0.649960,-0.477696
2025-12-31T16:05:39.454927,8.824729,-0.253639,0.483350,0.168598,-0.647517,-0.475253
2025-12-31T16:05:39.463927,8.705088,-0.291924,0.535992,0.131946,-0.671951,-0.482583
2025-12-31T16:05:39.473927,8.618947,-0.191425,0.449850,0.106290,-0.704938,-0.502131
2025-12-31T16:05:39.483927,8.499305,-0.138783,0.502492,0.070860,-0.712268,-0.504574
2025-12-31T16:05:39.492927,8.437092,-0.200997,0.598205,0.009773,-0.714712,-0.488692
2025-12-31T16:05:39.502927,8.465806,-0.334995,0.626919,-0.039095,-0.725707,-0.489913
2025-12-31T16:05:39.512927,8.384450,-0.339780,0.617348,-0.051312,-0.724486,-0.491135
2025-12-31T16:05:39.521927,8.312665,-0.330209,0.512064,-0.068416,-0.700051,-0.483805
2025-12-31T16:05:39.531927,8.216952,-0.334995,0.507278,-0.096516,-0.668286,-0.476474
2025-12-31T16:05:39.540927,8.059026,-0.311066,0.425922,-0.105068,-0.641408,-0.471587
2025-12-31T16:05:39.550927,7.838886,-0.263210,0.392422,-0.113620,-0.614530,-0.461814
2025-12-31T16:05:39.560927,7.719245,-0.411565,0.430708,-0.123394,-0.586430,-0.443488
2025-12-31T16:05:39.569927,7.460820,-0.440279,0.392422,-0.105068,-0.574213,-0.432492
2025-12-31T16:05:39.579927,7.393821,-0.478564,0.368494,-0.090408,-0.590095,-0.433714
2025-12-31T16:05:39.588927,7.451249,-0.502492,0.378065,-0.090408,-0.619417,-0.421496
2025-12-31T16:05:39.598927,7.666603,-0.684347,0.339780,-0.075747,-0.634077,-0.405614
2025-12-31T16:05:39.608927,7.838886,-0.736989,0.339780,-0.031764,-0.612086,-0.392175
2025-12-31T16:05:39.617927,7.838886,-0.641276,0.306281,0.001221,-0.555887,-0.373849
2025-12-31T16:05:39.627927,7.819744,-0.626919,0.296710,0.021991,-0.481361,-0.346971
2025-12-31T16:05:39.637927,7.642675,-0.416351,0.253639,0.032986,-0.412944,-0.321315
2025-12-31T16:05:39.646927,7.322037,-0.229710,0.124426,0.021991,-0.355523,-0.280997
2025-12-31T16:05:39.656927,7.111468,-0.062213,0.028713,-0.020769,-0.318871,-0.250454
2025-12-31T16:05:39.665927,7.020541,-0.148355,-0.014356,-0.083077,-0.307876,-0.208915
2025-12-31T16:05:39.675927,6.915257,-0.430708,0.033499,-0.125838,-0.279776,-0.145385
2025-12-31T16:05:39.685927,6.733402,-0.497707,-0.105284,-0.120951,-0.263893,-0.097738
2025-12-31T16:05:39.694927,6.699903,-0.488135,0.105284,-0.141720,-0.278554,-0.074525
2025-12-31T16:05:39.704927,6.915257,-0.918843,0.320638,-0.162490,-0.305432,-0.052534
2025-12-31T16:05:39.713927,7.135396,-1.100698,0.301495,-0.063529,-0.291993,-0.029321
2025-12-31T16:05:39.723927,7.317251,-1.000199,0.244067,0.054977,-0.251676,-0.010995
2025-12-31T16:05:39.733927,7.408178,-0.966700,0.344566,0.112399,-0.188146,0.001221
2025-12-31T16:05:39.742927,7.508677,-0.918843,0.373280,0.182037,-0.123394,0.013439
2025-12-31T16:05:39.752927,7.585247,-0.780060,0.378065,0.254119,-0.058643,0.041538
2025-12-31T16:05:39.762927,7.594818,-0.564706,0.358923,0.266337,0.000000,0.067195
2025-12-31T16:05:39.771927,7.647461,-0.559920,0.368494,0.244346,0.051312,0.086742
2025-12-31T16:05:39.781927,7.700103,-0.550349,0.378065,0.227241,0.107512,0.113620
2025-12-31T16:05:39.790927,7.714460,-0.478564,0.296710,0.196698,0.172263,0.147829
2025-12-31T16:05:39.800927,7.709674,-0.602991,0.234496,0.140498,0.229685,0.195476
2025-12-31T16:05:39.810927,7.757530,-0.579063,0.157926,0.086742,0.276111,0.251676
2025-12-31T16:05:39.819927,7.791030,-0.593420,0.119641,0.037873,0.302989,0.304210
2025-12-31T16:05:39.829927,7.920242,-0.526420,-0.066999,-0.017104,0.317649,0.359188
2025-12-31T16:05:39.838927,8.140382,-0.579063,-0.023928,-0.078190,0.332310,0.406836
2025-12-31T16:05:39.848927,8.312665,-0.516849,-0.143569,-0.136833,0.354301,0.452040
2025-12-31T16:05:39.858927,8.575876,-0.492921,-0.157926,-0.193033,0.375071,0.496022
2025-12-31T16:05:39.867927,8.781658,-0.579063,-0.062213,-0.237015,0.390953,0.531452
2025-12-31T16:05:39.877927,9.107082,-0.507278,-0.057427,-0.266337,0.404392,0.569326
2025-12-31T16:05:39.887927,9.322436,-0.267996,-0.215354,-0.316428,0.426383,0.614530
2025-12-31T16:05:39.896927,9.576076,-0.167497,-0.215354,-0.406836,0.445931,0.658512
2025-12-31T16:05:39.906927,9.695717,-0.186640,-0.210568,-0.511904,0.467922,0.709825
2025-12-31T16:05:39.915927,9.954142,-0.248853,-0.157926,-0.614530,0.485026,0.750142
2025-12-31T16:05:39.925927,10.030712,-0.425922,-0.167497,-0.701273,0.522900,0.786794
2025-12-31T16:05:39.935927,10.040283,-0.588634,-0.153140,-0.755029,0.579100,0.822224
2025-12-31T16:05:39.944927,9.786644,-0.679561,-0.349352,-0.778242,0.660956,0.852767
2025-12-31T16:05:39.954927,9.494720,-0.952343,-0.392422,-0.772133,0.707381,0.885754
2025-12-31T16:05:39.963927,9.250652,-1.292124,-0.177068,-0.711046,0.706160,0.893084
2025-12-31T16:05:39.973927,9.241080,-1.502692,-0.162711,-0.580321,0.648738,0.883310
2025-12-31T16:05:39.983927,9.370293,-1.560120,-0.081355,-0.425162,0.564439,0.886976
2025-12-31T16:05:39.992927,9.729216,-1.440479,0.047856,-0.274889,0.476474,0.904080
2025-12-31T16:05:40.002927,10.174281,-1.234696,0.401994,-0.152716,0.415388,0.924849
2025-12-31T16:05:40.012927,10.700702,-0.995414,0.636490,-0.103847,0.381179,0.945619
2025-12-31T16:05:40.021927,11.251051,-0.823130,0.995414,-0.118507,0.386066,0.961501
2025-12-31T16:05:40.031927,11.743973,-0.756131,1.091127,-0.155159,0.430049,0.960279
2025-12-31T16:05:40.040927,12.122039,-0.708275,0.526420,-0.248011,0.540004,1.009149
2025-12-31T16:05:40.050927,11.863614,-0.952343,0.488135,-0.356745,0.763581,1.073900
2025-12-31T16:05:40.060927,11.121839,-1.062413,-0.023928,-0.411723,0.875980,1.093448
2025-12-31T16:05:40.069927,10.604989,-1.426122,0.550349,-0.459370,0.856432,1.045801
2025-12-31T16:05:40.079927,10.624132,-1.880758,0.770488,-0.481361,0.744033,0.990823
2025-12-31T16:05:40.088927,10.700702,-2.129612,0.301495,-0.421496,0.634077,0.992044
2025-12-31T16:05:40.098927,11.011769,-2.330609,0.435493,-0.366519,0.549778,1.059240
2025-12-31T16:05:40.108927,11.346764,-2.536391,0.736989,-0.312762,0.491135,1.059240
2025-12-31T16:05:40.117927,11.830114,-2.478964,0.899701,-0.208915,0.464257,1.000597
2025-12-31T16:05:40.127927,12.189038,-2.129612,0.995414,-0.109955,0.480139,0.967610
2025-12-31T16:05:40.137927,12.476177,-1.698904,0.928415,-0.075747,0.548556,0.963945
2025-12-31T16:05:40.146927,12.581461,-1.249053,0.909272,-0.141720,0.649960,0.974940
2025-12-31T16:05:40.156927,12.485748,-0.966700,0.904486,-0.320093,0.761137,1.023809
2025-12-31T16:05:40.165927,12.289536,-1.009771,0.856630,-0.572991,0.851545,1.097113
2025-12-31T16:05:40.175927,11.863614,-1.473978,0.799202,-0.852767,0.917519,1.150869
2025-12-31T16:05:40.185927,11.605189,-2.206182,0.531206,-1.045801,0.910189,1.172861
2025-12-31T16:05:40.194927,11.490334,-2.957528,0.693918,-1.078787,0.816115,1.198517
2025-12-31T16:05:40.204927,11.638689,-3.527020,0.933200,-1.023809,0.735481,1.214399
2025-12-31T16:05:40.213927,11.921042,-3.847658,1.215553,-0.933401,0.689055,1.235169
2025-12-31T16:05:40.223927,12.107682,-3.929014,1.493121,-0.785572,0.649960,1.255938
2025-12-31T16:05:40.233927,12.457034,-3.641875,1.828116,-0.695164,0.631634,1.292590
2025-12-31T16:05:40.242927,12.696316,-3.393022,2.105683,-0.756251,0.627969,1.361007
2025-12-31T16:05:40.252927,12.882956,-3.349951,2.344966,-0.917519,0.643851,1.470963
2025-12-31T16:05:40.262927,13.026526,-3.407379,2.210968,-1.139874,0.682947,1.607796
2025-12-31T16:05:40.271927,12.930813,-3.517449,1.890329,-1.418428,0.741590,1.753182
2025-12-31T16:05:40.281927,12.686745,-3.952942,1.426122,-1.690874,0.796568,1.860695
2025-12-31T16:05:40.290927,12.370892,-4.618147,0.995414,-1.882686,0.828333,1.924225
2025-12-31T16:05:40.300927,11.906685,-5.192425,0.669990,-1.946216,0.822224,1.947437
2025-12-31T16:05:40.310927,11.614760,-5.728417,0.272781,-1.874134,0.763581,1.925446
2025-12-31T16:05:40.319927,11.499905,-6.049055,0.378065,-1.725083,0.674395,1.861916
2025-12-31T16:05:40.329927,11.475977,-6.259623,0.282353,-1.583362,0.555887,1.800830
2025-12-31T16:05:40.338927,11.772687,-6.451049,0.028713,-1.429424,0.406836,1.725083
2025-12-31T16:05:40.348927,12.256037,-6.699903,-0.186640,-1.265712,0.254119,1.637118
2025-12-31T16:05:40.358927,12.906885,-6.853043,-0.464207,-1.084896,0.100181,1.514945
2025-12-31T16:05:40.367927,13.643874,-7.044469,-0.727418,-0.874758,-0.002443,1.353677
2025-12-31T16:05:40.377927,14.299507,-7.101897,-0.933200,-0.594982,-0.032986,1.172861
2025-12-31T16:05:40.387927,14.849857,-7.020541,-1.148554,-0.289550,0.018325,0.989601
2025-12-31T16:05:40.396927,15.050854,-6.723831,-1.316052,0.017104,0.123394,0.807563
2025-12-31T16:05:40.406927,14.940784,-6.264409,-1.277767,0.339641,0.237015,0.643851
2025-12-31T16:05:40.415927,14.663216,-5.603990,-1.009771,0.594982,0.302989,0.489913
2025-12-31T16:05:40.425927,14.266008,-4.795216,-0.909272,0.740368,0.276111,0.348193
2025-12-31T16:05:40.435927,14.055439,-4.067798,-0.818345,0.769690,0.172263,0.222354
2025-12-31T16:05:40.444927,13.950155,-3.527020,-0.512064,0.668286,0.031764,0.091629
2025-12-31T16:05:40.454927,14.007583,-3.196810,-0.406779,0.467922,-0.138055,-0.029321
2025-12-31T16:05:40.463927,14.242080,-3.153740,-0.330209,0.219911,-0.299323,-0.146607
2025-12-31T16:05:40.473927,14.538790,-3.206382,-0.215354,-0.029321,-0.400727,-0.262671
2025-12-31T16:05:40.483927,14.744572,-3.632304,-0.052642,-0.273667,-0.452040,-0.375071
2025-12-31T16:05:40.492927,14.792429,-4.134797,-0.019142,-0.467922,-0.456927,-0.498465
2025-12-31T16:05:40.502927,14.735001,-4.814359,-0.100498,-0.577878,-0.427605,-0.621860
2025-12-31T16:05:40.512927,14.409577,-5.513063,-0.320638,-0.564439,-0.360410,-0.729372
2025-12-31T16:05:40.521927,13.883156,-6.082555,-0.445065,-0.343306,-0.261450,-0.864984
2025-12-31T16:05:40.531927,13.131810,-6.211767,-0.325423,0.091629,-0.173485,-1.045801
2025-12-31T16:05:40.540927,12.490533,-5.790630,0.272781,0.596204,-0.128281,-1.242499
2025-12-31T16:05:40.550927,11.973684,-4.953142,0.803988,0.970053,-0.149051,-1.369559
2025-12-31T16:05:40.560927,11.552547,-4.220939,0.923629,1.134987,-0.246789,-1.444085
2025-12-31T16:05:40.569927,11.475977,-3.986442,1.014556,1.148426,-0.399505,-1.510058
2025-12-31T16:05:40.579927,11.810972,-4.000799,0.961914,1.120326,-0.553443,-1.579697
2025-12-31T16:05:40.588927,12.193823,-4.163511,0.914058,1.120326,-0.634077,-1.635896
2025-12-31T16:05:40.598927,12.524033,-4.163511,0.823130,1.137430,-0.618195,-1.655444
2025-12-31T16:05:40.608927,12.614960,-3.929014,0.837487,1.137430,-0.541226,-1.651779
2025-12-31T16:05:40.617927,12.437891,-3.694518,0.622133,1.093448,-0.459370,-1.631009
2025-12-31T16:05:40.627927,12.189038,-3.426521,0.459421,1.020144,-0.421496,-1.607796
2025-12-31T16:05:40.637927,11.925827,-3.206382,0.387637,0.971275,-0.425162,-1.601688
2025-12-31T16:05:40.646927,11.839686,-3.034099,0.488135,0.930958,-0.455705,-1.611462
2025-12-31T16:05:40.656927,11.772687,-2.837887,0.545563,0.864984,-0.483805,-1.591914
2025-12-31T16:05:40.665927,11.796615,-2.766102,0.521635,0.784350,-0.504574,-1.545488
2025-12-31T16:05:40.675927,11.787044,-2.660818,0.445065,0.697607,-0.519235,-1.492954
2025-12-31T16:05:40.685927,11.772687,-2.746960,0.325423,0.619417,-0.521678,-1.439198
2025-12-31T16:05:40.694927,11.715259,-2.742174,0.277567,0.568104,-0.505796,-1.395215
2025-12-31T16:05:40.704927,11.590832,-2.833101,0.038285,0.532674,-0.491135,-1.356120
2025-12-31T16:05:40.713927,11.456834,-2.833101,-0.095712,0.515570,-0.494800,-1.310916
2025-12-31T16:05:40.723927,11.447263,-2.770888,-0.090927,0.500909,-0.516791,-1.258382
2025-12-31T16:05:40.733927,11.461620,-2.593819,-0.105284,0.476474,-0.558330,-1.216843
2025-12-31T16:05:40.742927,11.428120,-2.368894,-0.124426,0.441044,-0.609643,-1.183856
2025-12-31T16:05:40.752927,11.566904,-2.282752,-0.234496,0.397062,-0.645073,-1.148426
2025-12-31T16:05:40.762927,11.624332,-2.301895,-0.234496,0.368962,-0.673173,-1.123991
2025-12-31T16:05:40.771927,11.767901,-2.373680,-0.157926,0.375071,-0.682947,-1.103222
2025-12-31T16:05:40.781927,11.834900,-2.349751,-0.119641,0.400727,-0.680503,-1.078787
2025-12-31T16:05:40.790927,11.916256,-2.359323,-0.009571,0.441044,-0.659734,-1.044579
2025-12-31T16:05:40.800927,11.877971,-2.263610,0.066999,0.514348,-0.607199,-1.014036
2025-12-31T16:05:40.810927,11.681759,-1.804188,0.167497,0.581543,-0.525343,-0.978605
2025-12-31T16:05:40.819927,11.418549,-1.320838,0.344566,0.601091,-0.438601,-0.952949
2025-12-31T16:05:40.829927,10.987841,-0.760917,0.411565,0.542448,-0.365297,-0.906523
2025-12-31T16:05:40.838927,10.590632,-0.564706,0.507278,0.392175,-0.343306,-0.858876
2025-12-31T16:05:40.848927,10.169496,-0.583848,0.473778,0.226020,-0.361632,-0.810007
2025-12-31T16:05:40.858927,9.868000,-0.588634,0.459421,0.087964,-0.417831,-0.769690
2025-12-31T16:05:40.867927,9.643075,-0.803988,0.454636,-0.041538,-0.481361,-0.739146
2025-12-31T16:05:40.877927,9.533005,-1.048056,0.344566,-0.147829,-0.542448,-0.713490
2025-12-31T16:05:40.887927,9.533005,-1.330409,0.344566,-0.205250,-0.596204,-0.696386
2025-12-31T16:05:40.896927,9.580861,-1.450050,0.354137,-0.228463,-0.637743,-0.678060
2025-12-31T16:05:40.906927,9.667003,-1.502692,0.248853,-0.233350,-0.658512,-0.674395
2025-12-31T16:05:40.915927,9.681360,-1.483550,0.258424,-0.229685,-0.643851,-0.670729
2025-12-31T16:05:40.925927,9.609575,-1.349551,0.287138,-0.252898,-0.607199,-0.660956
2025-12-31T16:05:40.935927,9.499505,-1.440479,0.311066,-0.294436,-0.565661,-0.651182
2025-12-31T16:05:40.944927,9.293722,-1.540977,0.358923,-0.310319,-0.519235,-0.646295
2025-12-31T16:05:40.954927,9.083154,-1.497906,0.397208,-0.285884,-0.464257,-0.648738
2025-12-31T16:05:40.963927,8.638089,-1.392622,0.363709,-0.246789,-0.392175,-0.658512
2025-12-31T16:05:40.973927,8.207381,-1.105484,0.459421,-0.221133,-0.312762,-0.670729
2025-12-31T16:05:40.983927,7.690531,-0.894915,0.574277,-0.238237,-0.250454,-0.674395
2025-12-31T16:05:40.992927,7.207181,-0.784845,0.665204,-0.283441,-0.217467,-0.670729
2025-12-31T16:05:41.002927,6.809973,-0.837487,0.559920,-0.362853,-0.207694,-0.648738
2025-12-31T16:05:41.012927,6.417550,-1.028913,0.679561,-0.412944,-0.190589,-0.613308
2025-12-31T16:05:41.021927,6.068198,-1.325623,0.861416,-0.406836,-0.189368,-0.588873
2025-12-31T16:05:41.031927,5.795416,-1.674975,0.880558,-0.359188,-0.213802,-0.576656
2025-12-31T16:05:41.040927,5.627918,-1.799402,0.851844,-0.274889,-0.272445,-0.575434
2025-12-31T16:05:41.050927,5.580062,-1.526620,0.856630,-0.108733,-0.304210,-0.588873
2025-12-31T16:05:41.060927,5.790630,-1.134197,1.191625,-0.021991,-0.353080,-0.587652
2025-12-31T16:05:41.069927,6.044269,-0.914058,0.933200,-0.041538,-0.342084,-0.548556
2025-12-31T16:05:41.079927,6.163911,-0.435493,1.205982,-0.025656,-0.274889,-0.537561
2025-12-31T16:05:41.088927,6.321837,-0.038285,2.110469,-0.160046,-0.191811,-0.491135
2025-12-31T16:05:41.098927,6.407978,-0.464207,2.469392,-0.433714,-0.089186,-0.368962
2025-12-31T16:05:41.108927,6.374479,-0.904486,2.167897,-0.631634,0.025656,-0.235793
2025-12-31T16:05:41.117927,6.144768,-0.622133,2.388036,-0.755029,0.168598,-0.167377
2025-12-31T16:05:41.127927,5.900700,-0.602991,2.632104,-0.990823,0.263893,-0.098960
2025-12-31T16:05:41.137927,5.728417,-0.971485,2.756531,-1.226617,0.313984,-0.007330
2025-12-31T16:05:41.146927,5.484349,-1.167697,2.364108,-1.276708,0.340862,0.031764
2025-12-31T16:05:41.156927,5.273781,-0.942772,1.832902,-1.230282,0.348193,0.039095
2025-12-31T16:05:41.165927,5.316851,-0.832702,1.861615,-1.227838,0.328645,0.069638
2025-12-31T16:05:41.175927,5.484349,-0.689132,1.909472,-1.198517,0.309097,0.105068
2025-12-31T16:05:41.185927,5.570491,-0.033499,1.584048,-1.174082,0.326201,0.131946
2025-12-31T16:05:41.194927,5.498706,0.401994,1.387837,-1.296255,0.393397,0.185702
2025-12-31T16:05:41.204927,5.288137,-0.033499,1.406979,-1.524719,0.441044,0.276111
2025-12-31T16:05:41.213927,5.335994,-1.062413,1.789831,-1.662774,0.414166,0.328645
2025-12-31T16:05:41.223927,5.699703,-1.923829,1.378265,-1.557706,0.340862,0.342084
2025-12-31T16:05:41.233927,6.307480,-2.029113,1.081555,-1.247386,0.266337,0.326201
2025-12-31T16:05:41.242927,6.996613,-1.574477,1.086341,-0.950506,0.191811,0.287106
2025-12-31T16:05:41.252927,7.724031,-0.914058,0.861416,-0.778242,0.140498,0.270002
2025-12-31T16:05:41.262927,8.336593,-0.205782,0.401994,-0.728151,0.123394,0.289550
2025-12-31T16:05:41.271927,8.877371,0.277567,0.282353,-0.811228,0.127059,0.316428
2025-12-31T16:05:41.281927,9.274580,0.363709,0.052642,-0.981049,0.147829,0.342084
2025-12-31T16:05:41.290927,9.561719,0.090927,-0.186640,-1.133765,0.169820,0.361632
2025-12-31T16:05:41.300927,9.777073,-0.282353,-0.406779,-1.214399,0.184481,0.377514
2025-12-31T16:05:41.310927,9.925428,-0.612562,-0.531206,-1.209512,0.191811,0.372627
2025-12-31T16:05:41.319927,10.150353,-0.803988,-0.492921,-1.143539,0.204028,0.359188
2025-12-31T16:05:41.329927,10.198209,-0.947557,-0.459421,-1.056796,0.226020,0.346971
2025-12-31T16:05:41.338927,10.246066,-0.914058,-0.397208,-0.959058,0.257785,0.340862
2025-12-31T16:05:41.348927,10.140782,-0.784845,-0.210568,-0.863763,0.287106,0.309097
2025-12-31T16:05:41.358927,9.791430,-0.717846,-0.205782,-0.802676,0.357966,0.291993
2025-12-31T16:05:41.367927,9.217152,-0.751346,-0.019142,-0.763581,0.437379,0.294436
2025-12-31T16:05:41.377927,8.652446,-0.957129,0.177068,-0.726929,0.458148,0.294436
2025-12-31T16:05:41.387927,8.116454,-1.244267,0.368494,-0.632856,0.431270,0.283441
2025-12-31T16:05:41.396927,7.891528,-1.196411,0.363709,-0.469144,0.367740,0.266337
2025-12-31T16:05:41.406927,7.843672,-0.880558,0.464207,-0.333532,0.257785,0.260228
2025-12-31T16:05:41.415927,8.240881,-0.650847,0.483350,-0.280997,0.095294,0.260228
2025-12-31T16:05:41.425927,9.126225,-0.492921,0.406779,-0.285884,-0.051312,0.265115
2025-12-31T16:05:41.435927,9.891928,-0.368494,0.315852,-0.328645,-0.133168,0.280997
2025-12-31T16:05:41.444927,10.523633,-0.430708,0.110069,-0.390953,-0.147829,0.285884
2025-12-31T16:05:41.454927,10.954341,-0.526420,-0.047856,-0.422718,-0.105068,0.268780
2025-12-31T16:05:41.463927,11.102696,-0.612562,-0.124426,-0.411723,-0.015882,0.227241
2025-12-31T16:05:41.473927,11.045269,-0.473778,-0.086141,-0.392175,0.101403,0.184481
2025-12-31T16:05:41.483927,10.561918,-0.425922,-0.023928,-0.395840,0.243124,0.150272
2025-12-31T16:05:41.492927,9.734002,-0.449850,0.066999,-0.416610,0.371405,0.130725
2025-12-31T16:05:41.502927,8.738588,-0.669990,0.124426,-0.442266,0.412944,0.120951
2025-12-31T16:05:41.512927,8.006384,-0.952343,0.177068,-0.430049,0.311541,0.103847
2025-12-31T16:05:41.521927,7.848458,-1.430907,0.186640,-0.355523,0.101403,0.079412
2025-12-31T16:05:41.531927,8.303094,-1.727617,0.277567,-0.215024,-0.139277,0.048869
2025-12-31T16:05:41.540927,9.169296,-1.789831,0.301495,-0.030543,-0.312762,-0.001221
2025-12-31T16:05:41.550927,9.973284,-1.703689,0.459421,0.127059,-0.372627,-0.041538
2025-12-31T16:05:41.560927,10.547562,-1.603191,0.569491,0.245567,-0.331088,-0.075747
2025-12-31T16:05:41.569927,10.868200,-1.440479,0.679561,0.350636,-0.237015,-0.113620
2025-12-31T16:05:41.579927,10.815558,-1.249053,0.693918,0.430049,-0.134390,-0.141720
2025-12-31T16:05:41.588927,10.600204,-1.057627,0.818345,0.465479,-0.048869,-0.141720
2025-12-31T16:05:41.598927,10.322636,-0.875773,0.823130,0.475253,0.006108,-0.119729
2025-12-31T16:05:41.608927,10.045069,-0.746560,0.760917,0.480139,0.024434,-0.096516
2025-12-31T16:05:41.617927,9.781858,-0.449850,0.823130,0.469144,0.018325,-0.067195
2025-12-31T16:05:41.627927,9.791430,-0.373280,0.789631,0.425162,-0.004886,-0.028099
2025-12-31T16:05:41.637927,9.820143,-0.320638,0.794417,0.365297,-0.026878,0.014660
2025-12-31T16:05:41.646927,9.891928,-0.215354,0.741775,0.302989,-0.042760,0.065973
2025-12-31T16:05:41.656927,9.973284,-0.133998,0.636490,0.229685,-0.045204,0.118507
2025-12-31T16:05:41.665927,10.049854,-0.172283,0.665204,0.153938,-0.035430,0.167377
2025-12-31T16:05:41.675927,10.135996,-0.090927,0.559920,0.097738,-0.026878,0.202807
2025-12-31T16:05:41.685927,10.174281,0.090927,0.507278,0.047647,-0.017104,0.230907
2025-12-31T16:05:41.694927,10.207781,0.215354,0.492921,-0.009773,-0.009773,0.245567
2025-12-31T16:05:41.704927,10.198209,0.148355,0.516849,-0.073303,-0.013439,0.261450
2025-12-31T16:05:41.713927,10.212566,-0.043070,0.459421,-0.128281,-0.020769,0.265115
2025-12-31T16:05:41.723927,10.193424,-0.200997,0.397208,-0.140498,-0.032986,0.248011
2025-12-31T16:05:41.733927,10.202995,-0.349352,0.502492,-0.108733,-0.046425,0.212581
2025-12-31T16:05:41.742927,10.202995,-0.411565,0.526420,-0.062308,-0.061086,0.171042
2025-12-31T16:05:41.752927,10.183852,-0.521635,0.569491,-0.014660,-0.065973,0.125838
2025-12-31T16:05:41.762927,10.088140,-0.617348,0.531206,0.034208,-0.064751,0.075747
2025-12-31T16:05:41.771927,9.958927,-0.684347,0.497707,0.086742,-0.054977,0.031764
2025-12-31T16:05:41.781927,9.734002,-0.803988,0.550349,0.153938,-0.048869,-0.006108
2025-12-31T16:05:41.790927,9.523433,-0.832702,0.569491,0.240680,-0.064751,-0.040317
2025-12-31T16:05:41.800927,9.489934,-0.746560,0.583848,0.335975,-0.117286,-0.072082
2025-12-31T16:05:41.810927,9.585647,-0.502492,0.526420,0.417831,-0.167377,-0.090408
2025-12-31T16:05:41.819927,9.724431,-0.291924,0.512064,0.453261,-0.182037,-0.108733
2025-12-31T16:05:41.829927,9.772287,-0.172283,0.502492,0.450818,-0.161268,-0.113620
2025-12-31T16:05:41.838927,9.662217,-0.191425,0.416351,0.432492,-0.135612,-0.114842
2025-12-31T16:05:41.848927,9.552147,-0.172283,0.564706,0.414166,-0.122173,-0.127059
2025-12-31T16:05:41.858927,9.418149,-0.153140,0.521635,0.415388,-0.116064,-0.141720
2025-12-31T16:05:41.867927,9.245866,-0.172283,0.516849,0.403170,-0.125838,-0.164933
2025-12-31T16:05:41.877927,9.221938,-0.277567,0.464207,0.383623,-0.149051,-0.193033
2025-12-31T16:05:41.887927,9.145367,-0.378065,0.445065,0.372627,-0.177150,-0.219911
2025-12-31T16:05:41.896927,9.154939,-0.631705,0.330209,0.381179,-0.199142,-0.261450
2025-12-31T16:05:41.906927,9.159724,-0.851844,0.291924,0.415388,-0.205250,-0.305432
2025-12-31T16:05:41.915927,9.164510,-0.995414,0.354137,0.472809,-0.213802,-0.344527
2025-12-31T16:05:41.925927,9.140582,-1.004985,0.421136,0.563217,-0.243124,-0.387288
2025-12-31T16:05:41.935927,9.231509,-0.861416,0.354137,0.653625,-0.274889,-0.417831
2025-12-31T16:05:41.944927,9.322436,-0.512064,0.253639,0.702494,-0.276111,-0.428827
2025-12-31T16:05:41.954927,9.284151,-0.416351,0.191425,0.702494,-0.232128,-0.427605
2025-12-31T16:05:41.963927,8.882157,-0.258424,0.110069,0.684168,-0.182037,-0.417831
2025-12-31T16:05:41.973927,8.432306,-0.138783,0.043070,0.670729,-0.145385,-0.415388
2025-12-31T16:05:41.983927,8.035098,-0.143569,0.200997,0.654847,-0.127059,-0.417831
2025-12-31T16:05:41.992927,7.618747,-0.334995,0.325423,0.646295,-0.112399,-0.408057
2025-12-31T16:05:42.002927,7.092326,-0.411565,0.330209,0.690277,-0.103847,-0.414166
2025-12-31T16:05:42.012927,6.551548,-0.430708,0.421136,0.759916,-0.096516,-0.433714
2025-12-31T16:05:42.021927,6.125625,-0.277567,0.593420,0.821002,-0.087964,-0.461814
2025-12-31T16:05:42.031927,5.613561,-0.023928,0.784845,0.860098,-0.069638,-0.480139
2025-12-31T16:05:42.040927,5.072783,0.148355,0.933200,0.864984,-0.048869,-0.480139
2025-12-31T16:05:42.050927,4.508077,0.224925,1.148554,0.830776,-0.041538,-0.464257
2025-12-31T16:05:42.060927,4.029513,0.224925,1.225125,0.775798,-0.057421,-0.431270
2025-12-31T16:05:42.069927,3.694518,0.081355,1.095912,0.729372,-0.103847,-0.408057
2025-12-31T16:05:42.079927,3.383451,-0.052642,0.985842,0.693942,-0.160046,-0.386066
2025-12-31T16:05:42.088927,3.282952,-0.210568,0.971485,0.642630,-0.219911,-0.360410
2025-12-31T16:05:42.098927,3.330809,-0.583848,1.024128,0.604756,-0.280997,-0.333532
2025-12-31T16:05:42.108927,3.579662,-0.894915,0.937986,0.613308,-0.342084,-0.305432
2025-12-31T16:05:42.117927,3.924229,-1.215553,0.918843,0.673173,-0.388510,-0.282219
2025-12-31T16:05:42.127927,4.378865,-1.253839,0.866201,0.750142,-0.412944,-0.263893
2025-12-31T16:05:42.137927,4.890929,-0.985842,1.186840,0.785572,-0.406836,-0.232128
2025-12-31T16:05:42.146927,5.407779,-0.626919,1.483550,0.777020,-0.371405,-0.228463
2025-12-31T16:05:42.156927,5.761916,-0.966700,1.392622,0.585208,-0.266337,-0.125838
2025-12-31T16:05:42.165927,5.536991,-1.761117,0.545563,0.461814,-0.125838,-0.003665
2025-12-31T16:05:42.175927,5.450849,-1.962114,0.760917,0.552222,-0.096516,-0.030543
2025-12-31T16:05:42.185927,5.833701,-1.885544,1.095912,0.619417,-0.144164,-0.039095
2025-12-31T16:05:42.194927,6.321837,-1.957328,0.794417,0.664621,-0.173485,0.031764
2025-12-31T16:05:42.204927,6.881757,-2.057827,0.669990,0.722042,-0.178372,0.105068
2025-12-31T16:05:42.213927,7.537391,-1.990828,0.646062,0.786794,-0.157603,0.172263
2025-12-31T16:05:42.223927,8.106882,-1.636690,0.765703,0.830776,-0.109955,0.246789
2025-12-31T16:05:42.233927,8.657232,-1.086341,0.827916,0.789237,-0.039095,0.337197
2025-12-31T16:05:42.242927,9.126225,-0.803988,0.885344,0.656069,0.031764,0.431270
2025-12-31T16:05:42.252927,9.504291,-0.445065,0.703489,0.458148,0.105068,0.536339
2025-12-31T16:05:42.262927,9.834500,-0.291924,0.540777,0.241902,0.182037,0.651182
2025-12-31T16:05:42.271927,10.126425,-0.248853,0.363709,0.029321,0.267558,0.755029
2025-12-31T16:05:42.281927,10.313065,-0.296710,0.248853,-0.173485,0.360410,0.866206
2025-12-31T16:05:42.290927,10.198209,-0.334995,0.301495,-0.364075,0.466700,0.966388
2025-12-31T16:05:42.300927,10.021141,-0.641276,0.574277,-0.542448,0.590095,1.066570
2025-12-31T16:05:42.310927,9.513862,-1.129412,0.722632,-0.645073,0.722042,1.156978
2025-12-31T16:05:42.319927,8.800801,-1.344766,0.784845,-0.649960,0.828333,1.231504
2025-12-31T16:05:42.329927,8.126025,-1.579262,0.799202,-0.624304,0.849102,1.291368
2025-12-31T16:05:42.338927,7.709674,-1.741974,0.847059,-0.565661,0.761137,1.337794
2025-12-31T16:05:42.348927,7.800601,-1.871187,1.091127,-0.456927,0.604756,1.373224
2025-12-31T16:05:42.358927,8.365307,-1.919043,1.100698,-0.338419,0.430049,1.393994
2025-12-31T16:05:42.367927,9.040083,-1.775474,1.134197,-0.262671,0.302989,1.423315
2025-12-31T16:05:42.377927,9.786644,-1.737189,1.162911,-0.240680,0.256563,1.459967
2025-12-31T16:05:42.387927,10.384850,-1.914258,1.268195,-0.240680,0.263893,1.473406
2025-12-31T16:05:42.396927,10.767701,-2.096112,1.153340,-0.244346,0.301767,1.467297
2025-12-31T16:05:42.406927,10.978270,-2.440679,1.048056,-0.234572,0.349414,1.452637
2025-12-31T16:05:42.415927,11.145767,-2.737389,0.899701,-0.189368,0.382401,1.423315
2025-12-31T16:05:42.425927,11.294122,-2.938386,0.756131,-0.116064,0.379958,1.375668
2025-12-31T16:05:42.435927,11.504691,-3.182454,0.727418,-0.021991,0.349414,1.317025
2025-12-31T16:05:42.444927,11.739187,-3.287738,0.813559,0.107512,0.317649,1.247386
2025-12-31T16:05:42.454927,12.055040,-3.163311,0.722632,0.251676,0.299323,1.186300
2025-12-31T16:05:42.463927,12.303893,-2.924029,0.732203,0.366519,0.313984,1.150869
2025-12-31T16:05:42.473927,12.452248,-2.507678,0.641276,0.397062,0.360410,1.141096
2025-12-31T16:05:42.483927,12.524033,-2.325823,0.512064,0.327423,0.416610,1.165530
2025-12-31T16:05:42.492927,12.634103,-2.321037,0.545563,0.202807,0.461814,1.208291
2025-12-31T16:05:42.502927,12.576675,-2.574677,0.392422,0.070860,0.491135,1.264490
2025-12-31T16:05:42.512927,12.552747,-2.919243,0.277567,-0.045204,0.497244,1.345124
2025-12-31T16:05:42.521927,12.658031,-3.282952,0.306281,-0.127059,0.474031,1.431867
2025-12-31T16:05:42.531927,12.897313,-3.665804,0.325423,-0.166155,0.420275,1.502728
2025-12-31T16:05:42.540927,13.131810,-3.814159,-0.014356,-0.155159,0.353080,1.568701
2025-12-31T16:05:42.550927,13.481162,-3.713660,-0.124426,-0.111177,0.313984,1.637118
2025-12-31T16:05:42.560927,13.797015,-3.460021,-0.124426,-0.084299,0.321315,1.698205
2025-12-31T16:05:42.569927,14.012369,-3.072384,0.191425,-0.125838,0.353080,1.753182
2025-12-31T16:05:42.579927,14.203794,-2.861815,0.535992,-0.287106,0.384845,1.835038
2025-12-31T16:05:42.588927,14.395220,-3.158525,0.904486,-0.488692,0.408057,1.916894
2025-12-31T16:05:42.598927,14.495719,-3.579662,1.110269,-0.674395,0.421496,2.007302
2025-12-31T16:05:42.608927,14.601003,-3.876372,0.966700,-0.824667,0.423940,2.102597
2025-12-31T16:05:42.617927,14.668002,-4.077369,0.650847,-0.945619,0.416610,2.208888
2025-12-31T16:05:42.627927,14.768501,-4.168296,0.167497,-1.044579,0.357966,2.273639
2025-12-31T16:05:42.637927,14.926427,-4.378865,-0.071784,-1.154535,0.262671,2.279748
2025-12-31T16:05:42.646927,15.247065,-4.871786,-0.181854,-1.279151,0.147829,2.267531
2025-12-31T16:05:42.656927,15.634702,-5.513063,-0.043070,-1.343903,0.053756,2.241874
2025-12-31T16:05:42.665927,16.022341,-6.245266,0.038285,-1.323133,0.017104,2.191784
2025-12-31T16:05:42.675927,16.204193,-6.872186,-0.114855,-1.197295,0.028099,2.092823
2025-12-31T16:05:42.685927,16.237694,-7.231109,-0.224925,-0.954171,0.023212,1.957211
2025-12-31T16:05:42.694927,16.400406,-7.192824,-0.306281,-0.701273,-0.025656,1.784947
2025-12-31T16:05:42.704927,16.610973,-7.221538,-0.641276,-0.447153,-0.114842,1.585805
2025-12-31T16:05:42.713927,17.012968,-7.130611,-0.736989,-0.144164,-0.217467,1.345124
2025-12-31T16:05:42.723927,17.261822,-6.766902,-0.904486,0.183259,-0.265115,1.103222
2025-12-31T16:05:42.733927,17.309677,-6.130411,-1.134197,0.463035,-0.249232,0.857654
2025-12-31T16:05:42.742927,17.266607,-5.407779,-1.387837,0.652403,-0.239459,0.613308
2025-12-31T16:05:42.752927,17.084753,-4.517649,-1.540977,0.718377,-0.279776,0.356745
2025-12-31T16:05:42.762927,16.969896,-4.024727,-0.990628,0.631634,-0.318871,0.127059
2025-12-31T16:05:42.771927,16.673187,-3.665804,-0.387637,0.438601,-0.327423,-0.087964
2025-12-31T16:05:42.781927,16.285549,-3.637090,-0.095712,0.196698,-0.316428,-0.287106
2025-12-31T16:05:42.790927,15.730415,-3.795016,0.205782,-0.064751,-0.312762,-0.452040
2025-12-31T16:05:42.800927,15.266208,-4.201796,0.454636,-0.327423,-0.332310,-0.596204
2025-12-31T16:05:42.810927,14.778072,-4.934000,0.411565,-0.519235,-0.350636,-0.745255
2025-12-31T16:05:42.819927,14.419148,-5.493920,0.148355,-0.515570,-0.361632,-0.899193
2025-12-31T16:05:42.829927,14.132010,-5.627918,-0.157926,-0.375071,-0.412944,-1.062905
2025-12-31T16:05:42.838927,14.069796,-5.603990,-0.129212,-0.190589,-0.411723,-1.265712
2025-12-31T16:05:42.848927,13.782658,-5.685346,0.124426,0.053756,-0.237015,-1.455080
2025-12-31T16:05:42.858927,13.107882,-5.714060,0.277567,0.344527,-0.021991,-1.591914
2025-12-31T16:05:42.867927,12.356535,-5.364708,0.215354,0.620638,0.054977,-1.720196
2025-12-31T16:05:42.877927,11.858828,-4.981856,0.220139,0.799011,0.024434,-1.839925
2025-12-31T16:05:42.887927,11.538190,-4.651647,0.052642,0.901636,-0.043982,-1.926668
2025-12-31T16:05:42.896927,11.361121,-4.225724,-0.071784,0.951727,-0.101403,-1.988976
2025-12-31T16:05:42.906927,11.102696,-3.881158,-0.081355,0.917519,-0.139277,-2.024406
2025-12-31T16:05:42.915927,11.059626,-3.799802,0.043070,0.811228,-0.177150,-2.032959
2025-12-31T16:05:42.925927,10.906485,-3.976871,0.224925,0.678060,-0.221133,-2.012189
2025-12-31T16:05:42.935927,10.863414,-4.292723,0.373280,0.574213,-0.278554,-1.971872
2025-12-31T16:05:42.944927,10.834700,-4.632504,0.325423,0.560774,-0.362853,-1.931555
2025-12-31T16:05:42.954927,10.983055,-4.709074,0.320638,0.696386,-0.447153,-1.942551
2025-12-31T16:05:42.963927,11.155338,-4.551148,0.421136,0.907745,-0.510683,-1.984089
2025-12-31T16:05:42.973927,11.423335,-4.187439,0.521635,1.098335,-0.554665,-1.997528
2025-12-31T16:05:42.983927,11.566904,-3.818944,0.593420,1.252273,-0.566882,-1.966985
2025-12-31T16:05:42.992927,11.729616,-3.215953,0.622133,1.334129,-0.552222,-1.897347
2025-12-31T16:05:43.002927,11.672188,-2.766102,0.693918,1.304807,-0.526565,-1.804495
2025-12-31T16:05:43.012927,11.629117,-2.593819,0.617348,1.213178,-0.524122,-1.716530
2025-12-31T16:05:43.021927,11.499905,-2.684746,0.311066,1.119104,-0.547335,-1.629788
2025-12-31T16:05:43.031927,11.504691,-2.756531,0.177068,1.075122,-0.571769,-1.552819
2025-12-31T16:05:43.040927,11.452048,-2.632104,0.191425,1.086118,-0.593760,-1.484402
2025-12-31T16:05:43.050927,11.404192,-2.416750,0.205782,1.065348,-0.592539,-1.404989
2025-12-31T16:05:43.060927,11.298908,-2.239681,0.234496,1.027475,-0.594982,-1.336572
2025-12-31T16:05:43.069927,11.370692,-1.871187,0.253639,0.994488,-0.635299,-1.266934
2025-12-31T16:05:43.079927,11.485548,-1.526620,0.334995,0.928514,-0.680503,-1.186300
2025-12-31T16:05:43.088927,11.653046,-1.076770,0.263210,0.792902,-0.698829,-1.104444
2025-12-31T16:05:43.098927,11.787044,-0.899701,0.258424,0.624304,-0.654847,-1.022588
2025-12-31T16:05:43.108927,11.648260,-0.823130,0.253639,0.455705,-0.582765,-0.937067
2025-12-31T16:05:43.117927,11.466405,-0.851844,0.220139,0.289550,-0.494800,-0.850324
2025-12-31T16:05:43.127927,11.140982,-0.966700,0.157926,0.140498,-0.411723,-0.759916
2025-12-31T16:05:43.137927,10.849057,-1.033699,0.172283,-0.004886,-0.361632,-0.678060
2025-12-31T16:05:43.146927,10.518848,-1.105484,0.148355,-0.150272,-0.361632,-0.601091
2025-12-31T16:05:43.156927,10.384850,-1.229910,0.153140,-0.290771,-0.411723,-0.546113
2025-12-31T16:05:43.165927,10.451849,-1.349551,0.076570,-0.409279,-0.467922,-0.499687
2025-12-31T16:05:43.175927,10.447063,-1.292124,0.023928,-0.509461,-0.489913,-0.464257
2025-12-31T16:05:43.185927,10.537990,-1.249053,0.133998,-0.604756,-0.459370,-0.447153
2025-12-31T16:05:43.194927,10.389635,-1.038485,0.105284,-0.717155,-0.383623,-0.439822
2025-12-31T16:05:43.204927,10.150353,-0.923629,0.205782,-0.838106,-0.283441,-0.434935
2025-12-31T16:05:43.213927,9.705288,-0.904486,0.234496,-0.976162,-0.172263,-0.432492
2025-12-31T16:05:43.223927,9.092725,-1.019342,0.311066,-1.105665,-0.084299,-0.439822
2025-12-31T16:05:43.233927,8.504091,-1.158126,0.253639,-1.188743,-0.029321,-0.472809
2025-12-31T16:05:43.242927,7.829315,-1.186840,0.114855,-1.214399,0.002443,-0.524122
2025-12-31T16:05:43.252927,7.255038,-1.167697,0.086141,-1.208291,0.020769,-0.593760
2025-12-31T16:05:43.262927,6.738188,-1.153340,0.153140,-1.183856,0.029321,-0.673173
2025-12-31T16:05:43.271927,6.283552,-1.210768,0.272781,-1.153313,0.031764,-0.758694
2025-12-31T16:05:43.281927,5.838487,-1.373480,0.358923,-1.105665,0.021991,-0.838106
2025-12-31T16:05:43.290927,5.407779,-1.598405,0.550349,-1.023809,0.006108,-0.897971
2025-12-31T16:05:43.300927,5.058426,-1.832902,0.689132,-0.912632,-0.002443,-0.946840
2025-12-31T16:05:43.310927,4.689932,-1.770688,0.717846,-0.810007,-0.003665,-0.973718
2025-12-31T16:05:43.319927,4.187439,-1.679761,0.808774,-0.641408,0.041538,-1.021366
2025-12-31T16:05:43.329927,3.656232,-1.660618,1.186840,-0.526565,0.051312,-1.045801
2025-12-31T16:05:43.338927,3.517449,-2.048256,1.674975,-0.472809,-0.019547,-1.050687
2025-12-31T16:05:43.348927,3.460021,-1.933400,1.555334,-0.301767,-0.067195,-1.040914
2025-12-31T16:05:43.358927,3.335594,-1.272981,1.785045,-0.139277,-0.096516,-0.981049
2025-12-31T16:05:43.367927,3.282952,-0.215354,2.210968,-0.227241,-0.080634,-0.858876
2025-12-31T16:05:43.377927,3.416950,-0.215354,2.880958,-0.527787,-0.052534,-0.736703
2025-12-31T16:05:43.387927,3.617947,-1.220339,3.148954,-0.821002,-0.025656,-0.623082
2025-12-31T16:05:43.396927,3.694518,-2.277967,2.335394,-0.736703,0.018325,-0.577878
2025-12-31T16:05:43.406927,3.393022,-1.569691,1.780260,-0.450818,0.067195,-0.555887
2025-12-31T16:05:43.415927,3.388236,-0.411565,2.364108,-0.388510,0.073303,-0.529009
2025-12-31T16:05:43.425927,3.699303,0.004785,2.488535,-0.571769,0.031764,-0.459370
2025-12-31T16:05:43.435927,4.125226,0.148355,2.096112,-0.773355,0.020769,-0.307876
2025-12-31T16:05:43.444927,4.517649,0.162711,1.679761,-0.983492,0.048869,-0.150272
2025-12-31T16:05:43.454927,4.852644,-0.205782,1.349551,-1.247386,0.095294,-0.024434
2025-12-31T16:05:43.463927,5.178068,-0.827916,0.995414,-1.418428,0.158824,0.076969
2025-12-31T16:05:43.473927,5.364708,-1.134197,0.765703,-1.439198,0.207694,0.168598
2025-12-31T16:05:43.483927,5.584847,-1.081555,0.425922,-1.404989,0.213802,0.240680
2025-12-31T16:05:43.492927,5.891129,-0.894915,0.258424,-1.351233,0.162490,0.290771
2025-12-31T16:05:43.502927,6.513263,-0.636490,0.229710,-1.310916,0.068416,0.351858
2025-12-31T16:05:43.512927,7.178467,-0.138783,-0.043070,-1.304807,-0.057421,0.419053
2025-12-31T16:05:43.521927,7.944171,0.354137,-0.468993,-1.372003,-0.175929,0.485026
2025-12-31T16:05:43.531927,8.853443,0.540777,-0.593420,-1.521054,-0.254119,0.549778
2025-12-31T16:05:43.540927,9.686145,0.454636,-0.626919,-1.701870,-0.287106,0.608421
2025-12-31T16:05:43.550927,10.403992,0.066999,-0.732203,-1.843590,-0.290771,0.652403
2025-12-31T16:05:43.560927,11.054840,-0.196211,-0.942772,-1.923003,-0.304210,0.657290
2025-12-31T16:05:43.569927,11.686545,-0.717846,-1.373480,-1.974316,-0.364075,0.645073
2025-12-31T16:05:43.579927,12.375678,-1.201196,-1.430907,-1.995085,-0.456927,0.601091
2025-12-31T16:05:43.588927,13.265808,-1.756331,-1.469193,-1.943772,-0.555887,0.530230
2025-12-31T16:05:43.598927,14.227723,-2.177468,-1.536192,-1.806938,-0.608421,0.398284
2025-12-31T16:05:43.608927,15.017354,-2.335394,-1.301695,-1.632231,-0.493579,0.216246
2025-12-31T16:05:43.617927,15.103496,-2.455035,-0.985842,-1.455080,-0.146607,0.053756
2025-12-31T16:05:43.627927,14.127224,-2.522035,-0.569491,-1.249830,0.365297,-0.037873
2025-12-31T16:05:43.637927,12.193823,-2.502892,-0.057427,-1.016479,0.858876,-0.092851
2025-12-31T16:05:43.646927,9.815358,-2.378465,0.349352,-0.828333,1.159421,-0.146607
2025-12-31T16:05:43.656927,7.704888,-2.699103,0.803988,-0.673173,1.181413,-0.206472
2025-12-31T16:05:43.665927,6.096911,-3.014956,1.158126,-0.433714,0.999375,-0.249232
2025-12-31T16:05:43.675927,5.048855,-3.316452,1.478764,-0.085521,0.693942,-0.261450
2025-12-31T16:05:43.685927,4.603790,-3.354737,1.497906,0.331088,0.346971,-0.211359
2025-12-31T16:05:43.694927,4.771288,-3.096312,1.493121,0.781907,0.000000,-0.125838
2025-12-31T16:05:43.704927,5.781059,-2.349751,1.445264,1.189965,-0.335975,-0.061086
2025-12-31T16:05:43.713927,7.178467,-1.536192,1.416550,1.389107,-0.582765,-0.025656
2025-12-31T16:05:43.723927,8.657232,-0.914058,1.282552,1.418428,-0.687834,0.037873
2025-12-31T16:05:43.733927,9.868000,-0.368494,0.914058,1.375668,-0.647517,0.119729
2025-12-31T16:05:43.742927,10.710273,0.191425,0.531206,1.244943,-0.503352,0.217467
2025-12-31T16:05:43.752927,11.274980,0.602991,0.162711,1.021366,-0.338419,0.305432
2025-12-31T16:05:43.762927,11.595618,0.818345,-0.052642,0.762359,-0.202807,0.382401
2025-12-31T16:05:43.771927,11.739187,0.961914,-0.392422,0.487470,-0.113620,0.439822
2025-12-31T16:05:43.781927,11.882757,1.124626,-0.626919,0.200363,-0.050090,0.480139
2025-12-31T16:05:43.790927,11.897113,1.004985,-0.689132,-0.062308,0.024434,0.497244
2025-12-31T16:05:43.800927,11.863614,0.923629,-0.727418,-0.305432,0.123394,0.510683
2025-12-31T16:05:43.810927,11.456834,0.579063,-0.579063,-0.522900,0.248011,0.521678
2025-12-31T16:05:43.819927,10.820343,0.076570,-0.349352,-0.687834,0.365297,0.535117
2025-12-31T16:05:43.829927,10.006784,-0.378065,-0.296710,-0.757472,0.431270,0.557108
2025-12-31T16:05:43.838927,9.355936,-0.689132,0.019142,-0.733038,0.426383,0.559552
2025-12-31T16:05:43.848927,8.829515,-0.818345,0.358923,-0.656069,0.354301,0.530230
2025-12-31T16:05:43.858927,8.585447,-0.985842,0.535992,-0.554665,0.232128,0.492357
2025-12-31T16:05:43.867927,8.508877,-1.076770,0.775274,-0.433714,0.096516,0.456927
2025-12-31T16:05:43.877927,8.834301,-1.253839,0.861416,-0.294436,-0.036651,0.423940
2025-12-31T16:05:43.887927,9.236295,-1.421336,0.904486,-0.129503,-0.138055,0.378736
2025-12-31T16:05:43.896927,9.748359,-1.435693,0.875773,0.054977,-0.189368,0.321315
2025-12-31T16:05:43.906927,10.155139,-1.316052,0.918843,0.217467,-0.173485,0.272445
2025-12-31T16:05:43.915927,10.384850,-1.081555,0.780060,0.334754,-0.107512,0.239459
2025-12-31T16:05:43.925927,10.356136,-0.780060,0.535992,0.410501,-0.026878,0.207694
2025-12-31T16:05:43.935927,10.054640,-0.713061,0.454636,0.463035,0.032986,0.172263
2025-12-31T16:05:43.944927,9.710074,-0.516849,0.344566,0.508239,0.048869,0.135612
2025-12-31T16:05:43.954927,9.485148,-0.459421,0.239282,0.541226,0.015882,0.097738
2025-12-31T16:05:43.963927,9.375078,-0.430708,0.411565,0.564439,-0.040317,0.069638
2025-12-31T16:05:43.973927,9.437292,-0.483350,0.397208,0.570548,-0.100181,0.047647
2025-12-31T16:05:43.983927,9.690931,-0.545563,0.445065,0.581543,-0.144164,0.029321
2025-12-31T16:05:43.992927,9.920642,-0.679561,0.488135,0.613308,-0.162490,0.012217
2025-12-31T16:05:44.002927,10.088140,-0.641276,0.598205,0.653625,-0.162490,-0.002443
2025-12-31T16:05:44.012927,10.293922,-0.545563,0.516849,0.685390,-0.140498,-0.008552
2025-12-31T16:05:44.021927,10.327422,-0.421136,0.468993,0.692721,-0.098960,-0.013439
2025-12-31T16:05:44.031927,10.289137,-0.196211,0.468993,0.671951,-0.045204,-0.008552
2025-12-31T16:05:44.040927,10.107282,-0.157926,0.468993,0.614530,0.004886,0.001221
2025-12-31T16:05:44.050927,9.781858,-0.148355,0.459421,0.544891,0.040317,0.010995
2025-12-31T16:05:44.060927,9.480363,-0.301495,0.464207,0.480139,0.048869,0.014660
2025-12-31T16:05:44.069927,9.274580,-0.497707,0.512064,0.421496,0.032986,0.021991
2025-12-31T16:05:44.079927,9.221938,-0.684347,0.559920,0.397062,-0.010995,0.018325
2025-12-31T16:05:44.088927,9.303294,-0.765703,0.535992,0.403170,-0.074525,0.013439
2025-12-31T16:05:44.098927,9.580861,-0.693918,0.579063,0.408057,-0.124616,0.004886
2025-12-31T16:05:44.108927,9.848857,-0.703489,0.468993,0.395840,-0.138055,-0.001221
2025-12-31T16:05:44.117927,9.939785,-0.665204,0.440279,0.366519,-0.108733,-0.006108
2025-12-31T16:05:44.127927,9.906285,-0.693918,0.363709,0.326201,-0.056199,-0.004886
2025-12-31T16:05:44.137927,9.676574,-0.880558,0.267996,0.294436,-0.004886,-0.001221
2025-12-31T16:05:44.146927,9.308079,-1.014556,0.196211,0.296880,0.019547,-0.007330
2025-12-31T16:05:44.156927,9.073583,-1.105484,0.191425,0.313984,0.000000,-0.014660
2025-12-31T16:05:44.165927,8.977870,-1.186840,0.177068,0.335975,-0.045204,-0.023212
2025-12-31T16:05:44.175927,8.982656,-1.148554,0.277567,0.371405,-0.101403,-0.021991
2025-12-31T16:05:44.185927,9.097511,-1.024128,0.196211,0.404392,-0.158824,-0.021991
2025-12-31T16:05:44.194927,9.183653,-0.842273,0.191425,0.412944,-0.184481,-0.019547
2025-12-31T16:05:44.204927,9.164510,-0.760917,0.105284,0.389731,-0.151494,-0.009773
2025-12-31T16:05:44.213927,8.910871,-0.880558,0.114855,0.366519,-0.097738,0.002443
2025-12-31T16:05:44.223927,8.614161,-0.890130,0.081355,0.365297,-0.053756,-0.003665
2025-12-31T16:05:44.233927,8.154739,-1.009771,0.133998,0.387288,-0.031764,-0.020769
2025-12-31T16:05:44.242927,7.810172,-1.014556,0.401994,0.428827,-0.039095,-0.047647
2025-12-31T16:05:44.252927,7.456035,-0.966700,0.732203,0.483805,-0.056199,-0.076969
2025-12-31T16:05:44.262927,7.221538,-0.770488,0.803988,0.516791,-0.075747,-0.101403
2025-12-31T16:05:44.271927,6.843472,-0.555134,0.894915,0.503352,-0.089186,-0.116064
2025-12-31T16:05:44.281927,6.585047,-0.267996,0.803988,0.448374,-0.080634,-0.119729
2025-12-31T16:05:44.290927,6.211767,-0.196211,0.660419,0.357966,-0.061086,-0.129503
2025-12-31T16:05:44.300927,5.800201,-0.229710,0.602991,0.244346,-0.028099,-0.134390
2025-12-31T16:05:44.310927,5.321637,-0.416351,0.473778,0.140498,0.029321,-0.139277
2025-12-31T16:05:44.319927,4.680361,-0.732203,0.459421,0.086742,0.085521,-0.145385
2025-12-31T16:05:44.329927,4.096512,-1.024128,0.468993,0.087964,0.114842,-0.157603
2025-12-31T16:05:44.338927,3.464807,-1.363908,0.559920,0.155159,0.119729,-0.168598
2025-12-31T16:05:44.348927,2.880958,-1.493121,0.555134,0.300545,0.098960,-0.174707
2025-12-31T16:05:44.358927,2.301895,-1.588834,0.746560,0.486248,0.043982,-0.183259
2025-12-31T16:05:44.367927,1.919043,-1.536192,0.813559,0.674395,-0.050090,-0.190589
2025-12-31T16:05:44.377927,1.794616,-1.574477,0.961914,0.858876,-0.166155,-0.193033
2025-12-31T16:05:44.387927,1.895115,-1.579262,1.004985,1.033583,-0.284663,-0.182037
2025-12-31T16:05:44.396927,2.220539,-1.517049,1.081555,1.181413,-0.387288,-0.163711
2025-12-31T16:05:44.406927,2.632104,-1.402194,1.043270,1.291368,-0.442266,-0.141720
2025-12-31T16:05:44.415927,3.168097,-1.296909,0.990628,1.348790,-0.444709,-0.122173
2025-12-31T16:05:44.425927,3.675375,-1.100698,1.048056,1.380555,-0.397062,-0.112399
2025-12-31T16:05:44.435927,3.914657,-0.799202,1.009771,1.406211,-0.321315,-0.116064
2025-12-31T16:05:44.444927,4.230510,-0.492921,1.048056,1.391550,-0.257785,-0.103847
2025-12-31T16:05:44.454927,4.637290,-0.287138,1.473978,1.304807,-0.240680,-0.068416
2025-12-31T16:05:44.463927,5.383850,-0.191425,1.928615,1.141096,-0.250454,-0.007330
2025-12-31T16:05:44.473927,6.235695,-0.387637,2.124826,0.941954,-0.233350,0.064751
2025-12-31T16:05:44.483927,7.211967,-0.555134,1.995614,0.713490,-0.175929,0.149051
2025-12-31T16:05:44.492927,8.006384,-0.823130,1.942971,0.459370,-0.101403,0.255341
2025-12-31T16:05:44.502927,8.776873,-1.172483,1.646261,0.200363,-0.017104,0.379958
2025-12-31T16:05:44.512927,9.375078,-1.249053,1.316052,-0.054977,0.061086,0.513126
2025-12-31T16:05:44.521927,9.853643,-1.296909,0.985842,-0.321315,0.130725,0.647517
2025-12-31T16:05:44.531927,10.313065,-1.344766,0.693918,-0.607199,0.193033,0.788015
2025-12-31T16:05:44.540927,10.719845,-1.430907,0.756131,-0.868650,0.263893,0.923628
2025-12-31T16:05:44.550927,10.939984,-1.502692,0.732203,-1.086118,0.366519,1.053131
2025-12-31T16:05:44.560927,10.920842,-1.641476,0.425922,-1.264490,0.516791,1.175304
2025-12-31T16:05:44.569927,10.581061,-1.962114,0.258424,-1.436754,0.667064,1.309694
2025-12-31T16:05:44.579927,10.045069,-2.627319,0.129212,-1.547932,0.763581,1.452637
2025-12-31T16:05:44.588927,9.523433,-3.297309,0.028713,-1.518610,0.775798,1.576031
2025-12-31T16:05:44.598927,9.135796,-3.842873,-0.071784,-1.369559,0.697607,1.663996
2025-12-31T16:05:44.608927,9.116654,-4.278366,0.138783,-1.145982,0.577878,1.704313
2025-12-31T16:05:44.617927,9.145367,-4.613361,0.521635,-0.858876,0.475253,1.710422
2025-12-31T16:05:44.627927,9.480363,-4.618147,0.928415,-0.515570,0.386066,1.694539
2025-12-31T16:05:44.637927,9.944570,-4.297509,0.981057,-0.184481,0.299323,1.676213
2025-12-31T16:05:44.646927,10.504491,-3.818944,0.909272,0.057421,0.223576,1.659109
2025-12-31T16:05:44.656927,11.035697,-3.211167,0.823130,0.180816,0.201585,1.653000
2025-12-31T16:05:44.665927,11.456834,-2.900100,0.770488,0.174707,0.224798,1.668883
2025-12-31T16:05:44.675927,11.691331,-2.957528,0.708275,0.086742,0.270002,1.695761
2025-12-31T16:05:44.685927,11.882757,-3.330809,0.966700,-0.015882,0.305432,1.736078
2025-12-31T16:05:44.694927,12.112468,-3.876372,1.330409,-0.098960,0.333532,1.772730
2025-12-31T16:05:44.704927,12.203395,-4.460221,1.402194,-0.139277,0.360410,1.819156
2025-12-31T16:05:44.713927,12.256037,-5.020141,1.205982,-0.059864,0.417831,1.850921
2025-12-31T16:05:44.723927,12.155538,-5.182853,1.201196,0.106290,0.465479,1.865582
2025-12-31T16:05:44.733927,12.241680,-5.000999,1.191625,0.289550,0.472809,1.859473
2025-12-31T16:05:44.742927,12.303893,-4.575076,1.182054,0.427605,0.453261,1.833817
2025-12-31T16:05:44.752927,12.409178,-4.220939,1.124626,0.471587,0.434935,1.833817
2025-12-31T16:05:44.762927,12.543176,-4.125226,1.067198,0.458148,0.423940,1.853364
2025-12-31T16:05:44.771927,12.748958,-4.235296,0.861416,0.441044,0.406836,1.863138
2025-12-31T16:05:44.781927,13.021740,-4.417150,0.646062,0.414166,0.368962,1.874134
2025-12-31T16:05:44.790927,13.447663,-4.756931,0.516849,0.371405,0.288328,1.883908
2025-12-31T16:05:44.800927,14.132010,-5.221138,0.459421,0.365297,0.156381,1.885129
2025-12-31T16:05:44.810927,14.859428,-5.627918,0.612562,0.403170,0.054977,1.865582
2025-12-31T16:05:44.819927,15.687344,-5.761916,0.626919,0.483805,0.023212,1.842369
2025-12-31T16:05:44.829927,16.409977,-5.742774,0.593420,0.591317,0.068416,1.816712
2025-12-31T16:05:44.838927,16.898113,-5.379065,0.507278,0.664621,0.169820,1.784947
2025-12-31T16:05:44.848927,17.103895,-5.087140,0.320638,0.647517,0.265115,1.748295
2025-12-31T16:05:44.858927,17.161324,-4.905286,0.095712,0.559552,0.307876,1.710422
2025-12-31T16:05:44.867927,17.328821,-4.867001,-0.306281,0.428827,0.237015,1.655444
2025-12-31T16:05:44.877927,17.625530,-4.785645,-0.665204,0.307876,0.061086,1.558927
2025-12-31T16:05:44.887927,18.386448,-4.709074,-0.981057,0.183259,-0.182037,1.424537
2025-12-31T16:05:44.896927,19.391434,-4.536791,-1.330409,0.023212,-0.460592,1.262047
2025-12-31T16:05:44.906927,20.583059,-4.622933,-1.818545,-0.197920,-0.692721,1.105665
2025-12-31T16:05:44.915927,21.712473,-4.972285,-2.206182,-0.408057,-0.800233,0.919962
2025-12-31T16:05:44.925927,22.554745,-5.154139,-2.335394,-0.525343,-0.786794,0.706160
2025-12-31T16:05:44.935927,23.071594,-5.096712,-2.450250,-0.581543,-0.702494,0.477696
2025-12-31T16:05:44.944927,23.009382,-4.934000,-2.148754,-0.623082,-0.519235,0.239459
2025-12-31T16:05:44.954927,22.301105,-4.670789,-1.426122,-0.641408,-0.283441,0.020769
2025-12-31T16:05:44.963927,21.200409,-4.618147,-0.928415,-0.711046,-0.120951,-0.196698
2025-12-31T16:05:44.973927,19.812571,-4.828716,-0.655633,-0.736703,-0.092851,-0.455705
2025-12-31T16:05:44.983927,18.731014,-4.790430,-0.014356,-0.640186,-0.125838,-0.723264
2025-12-31T16:05:44.992927,17.716457,-4.575076,0.516849,-0.551000,-0.157603,-0.957836
2025-12-31T16:05:45.002927,16.759329,-4.666004,0.803988,-0.538783,-0.152716,-1.166752
2025-12-31T16:05:45.012927,15.830914,-5.077569,1.024128,-0.507018,-0.138055,-1.361007
2025-12-31T16:05:45.021927,15.012568,-5.637490,1.038485,-0.398284,-0.117286,-1.539380
2025-12-31T16:05:45.031927,14.136795,-6.116054,1.062413,-0.213802,-0.109955,-1.701870
2025-12-31T16:05:45.040927,13.366307,-6.451049,1.004985,0.058643,-0.114842,-1.827708
2025-12-31T16:05:45.050927,12.777672,-6.508477,0.952343,0.405614,-0.197920,-1.952324
2025-12-31T16:05:45.060927,12.490533,-6.087340,0.808774,0.740368,-0.318871,-2.073276
2025-12-31T16:05:45.069927,12.418749,-5.374279,0.507278,0.988379,-0.406836,-2.162462
2025-12-31T16:05:45.079927,12.394821,-4.469792,0.306281,1.121548,-0.431270,-2.211331
2025-12-31T16:05:45.088927,12.117253,-3.651447,0.028713,1.172861,-0.423940,-2.249205
2025-12-31T16:05:45.098927,11.897113,-2.943171,-0.267996,1.187521,-0.415388,-2.296852
2025-12-31T16:05:45.108927,11.643474,-2.277967,-0.311066,1.142317,-0.430049,-2.354274
2025-12-31T16:05:45.117927,11.538190,-1.770688,-0.009571,0.993266,-0.456927,-2.364047
2025-12-31T16:05:45.127927,11.437692,-1.550549,0.186640,0.767246,-0.504574,-2.315178
2025-12-31T16:05:45.137927,11.461620,-1.612762,0.172283,0.524122,-0.583987,-2.254092
2025-12-31T16:05:45.146927,11.614760,-1.890329,0.177068,0.304210,-0.663399,-2.204001
2025-12-31T16:05:45.156927,11.973684,-2.397608,0.114855,0.150272,-0.698829,-2.145358
2025-12-31T16:05:45.165927,12.227323,-2.775674,0.062213,0.070860,-0.685390,-2.079384
2025-12-31T16:05:45.175927,12.346964,-3.024527,-0.014356,0.019547,-0.627969,-1.998750
2025-12-31T16:05:45.185927,12.232109,-3.383451,-0.378065,-0.025656,-0.560774,-1.894903
2025-12-31T16:05:45.194927,12.021540,-3.613162,-0.339780,0.002443,-0.529009,-1.800830
2025-12-31T16:05:45.204927,11.820543,-3.464807,-0.483350,0.081855,-0.531452,-1.723861
2025-12-31T16:05:45.213927,11.720045,-3.249453,-0.736989,0.134390,-0.542448,-1.653000
2025-12-31T16:05:45.223927,11.609975,-3.043670,-0.617348,0.167377,-0.537561,-1.593136
2025-12-31T16:05:45.233927,11.456834,-2.732603,-0.588634,0.215024,-0.524122,-1.535714
2025-12-31T16:05:45.242927,11.351550,-2.215753,-0.540777,0.255341,-0.514348,-1.484402
2025-12-31T16:05:45.252927,11.231909,-1.808973,-0.263210,0.237015,-0.509461,-1.428202
2025-12-31T16:05:45.262927,11.102696,-1.564905,-0.066999,0.172263,-0.515570,-1.365894
2025-12-31T16:05:45.271927,11.050054,-1.383051,-0.177068,0.089186,-0.541226,-1.306029
2025-12-31T16:05:45.281927,11.011769,-1.335195,-0.129212,-0.004886,-0.576656,-1.251051
2025-12-31T16:05:45.290927,11.117053,-1.440479,-0.057427,-0.087964,-0.618195,-1.207069
2025-12-31T16:05:45.300927,11.313265,-1.450050,-0.095712,-0.145385,-0.649960,-1.171639
2025-12-31T16:05:45.310927,11.428120,-1.263410,-0.062213,-0.195476,-0.629191,-1.138652
2025-12-31T16:05:45.319927,11.461620,-1.124626,-0.028713,-0.284663,-0.564439,-1.102000
2025-12-31T16:05:45.329927,11.375478,-1.153340,0.014356,-0.425162,-0.491135,-1.055574
2025-12-31T16:05:45.338927,11.021340,-1.402194,0.023928,-0.574213,-0.414166,-0.990823
2025-12-31T16:05:45.348927,10.738987,-1.536192,0.019142,-0.698829,-0.348193,-0.924849
2025-12-31T16:05:45.358927,10.370493,-1.713260,-0.047856,-0.790459,-0.288328,-0.863763
2025-12-31T16:05:45.367927,9.901499,-1.732403,-0.076570,-0.864984,-0.232128,-0.808785
2025-12-31T16:05:45.377927,9.442077,-1.761117,0.023928,-0.935845,-0.171042,-0.748920
2025-12-31T16:05:45.387927,8.953942,-1.799402,0.066999,-1.005483,-0.100181,-0.689055
2025-12-31T16:05:45.396927,8.504091,-1.856830,0.234496,-1.069013,-0.024434,-0.631634
2025-12-31T16:05:45.406927,7.925028,-1.928615,0.306281,-1.123991,0.064751,-0.585208
2025-12-31T16:05:45.415927,7.293323,-2.033899,0.425922,-1.150869,0.163711,-0.537561
2025-12-31T16:05:45.425927,6.589833,-2.124826,0.559920,-1.144761,0.267558,-0.505796
2025-12-31T16:05:45.435927,5.962913,-2.187039,0.669990,-1.121548,0.366519,-0.475253
2025-12-31T16:05:45.444927,5.106283,-2.124826,0.775274,-1.086118,0.430049,-0.443488
2025-12-31T16:05:45.454927,4.417150,-2.038684,0.861416,-1.060461,0.444709,-0.417831
2025-12-31T16:05:45.463927,3.795016,-1.976471,0.870987,-1.031140,0.428827,-0.389731
2025-12-31T16:05:45.473927,3.254238,-1.957328,1.014556,-0.982271,0.411723,-0.340862
2025-12-31T16:05:45.483927,2.641676,-1.928615,1.048056,-0.908967,0.389731,-0.305432
2025-12-31T16:05:45.492927,2.081755,-1.823330,0.947557,-0.828333,0.355523,-0.284663
2025-12-31T16:05:45.502927,1.627119,-1.746760,0.985842,-0.759916,0.318871,-0.260228
2025-12-31T16:05:45.512927,1.306481,-1.799402,1.038485,-0.698829,0.252898,-0.224798
2025-12-31T16:05:45.521927,1.048056,-2.053041,1.220339,-0.615752,0.146607,-0.196698
2025-12-31T16:05:45.531927,1.115055,-2.182254,1.268195,-0.478918,0.032986,-0.171042
2025-12-31T16:05:45.540927,1.383051,-2.234896,1.421336,-0.323758,-0.065973,-0.155159
2025-12-31T16:05:45.550927,1.837687,-2.177468,1.641476,-0.179594,-0.134390,-0.150272
2025-12-31T16:05:45.560927,2.402393,-1.880758,1.818545,-0.052534,-0.161268,-0.150272
2025-12-31T16:05:45.569927,2.991028,-1.445264,1.832902,0.020769,-0.136833,-0.146607
2025-12-31T16:05:45.579927,3.436093,-1.028913,1.847259,0.004886,-0.056199,-0.136833
2025-12-31T16:05:45.588927,3.675375,-0.684347,1.919043,-0.085521,0.043982,-0.125838
2025-12-31T16:05:45.598927,3.895515,-0.516849,1.952543,-0.223576,0.123394,-0.107512
2025-12-31T16:05:45.608927,4.197010,-0.454636,1.976471,-0.373849,0.149051,-0.073303
2025-12-31T16:05:45.617927,4.584648,-0.445065,1.785045,-0.497244,0.133168,-0.039095
2025-12-31T16:05:45.627927,5.096712,-0.200997,1.584048,-0.601091,0.107512,-0.017104
2025-12-31T16:05:45.637927,5.680560,0.181854,1.191625,-0.733038,0.087964,0.013439
2025-12-31T16:05:45.646927,6.235695,0.555134,0.861416,-0.919962,0.067195,0.069638
2025-12-31T16:05:45.656927,6.843472,0.794417,0.555134,-1.159421,0.034208,0.144164
2025-12-31T16:05:45.665927,7.523034,0.851844,0.215354,-1.415985,-0.021991,0.233350
2025-12-31T16:05:45.675927,8.245666,0.674775,-0.196211,-1.646892,-0.087964,0.312762
2025-12-31T16:05:45.685927,8.968299,0.296710,-0.641276,-1.838703,-0.158824,0.389731
2025-12-31T16:05:45.694927,9.729216,-0.023928,-0.842273,-1.958433,-0.207694,0.441044
2025-12-31T16:05:45.704927,10.557133,-0.191425,-0.942772,-2.012189,-0.205250,0.475253
2025-12-31T16:05:45.713927,11.097911,-0.287138,-1.076770,-2.056171,-0.155159,0.503352
2025-12-31T16:05:45.723927,11.461620,-0.344566,-1.210768,-2.105041,-0.080634,0.508239
2025-12-31T16:05:45.733927,11.758330,-0.646062,-1.201196,-2.173458,-0.023212,0.500909
2025-12-31T16:05:45.742927,11.935399,-0.937986,-1.253839,-2.195449,-0.034208,0.497244
2025-12-31T16:05:45.752927,12.174681,-1.301695,-1.148554,-2.149023,-0.100181,0.470366
2025-12-31T16:05:45.762927,12.485748,-1.617548,-1.081555,-2.052506,-0.162490,0.412944
2025-12-31T16:05:45.771927,12.844671,-1.813759,-0.928415,-1.898568,-0.188146,0.327423
2025-12-31T16:05:45.781927,13.103096,-1.852044,-0.708275,-1.707978,-0.150272,0.232128
2025-12-31T16:05:45.790927,12.954741,-1.928615,-0.339780,-1.503949,-0.019547,0.134390
2025-12-31T16:05:45.800927,12.332607,-1.947757,0.057427,-1.281595,0.183259,0.051312
2025-12-31T16:05:45.810927,11.207981,-1.981257,0.502492,-1.028696,0.403170,-0.018325
2025-12-31T16:05:45.819927,9.767501,-1.923829,0.875773,-0.775798,0.554665,-0.085521
2025-12-31T16:05:45.829927,8.432306,-1.919043,1.258624,-0.535117,0.576656,-0.153938
2025-12-31T16:05:45.838927,7.298108,-1.938186,1.378265,-0.266337,0.480139,-0.215024
2025-12-31T16:05:45.848927,6.551548,-2.081755,1.478764,0.026878,0.307876,-0.239459
2025-12-31T16:05:45.858927,6.226124,-2.048256,1.674975,0.346971,0.086742,-0.228463
2025-12-31T16:05:45.867927,6.326622,-1.780260,1.588834,0.686612,-0.151494,-0.189368
2025-12-31T16:05:45.877927,7.058826,-1.282552,1.588834,0.978605,-0.387288,-0.161268
2025-12-31T16:05:45.887927,7.977670,-0.660419,1.478764,1.143539,-0.535117,-0.139277
2025-12-31T16:05:45.896927,8.992227,-0.239282,1.277767,1.199739,-0.569326,-0.103847
2025-12-31T16:05:45.906927,9.748359,0.172283,1.134197,1.192408,-0.502131,-0.062308
2025-12-31T16:05:45.915927,10.231709,0.588634,0.923629,1.139874,-0.382401,-0.015882
2025-12-31T16:05:45.925927,10.590632,1.014556,0.713061,1.026253,-0.266337,0.025656
2025-12-31T16:05:45.935927,10.700702,1.325623,0.569491,0.852767,-0.196698,0.079412
2025-12-31T16:05:45.944927,11.035697,1.598405,0.445065,0.654847,-0.182037,0.124616
2025-12-31T16:05:45.954927,11.313265,1.722832,0.339780,0.458148,-0.190589,0.158824
2025-12-31T16:05:45.963927,11.739187,1.852044,0.138783,0.238237,-0.182037,0.191811
2025-12-31T16:05:45.973927,11.992826,2.000399,-0.057427,0.018325,-0.118507,0.232128
2025-12-31T16:05:45.983927,12.045468,2.100898,-0.186640,-0.188146,0.013439,0.274889
2025-12-31T16:05:45.992927,11.772687,2.096112,-0.081355,-0.417831,0.174707,0.335975
2025-12-31T16:05:46.002927,11.231909,1.708475,-0.019142,-0.670729,0.312762,0.415388
2025-12-31T16:05:46.012927,10.466206,0.990628,0.076570,-0.847880,0.371405,0.469144
2025-12-31T16:05:46.021927,9.853643,0.502492,0.105284,-0.853989,0.346971,0.474031
2025-12-31T16:05:46.031927,9.379864,0.363709,0.387637,-0.770911,0.270002,0.442266
2025-12-31T16:05:46.040927,9.178867,0.291924,0.555134,-0.707381,0.167377,0.388510
2025-12-31T16:05:46.050927,9.217152,0.009571,0.780060,-0.643851,0.058643,0.328645
2025-12-31T16:05:46.060927,9.279366,-0.320638,0.784845,-0.535117,-0.018325,0.260228
2025-12-31T16:05:46.069927,9.413364,-0.722632,0.851844,-0.411723,-0.054977,0.182037
2025-12-31T16:05:46.079927,9.432506,-1.081555,0.899701,-0.282219,-0.047647,0.102625
2025-12-31T16:05:46.088927,9.399007,-1.569691,1.043270,-0.117286,-0.036651,0.030543
2025-12-31T16:05:46.098927,9.269794,-1.933400,0.923629,0.094073,-0.041538,-0.039095
2025-12-31T16:05:46.108927,9.068797,-1.928615,0.866201,0.324980,-0.061086,-0.108733
2025-12-31T16:05:46.117927,8.901300,-1.761117,0.765703,0.543669,-0.075747,-0.171042
2025-12-31T16:05:46.127927,8.719445,-1.493121,0.650847,0.706160,-0.083077,-0.223576
2025-12-31T16:05:46.137927,8.547162,-1.368694,0.622133,0.816115,-0.105068,-0.268780
2025-12-31T16:05:46.146927,8.461020,-1.320838,0.507278,0.896749,-0.153938,-0.307876
2025-12-31T16:05:46.156927,8.417949,-1.354337,0.492921,0.972497,-0.211359,-0.333532
2025-12-31T16:05:46.165927,8.556733,-1.406979,0.416351,1.050687,-0.273667,-0.351858
2025-12-31T16:05:46.175927,8.772087,-1.383051,0.406779,1.119104,-0.309097,-0.381179
2025-12-31T16:05:46.185927,8.791230,-1.306481,0.368494,1.164308,-0.289550,-0.395840
2025-12-31T16:05:46.194927,8.700302,-1.296909,0.392422,1.161865,-0.240680,-0.386066
2025-12-31T16:05:46.204927,8.437092,-1.320838,0.521635,1.133765,-0.207694,-0.370184
2025-12-31T16:05:46.213927,8.212167,-1.383051,0.406779,1.109331,-0.199142,-0.353080
2025-12-31T16:05:46.223927,7.992027,-1.440479,0.406779,1.095892,-0.202807,-0.332310
2025-12-31T16:05:46.233927,7.786244,-1.469193,0.512064,1.093448,-0.212581,-0.311541
2025-12-31T16:05:46.242927,7.680960,-1.488335,0.674775,1.097113,-0.218689,-0.293215
2025-12-31T16:05:46.252927,7.590033,-1.440479,0.736989,1.094670,-0.213802,-0.270002
2025-12-31T16:05:46.262927,7.470392,-1.354337,0.789631,1.089783,-0.183259,-0.246789
2025-12-31T16:05:46.271927,7.250252,-1.277767,0.799202,1.071457,-0.129503,-0.218689
2025-12-31T16:05:46.281927,6.924828,-1.229910,0.803988,1.029918,-0.051312,-0.186924
2025-12-31T16:05:46.290927,6.441478,-1.272981,0.827916,0.994488,0.039095,-0.146607
2025-12-31T16:05:46.300927,5.929414,-1.182054,0.885344,0.965166,0.130725,-0.112399
2025-12-31T16:05:46.310927,5.225924,-1.196411,0.842273,0.924849,0.216246,-0.068416
2025-12-31T16:05:46.319927,4.575076,-1.229910,0.875773,0.882089,0.272445,-0.004886
2025-12-31T16:05:46.329927,3.957728,-1.311266,0.990628,0.872315,0.301767,0.059864
2025-12-31T16:05:46.338927,3.278166,-1.277767,1.000199,0.895528,0.299323,0.118507
2025-12-31T16:05:46.348927,2.842673,-1.196411,1.062413,0.929736,0.267558,0.183259
2025-12-31T16:05:46.358927,2.507678,-1.158126,1.158126,0.956614,0.200363,0.248011
2025-12-31T16:05:46.367927,2.354537,-1.138983,1.182054,0.977384,0.120951,0.306654
2025-12-31T16:05:46.377927,2.373680,-1.153340,1.134197,1.000597,0.030543,0.366519
2025-12-31T16:05:46.387927,2.723032,-1.234696,1.067198,1.017701,-0.050090,0.419053
2025-12-31T16:05:46.396927,3.105883,-1.421336,0.813559,1.029918,-0.109955,0.455705
2025-12-31T16:05:46.406927,3.641875,-1.713260,0.880558,1.055574,-0.138055,0.486248
2025-12-31T16:05:46.415927,4.292723,-1.856830,0.799202,1.088561,-0.128281,0.511904
2025-12-31T16:05:46.425927,4.847858,-1.928615,0.818345,1.150869,-0.086742,0.521678
2025-12-31T16:05:46.435927,5.345565,-1.775474,0.990628,1.214399,-0.029321,0.525343
2025-12-31T16:05:46.444927,5.862415,-1.579262,1.167697,1.221730,0.026878,0.544891
2025-12-31T16:05:46.454927,6.369693,-1.445264,1.052841,1.172861,0.069638,0.575434
2025-12-31T16:05:46.463927,6.876972,-1.387837,1.004985,1.109331,0.101403,0.607199
2025-12-31T16:05:46.473927,7.417750,-1.339980,1.263410,1.032362,0.130725,0.630412
2025-12-31T16:05:46.483927,7.929814,-1.320838,1.406979,0.952949,0.175929,0.656069
2025-12-31T16:05:46.492927,8.374879,-1.258624,1.287338,0.874758,0.254119,0.702494
2025-12-31T16:05:46.502927,8.705088,-0.847059,1.043270,0.741590,0.362853,0.769690
2025-12-31T16:05:46.512927,8.800801,-0.478564,0.870987,0.514348,0.472809,0.858876
2025-12-31T16:05:46.521927,8.867800,-0.354137,0.569491,0.218689,0.551000,0.956614
2025-12-31T16:05:46.531927,8.843872,-0.569491,0.320638,-0.086742,0.575434,1.053131
2025-12-31T16:05:46.540927,8.872586,-1.191625,0.210568,-0.348193,0.543669,1.148426
2025-12-31T16:05:46.550927,9.011369,-1.880758,0.258424,-0.482583,0.482583,1.222951
2025-12-31T16:05:46.560927,9.236295,-2.349751,0.358923,-0.485026,0.434935,1.281595
2025-12-31T16:05:46.569927,9.475577,-2.675175,0.540777,-0.393397,0.443488,1.310916
2025-12-31T16:05:46.579927,9.475577,-2.837887,0.660419,-0.234572,0.493579,1.345124
2025-12-31T16:05:46.588927,9.456434,-2.847458,0.607776,-0.067195,0.536339,1.384220
2025-12-31T16:05:46.598927,9.250652,-2.751745,0.650847,0.042760,0.544891,1.406211
2025-12-31T16:05:46.608927,9.198010,-2.775674,0.679561,0.133168,0.503352,1.419650
2025-12-31T16:05:46.617927,9.241080,-2.794816,0.756131,0.265115,0.427605,1.424537
2025-12-31T16:05:46.627927,9.643075,-2.699103,0.918843,0.371405,0.331088,1.433089
2025-12-31T16:05:46.637927,10.121639,-2.742174,0.789631,0.430049,0.226020,1.450193
2025-12-31T16:05:46.646927,10.762916,-2.967100,0.679561,0.492357,0.129503,1.470963
2025-12-31T16:05:46.656927,11.495119,-3.067598,0.478564,0.560774,0.040317,1.483180
2025-12-31T16:05:46.665927,12.356535,-3.292523,0.655633,0.621860,-0.013439,1.480737
2025-12-31T16:05:46.675927,13.141381,-3.373879,0.612562,0.687834,-0.008552,1.477071
2025-12-31T16:05:46.685927,13.868799,-3.273381,0.339780,0.774576,0.054977,1.470963
2025-12-31T16:05:46.694927,14.390435,-2.943171,0.129212,0.849102,0.163711,1.451415
2025-12-31T16:05:46.704927,14.658431,-2.694318,0.205782,0.836885,0.295658,1.437976
2025-12-31T16:05:46.713927,14.792429,-2.517249,0.062213,0.733038,0.455705,1.466076
2025-12-31T16:05:46.723927,14.553147,-2.541177,-0.124426,0.599869,0.649960,1.535714
2025-12-31T16:05:46.733927,13.954941,-2.641676,-0.014356,0.480139,0.836885,1.607796
2025-12-31T16:05:46.742927,13.251451,-2.790031,0.114855,0.366519,0.932180,1.679879
2025-12-31T16:05:46.752927,12.605389,-3.043670,0.090927,0.255341,0.853989,1.748295
2025-12-31T16:05:46.762927,12.681959,-3.431307,0.162711,0.180816,0.620638,1.797165
2025-12-31T16:05:46.771927,13.275379,-3.704089,0.215354,0.179594,0.332310,1.819156
2025-12-31T16:05:46.781927,14.213366,-3.684946,0.430708,0.237015,0.135612,1.830151
2025-12-31T16:05:46.790927,15.256636,-3.479164,0.851844,0.298102,0.096516,1.830151
2025-12-31T16:05:46.800927,15.888342,-3.163311,0.765703,0.340862,0.212581,1.820378
2025-12-31T16:05:46.810927,16.108480,-2.675175,0.602991,0.344527,0.412944,1.820378
2025-12-31T16:05:46.819927,15.912270,-2.268395,0.641276,0.195476,0.605978,1.847256
2025-12-31T16:05:46.829927,15.443277,-2.220539,0.449850,-0.103847,0.704938,1.880242
2025-12-31T16:05:46.838927,15.022140,-2.603390,0.081355,-0.419053,0.663399,1.904677
2025-12-31T16:05:46.848927,14.888142,-3.062812,-0.354137,-0.667064,0.486248,1.909564
2025-12-31T16:05:46.858927,15.194423,-3.546163,-0.464207,-0.828333,0.219911,1.871690
2025-12-31T16:05:46.867927,15.912270,-4.029513,-0.516849,-0.923628,-0.081855,1.808160
2025-12-31T16:05:46.877927,16.826328,-4.421936,-0.689132,-0.956614,-0.354301,1.715309
2025-12-31T16:05:46.887927,18.017954,-4.484149,-0.813559,-0.924849,-0.582765,1.583362
2025-12-31T16:05:46.896927,19.319649,-4.307080,-0.732203,-0.929736,-0.780685,1.436754
2025-12-31T16:05:46.906927,20.602201,-4.378865,-0.928415,-1.058018,-0.874758,1.269377
2025-12-31T16:05:46.915927,21.525831,-4.512863,-0.736989,-1.131322,-0.810007,1.029918
2025-12-31T16:05:46.925927,21.827328,-4.364508,-0.224925,-1.132543,-0.597426,0.795346
2025-12-31T16:05:46.935927,21.233908,-4.268795,0.095712,-1.203404,-0.327423,0.593760
2025-12-31T16:05:46.944927,20.171494,-4.197010,0.181854,-1.329242,-0.201585,0.383623
2025-12-31T16:05:46.954927,19.367506,-4.412364,0.138783,-1.496619,-0.339641,0.107512
2025-12-31T16:05:46.963927,19.525433,-5.005784,-0.574277,-1.693318,-0.638964,-0.217467
2025-12-31T16:05:46.973927,19.999210,-5.915057,-1.239482,-1.758069,-0.810007,-0.509461
2025-12-31T16:05:46.983927,20.023140,-6.709474,-1.100698,-1.609018,-0.616973,-0.761137
2025-12-31T16:05:46.992927,18.989441,-7.188039,-0.497707,-1.325577,-0.168598,-0.996931
2025-12-31T16:05:47.002927,17.185251,-7.345965,-0.277567,-0.983492,0.276111,-1.270599
2025-12-31T16:05:47.012927,15.280565,-7.015755,0.076570,-0.616973,0.393397,-1.521054
2025-12-31T16:05:47.021927,13.782658,-6.470192,0.559920,-0.284663,0.235793,-1.754404
2025-12-31T16:05:47.031927,13.165309,-5.833701,0.957129,-0.065973,-0.120951,-1.952324
2025-12-31T16:05:47.040927,13.811372,-5.264209,0.775274,0.094073,-0.572991,-2.040289
2025-12-31T16:05:47.050927,15.180066,-4.431507,0.057427,0.249232,-0.603534,-2.229657
2025-12-31T16:05:47.060927,15.103496,-3.996013,-0.138783,0.283441,-0.166155,-2.302961
2025-12-31T16:05:47.069927,13.557732,-4.278366,-0.052642,0.311541,0.230907,-2.249205
2025-12-31T16:05:47.079927,12.169895,-4.364508,-0.349352,0.415388,0.280997,-2.331061
2025-12-31T16:05:47.088927,11.447263,-4.292723,-0.598205,0.489913,0.063529,-2.393369
2025-12-31T16:05:47.098927,11.270194,-4.072584,-0.559920,0.542448,-0.195476,-2.383595
2025-12-31T16:05:47.108927,11.303693,-3.761517,-0.588634,0.542448,-0.364075,-2.324952
2025-12-31T16:05:47.117927,11.413763,-3.503092,-0.641276,0.480139,-0.432492,-2.229657
2025-12-31T16:05:47.127927,11.399406,-3.335594,-0.660419,0.389731,-0.458148,-2.113593
2025-12-31T16:05:47.137927,11.447263,-3.215953,-0.679561,0.316428,-0.483805,-2.012189
2025-12-31T16:05:47.146927,11.394621,-3.029313,-0.689132,0.262671,-0.514348,-1.920559
2025-12-31T16:05:47.156927,11.423335,-3.010170,-0.717846,0.228463,-0.546113,-1.857029
2025-12-31T16:05:47.165927,11.404192,-2.943171,-0.650847,0.241902,-0.544891,-1.808160
2025-12-31T16:05:47.175927,11.212766,-2.770888,-0.507278,0.287106,-0.502131,-1.760513
2025-12-31T16:05:47.185927,10.963913,-2.679961,-0.459421,0.327423,-0.455705,-1.704313
2025-12-31T16:05:47.194927,10.638489,-2.493321,-0.344566,0.350636,-0.444709,-1.642005
2025-12-31T16:05:47.204927,10.461420,-2.182254,-0.325423,0.344527,-0.443488,-1.605353
2025-12-31T16:05:47.213927,10.341779,-2.163111,-0.287138,0.267558,-0.470366,-1.543045
2025-12-31T16:05:47.223927,10.322636,-2.407179,-0.344566,0.184481,-0.547335,-1.481958
2025-12-31T16:05:47.233927,10.437492,-2.746960,-0.512064,0.155159,-0.652403,-1.440419
2025-12-31T16:05:47.242927,10.839486,-3.091526,-0.468993,0.185702,-0.747698,-1.419650
2025-12-31T16:05:47.252927,11.346764,-3.105883,-0.306281,0.259006,-0.794124,-1.409876
2025-12-31T16:05:47.262927,11.777472,-2.703889,-0.425922,0.331088,-0.786794,-1.387885
2025-12-31T16:05:47.271927,12.040683,-2.096112,-0.473778,0.329867,-0.718377,-1.346346
2025-12-31T16:05:47.281927,12.126824,-1.430907,-0.368494,0.218689,-0.598647,-1.260825
2025-12-31T16:05:47.290927,11.772687,-0.976271,-0.368494,-0.007330,-0.392175,-1.156978
2025-12-31T16:05:47.300927,10.949556,-0.832702,-0.354137,-0.291993,-0.207694,-1.037248
2025-12-31T16:05:47.310927,10.145567,-0.971485,-0.291924,-0.568104,-0.120951,-0.921184
2025-12-31T16:05:47.319927,9.413364,-1.191625,-0.330209,-0.796568,-0.141720,-0.841772
2025-12-31T16:05:47.329927,9.097511,-1.679761,-0.325423,-0.954171,-0.246789,-0.796568
2025-12-31T16:05:47.338927,9.169296,-2.124826,-0.196211,-1.029918,-0.386066,-0.768468
2025-12-31T16:05:47.348927,9.485148,-2.474178,-0.047856,-1.023809,-0.507018,-0.753807
2025-12-31T16:05:47.358927,10.016355,-2.665604,-0.009571,-0.946840,-0.575434,-0.746477
2025-12-31T16:05:47.367927,10.456634,-2.579462,-0.028713,-0.835663,-0.563217,-0.745255
2025-12-31T16:05:47.377927,10.758130,-2.230110,-0.023928,-0.746477,-0.459370,-0.746477
2025-12-31T16:05:47.387927,10.609775,-1.818545,0.019142,-0.718377,-0.263893,-0.731816
2025-12-31T16:05:47.396927,10.040283,-1.454836,0.071784,-0.766024,-0.035430,-0.697607
2025-12-31T16:05:47.406927,9.145367,-1.368694,0.138783,-0.862541,0.168598,-0.667064
2025-12-31T16:05:47.415927,8.221738,-1.493121,0.258424,-0.950506,0.294436,-0.656069
2025-12-31T16:05:47.425927,7.417750,-1.545763,0.272781,-1.015257,0.357966,-0.663399
2025-12-31T16:05:47.435927,6.671189,-1.607976,0.411565,-1.053131,0.377514,-0.685390
2025-12-31T16:05:47.444927,6.039484,-1.765903,0.502492,-1.077566,0.399505,-0.689055
2025-12-31T16:05:47.454927,5.417350,-1.976471,0.631705,-1.078787,0.419053,-0.668286
2025-12-31T16:05:47.463927,5.015356,-1.971685,0.674775,-1.060461,0.420275,-0.631634
2025-12-31T16:05:47.473927,4.484149,-1.718046,1.062413,-0.995710,0.482583,-0.588873
2025-12-31T16:05:47.483927,3.976871,-1.617548,1.373480,-1.014036,0.497244,-0.547335
2025-12-31T16:05:47.492927,3.474378,-2.110469,1.311266,-1.087339,0.447153,-0.486248
2025-12-31T16:05:47.502927,3.086741,-2.617747,1.426122,-0.979827,0.383623,-0.486248
2025-12-31T16:05:47.512927,2.880958,-2.536391,1.947757,-0.755029,0.317649,-0.514348
2025-12-31T16:05:47.521927,2.833101,-2.354537,1.995614,-0.542448,0.235793,-0.507018
2025-12-31T16:05:47.531927,2.885744,-1.885544,2.014756,-0.339641,0.135612,-0.475253
2025-12-31T16:05:47.540927,3.297309,-1.354337,2.163111,-0.229685,0.054977,-0.420275
2025-12-31T16:05:47.550927,3.809373,-0.914058,2.024327,-0.234572,0.013439,-0.354301
2025-12-31T16:05:47.560927,4.283152,-0.650847,1.737189,-0.300545,0.041538,-0.284663
2025-12-31T16:05:47.569927,4.575076,-0.416351,1.469193,-0.416610,0.128281,-0.202807
2025-12-31T16:05:47.579927,4.618147,-0.416351,1.201196,-0.583987,0.249232,-0.120951
2025-12-31T16:05:47.588927,4.321437,-0.775274,0.966700,-0.750142,0.368962,-0.032986
2025-12-31T16:05:47.598927,4.048655,-1.196411,0.827916,-0.839328,0.436157,0.047647
2025-12-31T16:05:47.608927,3.857230,-1.488335,0.550349,-0.808785,0.423940,0.107512
2025-12-31T16:05:47.617927,3.986442,-1.426122,0.392422,-0.712268,0.349414,0.160046
2025-12-31T16:05:47.627927,4.417150,-1.014556,0.325423,-0.624304,0.259006,0.208915
2025-12-31T16:05:47.637927,5.058426,-0.617348,0.157926,-0.599869,0.169820,0.263893
2025-12-31T16:05:47.646927,5.757131,-0.129212,-0.014356,-0.627969,0.094073,0.322536
2025-12-31T16:05:47.656927,6.489334,0.210568,-0.234496,-0.709825,0.054977,0.383623
2025-12-31T16:05:47.665927,7.216752,0.382851,-0.358923,-0.834441,0.045204,0.447153
2025-12-31T16:05:47.675927,7.838886,0.440279,-0.574277,-0.973718,0.048869,0.505796
2025-12-31T16:05:47.685927,8.427521,0.401994,-0.784845,-1.105665,0.053756,0.555887
2025-12-31T16:05:47.694927,8.915657,0.488135,-0.866201,-1.219286,0.058643,0.583987
2025-12-31T16:05:47.704927,9.418149,0.416351,-0.966700,-1.325577,0.074525,0.598647
2025-12-31T16:05:47.713927,9.772287,0.358923,-1.057627,-1.426980,0.108733,0.609643
2025-12-31T16:05:47.723927,10.049854,0.200997,-1.004985,-1.501506,0.152716,0.615752
2025-12-31T16:05:47.733927,10.207781,0.071784,-0.981057,-1.556484,0.205250,0.612086
2025-12-31T16:05:47.742927,10.236495,-0.191425,-0.890130,-1.596801,0.237015,0.598647
2025-12-31T16:05:47.752927,10.222138,-0.478564,-0.832702,-1.598023,0.229685,0.585208
2025-12-31T16:05:47.762927,10.159924,-0.693918,-0.607776,-1.547932,0.206472,0.546113
2025-12-31T16:05:47.771927,10.246066,-0.961914,-0.516849,-1.448972,0.178372,0.492357
2025-12-31T16:05:47.781927,10.303494,-1.215553,-0.373280,-1.302364,0.140498,0.438601
2025-12-31T16:05:47.790927,10.470991,-1.277767,-0.258424,-1.116661,0.081855,0.383623
2025-12-31T16:05:47.800927,10.667203,-1.196411,-0.205782,-0.913854,0.025656,0.326201
2025-12-31T16:05:47.810927,10.911271,-0.971485,-0.191425,-0.729372,-0.003665,0.276111
2025-12-31T16:05:47.819927,11.026126,-0.717846,-0.344566,-0.592539,-0.004886,0.241902
2025-12-31T16:05:47.829927,11.002198,-0.521635,-0.650847,-0.516791,0.017104,0.213802
2025-12-31T16:05:47.838927,10.805986,-0.646062,-0.622133,-0.475253,0.037873,0.184481
2025-12-31T16:05:47.848927,10.552347,-1.067198,-0.464207,-0.404392,0.036651,0.151494
2025-12-31T16:05:47.858927,10.202995,-1.320838,-0.387637,-0.243124,0.014660,0.124616
2025-12-31T16:05:47.867927,9.992427,-1.440479,-0.196211,-0.015882,-0.009773,0.100181
2025-12-31T16:05:47.877927,9.710074,-1.210768,0.181854,0.218689,-0.017104,0.085521
2025-12-31T16:05:47.887927,9.365507,-0.875773,0.421136,0.422718,-0.020769,0.069638
2025-12-31T16:05:47.896927,9.035298,-0.401994,0.708275,0.560774,-0.021991,0.064751
2025-12-31T16:05:47.906927,8.752945,-0.009571,0.870987,0.634077,-0.029321,0.062308
2025-12-31T16:05:47.915927,8.470592,0.076570,1.033699,0.651182,-0.063529,0.074525
2025-12-31T16:05:47.925927,8.422735,0.105284,1.119840,0.654847,-0.125838,0.086742
2025-12-31T16:05:47.935927,8.542376,-0.009571,1.062413,0.668286,-0.207694,0.083077
2025-12-31T16:05:47.944927,8.805587,-0.047856,0.985842,0.680503,-0.272445,0.078190
2025-12-31T16:05:47.954927,9.154939,-0.100498,0.899701,0.693942,-0.304210,0.073303
2025-12-31T16:05:47.963927,9.561719,-0.071784,0.803988,0.711046,-0.321315,0.063529
2025-12-31T16:05:47.973927,9.901499,0.028713,0.765703,0.717155,-0.329867,0.051312
2025-12-31T16:05:47.983927,10.250852,0.047856,0.626919,0.693942,-0.318871,0.036651
2025-12-31T16:05:47.992927,10.557133,0.110069,0.598205,0.659734,-0.282219,0.024434
2025-12-31T16:05:48.002927,10.743773,0.210568,0.507278,0.615752,-0.223576,0.012217
2025-12-31T16:05:48.012927,10.815558,0.378065,0.516849,0.553443,-0.147829,0.000000
2025-12-31T16:05:48.021927,10.734202,0.507278,0.559920,0.475253,-0.062308,-0.002443
2025-12-31T16:05:48.031927,10.480562,0.622133,0.569491,0.393397,0.001221,-0.001221
2025-12-31T16:05:48.040927,10.289137,0.665204,0.612562,0.295658,0.026878,0.008552
2025-12-31T16:05:48.050927,10.092925,0.526420,0.732203,0.194255,0.018325,0.021991
2025-12-31T16:05:48.060927,10.016355,0.248853,0.789631,0.112399,-0.004886,0.040317
2025-12-31T16:05:48.069927,10.073783,-0.009571,0.899701,0.075747,-0.032986,0.057421
2025-12-31T16:05:48.079927,10.140782,-0.167497,0.875773,0.085521,-0.048869,0.059864
2025-12-31T16:05:48.088927,10.183852,-0.296710,0.961914,0.120951,-0.051312,0.062308
2025-12-31T16:05:48.098927,10.284351,-0.267996,0.966700,0.167377,-0.043982,0.064751
2025-12-31T16:05:48.108927,10.293922,-0.162711,0.918843,0.196698,-0.029321,0.059864
2025-12-31T16:05:48.117927,10.193424,-0.181854,0.842273,0.210137,0.008552,0.056199
2025-12-31T16:05:48.127927,9.982855,-0.224925,0.780060,0.217467,0.047647,0.051312
2025-12-31T16:05:48.137927,9.710074,-0.488135,0.832702,0.218689,0.074525,0.042760
2025-12-31T16:05:48.146927,9.513862,-0.650847,0.736989,0.238237,0.070860,0.032986
2025-12-31T16:05:48.156927,9.346365,-0.880558,0.727418,0.290771,0.041538,0.015882
2025-12-31T16:05:48.165927,9.308079,-1.000199,0.650847,0.366519,0.002443,-0.001221
2025-12-31T16:05:48.175927,9.456434,-1.033699,0.665204,0.456927,-0.046425,-0.018325
2025-12-31T16:05:48.185927,9.748359,-0.851844,0.535992,0.542448,-0.087964,-0.029321
2025-12-31T16:05:48.194927,9.973284,-0.602991,0.555134,0.581543,-0.087964,-0.036651
2025-12-31T16:05:48.204927,10.112068,-0.440279,0.497707,0.575434,-0.036651,-0.032986
2025-12-31T16:05:48.213927,9.868000,-0.382851,0.507278,0.538783,0.041538,-0.020769
2025-12-31T16:05:48.223927,9.533005,-0.507278,0.607776,0.481361,0.096516,-0.017104
2025-12-31T16:05:48.233927,9.217152,-0.780060,0.698704,0.443488,0.118507,-0.028099
2025-12-31T16:05:48.242927,8.915657,-1.076770,0.885344,0.441044,0.114842,-0.045204
2025-12-31T16:05:48.252927,8.796015,-1.536192,1.043270,0.464257,0.086742,-0.058643
2025-12-31T16:05:48.262927,8.733802,-1.875972,0.971485,0.551000,0.025656,-0.080634
2025-12-31T16:05:48.271927,8.920442,-1.813759,0.760917,0.706160,-0.037873,-0.109955
2025-12-31T16:05:48.281927,9.150153,-1.272981,0.717846,0.842993,-0.065973,-0.119729
2025-12-31T16:05:48.290927,9.351150,-0.650847,0.770488,0.833220,-0.058643,-0.092851
2025-12-31T16:05:48.300927,9.303294,-0.473778,0.339780,0.708603,-0.039095,-0.047647
2025-12-31T16:05:48.310927,9.202795,-0.660419,0.263210,0.587652,-0.026878,-0.006108
2025-12-31T16:05:48.319927,9.054440,-0.914058,0.296710,0.533896,-0.024434,0.021991
2025-12-31T16:05:48.329927,8.743373,-1.091127,0.315852,0.525343,-0.028099,0.034208
2025-12-31T16:05:48.338927,8.575876,-1.124626,0.301495,0.542448,-0.023212,0.034208
2025-12-31T16:05:48.348927,8.355736,-1.148554,0.497707,0.569326,-0.020769,0.020769
2025-12-31T16:05:48.358927,8.159525,-1.234696,0.693918,0.570548,-0.032986,0.009773
2025-12-31T16:05:48.367927,7.934599,-1.416550,0.746560,0.575434,-0.043982,0.001221
2025-12-31T16:05:48.377927,7.795816,-1.603191,0.784845,0.643851,-0.024434,-0.009773
2025-12-31T16:05:48.387927,7.345965,-1.483550,0.837487,0.752585,0.030543,-0.024434
2025-12-31T16:05:48.396927,6.838686,-1.138983,0.928415,0.808785,0.086742,-0.029321
2025-12-31T16:05:48.406927,6.345765,-1.033699,0.847059,0.813672,0.142942,-0.024434
2025-12-31T16:05:48.415927,5.666203,-1.019342,0.894915,0.847880,0.221133,-0.007330
2025-12-31T16:05:48.425927,4.905286,-0.971485,0.909272,0.883310,0.295658,0.019547
2025-12-31T16:05:48.435927,4.048655,-1.014556,1.062413,0.921184,0.333532,0.053756
2025-12-31T16:05:48.444927,3.306880,-1.067198,1.134197,0.985936,0.317649,0.081855
2025-12-31T16:05:48.454927,2.742174,-1.115055,1.143769,1.070235,0.262671,0.130725
2025-12-31T16:05:48.463927,2.277967,-1.225125,1.344766,1.152091,0.171042,0.186924
2025-12-31T16:05:48.473927,2.143969,-1.402194,1.502692,1.236390,0.059864,0.249232
2025-12-31T16:05:48.483927,2.230110,-1.689332,1.569691,1.328020,-0.065973,0.315206
2025-12-31T16:05:48.492927,2.828316,-2.163111,1.564905,1.417207,-0.212581,0.401949
2025-12-31T16:05:48.502927,3.766302,-2.469392,1.512263,1.497841,-0.331088,0.488692
2025-12-31T16:05:48.512927,4.862215,-2.555534,1.540977,1.566258,-0.348193,0.579100
2025-12-31T16:05:48.521927,5.699703,-2.258824,1.225125,1.665218,-0.262671,0.682947
2025-12-31T16:05:48.531927,6.183053,-1.488335,0.942772,1.677435,-0.130725,0.791681
2025-12-31T16:05:48.540927,6.403193,-0.990628,0.770488,1.512502,-0.003665,0.900415
2025-12-31T16:05:48.550927,6.589833,-0.808774,0.713061,1.281595,0.097738,1.006705
2025-12-31T16:05:48.560927,6.623332,-0.923629,0.679561,1.100778,0.196698,1.100778
2025-12-31T16:05:48.569927,6.608976,-0.923629,0.703489,0.983492,0.279776,1.144761
2025-12-31T16:05:48.579927,6.599404,-0.952343,0.861416,0.904080,0.344527,1.161865
2025-12-31T16:05:48.588927,6.599404,-0.784845,1.186840,0.857654,0.392175,1.169195
2025-12-31T16:05:48.598927,6.642475,-0.445065,1.392622,0.772133,0.427605,1.180191
2025-12-31T16:05:48.608927,6.752545,-0.339780,1.426122,0.581543,0.464257,1.225395
2025-12-31T16:05:48.617927,6.857829,-0.507278,1.287338,0.337197,0.499687,1.280373
2025-12-31T16:05:48.627927,6.929614,-0.937986,0.827916,0.116064,0.524122,1.324355
2025-12-31T16:05:48.637927,6.991827,-1.392622,0.387637,-0.046425,0.529009,1.351233
2025-12-31T16:05:48.646927,7.125825,-1.842473,0.133998,-0.157603,0.503352,1.348790
2025-12-31T16:05:48.656927,7.298108,-2.378465,0.076570,-0.174707,0.452040,1.303586
2025-12-31T16:05:48.665927,7.575676,-2.727817,0.162711,-0.102625,0.400727,1.242499
2025-12-31T16:05:48.675927,7.953742,-2.880958,0.521635,0.034208,0.378736,1.161865
2025-12-31T16:05:48.685927,8.216952,-2.761317,0.856630,0.218689,0.399505,1.059240
2025-12-31T16:05:48.694927,8.441878,-2.426322,1.162911,0.382401,0.456927,0.950506
2025-12-31T16:05:48.704927,8.303094,-1.866401,1.469193,0.423940,0.524122,0.869871
2025-12-31T16:05:48.713927,8.001598,-1.569691,1.627119,0.332310,0.561995,0.834441
2025-12-31T16:05:48.723927,7.747959,-1.459621,1.765903,0.149051,0.540004,0.836885
2025-12-31T16:05:48.733927,7.747959,-1.646261,1.679761,-0.062308,0.449596,0.855211
2025-12-31T16:05:48.742927,8.054240,-2.024327,1.545763,-0.237015,0.309097,0.874758
2025-12-31T16:05:48.752927,8.575876,-2.507678,1.349551,-0.331088,0.139277,0.869871
2025-12-31T16:05:48.762927,9.327222,-3.048455,1.205982,-0.331088,-0.029321,0.824667
2025-12-31T16:05:48.771927,10.389635,-3.675375,1.512263,-0.238237,-0.167377,0.761137
2025-12-31T16:05:48.781927,11.581261,-4.220939,2.134397,-0.096516,-0.272445,0.735481
2025-12-31T16:05:48.790927,12.734601,-4.417150,2.469392,0.048869,-0.311541,0.790459
2025-12-31T16:05:48.800927,13.734801,-4.211367,2.225325,0.149051,-0.255341,0.891863
2025-12-31T16:05:48.810927,14.304293,-3.708875,1.564905,0.124616,-0.107512,1.000597
2025-12-31T16:05:48.819927,14.591432,-3.393022,0.899701,-0.034208,0.073303,1.127656
2025-12-31T16:05:48.829927,14.639288,-3.574876,0.339780,-0.237015,0.216246,1.263269
2025-12-31T16:05:48.838927,14.691930,-4.158725,0.000000,-0.375071,0.283441,1.381776
2025-12-31T16:05:48.848927,14.749358,-5.034498,-0.157926,-0.392175,0.290771,1.475850
