Timestamp,Acceleration_X,Acceleration_Y,Acceleration_Z,Gyro_X,Gyro_Y,Gyro_Z
2025-12-31T15:13:32.978007,9.829715,-1.488335,0.866201,-0.039095,-0.046425,0.003665
2025-12-31T15:13:32.988007,9.858429,-1.579262,0.928415,-0.037873,-0.056199,-0.002443
2025-12-31T15:13:32.997007,9.877571,-1.497906,0.937986,-0.026878,-0.058643,-0.008552
2025-12-31T15:13:33.007007,9.872786,-1.584048,1.000199,-0.015882,-0.048869,-0.012217
2025-12-31T15:13:33.016007,9.834500,-1.593619,1.009771,0.000000,-0.035430,-0.010995
2025-12-31T15:13:33.026007,9.743573,-1.607976,0.942772,0.031764,-0.020769,-0.012217
2025-12-31T15:13:33.036007,9.671788,-1.550549,0.990628,0.054977,-0.019547,-0.010995
2025-12-31T15:13:33.045007,9.643075,-1.478764,1.043270,0.053756,-0.037873,-0.015882
2025-12-31T15:13:33.055007,9.662217,-1.349551,1.048056,0.042760,-0.053756,-0.012217
2025-12-31T15:13:33.065007,9.734002,-1.359123,1.129412,0.021991,-0.070860,-0.007330
2025-12-31T15:13:33.074007,9.781858,-1.450050,1.110269,-0.014660,-0.075747,-0.001221
2025-12-31T15:13:33.084007,9.887142,-1.598405,1.048056,-0.040317,-0.068416,0.003665
2025-12-31T15:13:33.093007,9.925428,-1.588834,1.014556,-0.036651,-0.051312,0.008552
2025-12-31T15:13:33.103007,9.868000,-1.603191,1.000199,-0.018325,-0.030543,0.010995
2025-12-31T15:13:33.113007,9.810572,-1.660618,1.048056,0.002443,-0.015882,0.007330
2025-12-31T15:13:33.122007,9.690931,-1.612762,1.062413,0.017104,-0.010995,0.002443
2025-12-31T15:13:33.132007,9.647860,-1.540977,1.043270,0.025656,-0.014660,0.002443
2025-12-31T15:13:33.141007,9.657432,-1.512263,1.076770,0.018325,-0.018325,0.006108
2025-12-31T15:13:33.151007,9.724431,-1.445264,1.105484,0.003665,-0.029321,0.006108
2025-12-31T15:13:33.161007,9.695717,-1.440479,1.052841,-0.018325,-0.043982,0.010995
2025-12-31T15:13:33.170007,9.796215,-1.459621,1.024128,-0.041538,-0.054977,0.019547
2025-12-31T15:13:33.180007,9.801001,-1.536192,1.091127,-0.051312,-0.057421,0.020769
2025-12-31T15:13:33.190007,9.887142,-1.622333,1.057627,-0.045204,-0.048869,0.024434
2025-12-31T15:13:33.199007,9.920642,-1.612762,1.057627,-0.026878,-0.034208,0.024434
2025-12-31T15:13:33.209007,9.920642,-1.646261,0.981057,0.000000,-0.020769,0.018325
2025-12-31T15:13:33.218007,9.839286,-1.607976,1.004985,0.024434,-0.010995,0.010995
2025-12-31T15:13:33.228007,9.753144,-1.617548,1.014556,0.042760,-0.004886,0.014660
2025-12-31T15:13:33.238007,9.738787,-1.445264,1.052841,0.043982,-0.008552,0.009773
2025-12-31T15:13:33.247007,9.734002,-1.416550,1.009771,0.032986,-0.014660,0.008552
2025-12-31T15:13:33.257007,9.710074,-1.373480,1.086341,0.006108,-0.021991,0.018325
2025-12-31T15:13:33.266007,9.714859,-1.430907,1.119840,-0.025656,-0.030543,0.030543
2025-12-31T15:13:33.276007,9.791430,-1.531406,1.048056,-0.046425,-0.037873,0.037873
2025-12-31T15:13:33.286007,9.786644,-1.564905,1.033699,-0.037873,-0.036651,0.037873
2025-12-31T15:13:33.295007,9.820143,-1.526620,0.981057,-0.020769,-0.026878,0.037873
2025-12-31T15:13:33.305007,9.801001,-1.579262,0.976271,-0.001221,-0.017104,0.034208
2025-12-31T15:13:33.315007,9.801001,-1.478764,1.000199,0.014660,-0.007330,0.031764
2025-12-31T15:13:33.324007,9.805787,-1.450050,1.062413,0.018325,-0.008552,0.030543
2025-12-31T15:13:33.334007,9.767501,-1.450050,0.990628,0.020769,-0.010995,0.025656
2025-12-31T15:13:33.343007,9.781858,-1.344766,0.990628,0.012217,-0.015882,0.020769
2025-12-31T15:13:33.353007,9.810572,-1.354337,0.981057,-0.009773,-0.023212,0.017104
2025-12-31T15:13:33.363007,9.824929,-1.435693,0.923629,-0.024434,-0.018325,0.024434
2025-12-31T15:13:33.372007,9.863214,-1.469193,0.923629,-0.029321,-0.013439,0.031764
2025-12-31T15:13:33.382007,9.796215,-1.488335,0.923629,-0.023212,-0.012217,0.030543
2025-12-31T15:13:33.391007,9.805787,-1.478764,0.971485,-0.010995,-0.012217,0.034208
2025-12-31T15:13:33.401007,9.772287,-1.497906,1.024128,-0.004886,-0.012217,0.035430
2025-12-31T15:13:33.411007,9.724431,-1.488335,0.961914,0.003665,-0.013439,0.035430
2025-12-31T15:13:33.420007,9.734002,-1.402194,1.033699,0.009773,-0.017104,0.030543
2025-12-31T15:13:33.430007,9.734002,-1.421336,1.000199,0.012217,-0.020769,0.020769
2025-12-31T15:13:33.440007,9.762716,-1.277767,0.942772,0.007330,-0.020769,0.018325
2025-12-31T15:13:33.449007,9.757930,-1.378265,1.009771,-0.004886,-0.018325,0.020769
2025-12-31T15:13:33.459007,9.762716,-1.373480,0.990628,-0.013439,-0.018325,0.023212
2025-12-31T15:13:33.468007,9.767501,-1.368694,0.952343,-0.020769,-0.021991,0.019547
2025-12-31T15:13:33.478007,9.786644,-1.406979,1.004985,-0.028099,-0.025656,0.017104
2025-12-31T15:13:33.488007,9.796215,-1.411765,0.961914,-0.029321,-0.028099,0.017104
2025-12-31T15:13:33.497007,9.824929,-1.416550,0.981057,-0.021991,-0.026878,0.019547
2025-12-31T15:13:33.507007,9.815358,-1.493121,0.995414,-0.015882,-0.024434,0.018325
2025-12-31T15:13:33.516007,9.815358,-1.454836,0.971485,-0.014660,-0.019547,0.014660
2025-12-31T15:13:33.526007,9.781858,-1.406979,0.937986,-0.007330,-0.013439,0.015882
2025-12-31T15:13:33.536007,9.729216,-1.387837,0.909272,-0.006108,-0.020769,0.009773
2025-12-31T15:13:33.545007,9.762716,-1.402194,0.933200,-0.013439,-0.025656,0.003665
2025-12-31T15:13:33.555007,9.714859,-1.440479,0.947557,-0.015882,-0.031764,0.002443
2025-12-31T15:13:33.565007,9.748359,-1.450050,0.966700,-0.014660,-0.037873,0.004886
2025-12-31T15:13:33.574007,9.781858,-1.426122,0.909272,-0.012217,-0.043982,0.001221
2025-12-31T15:13:33.584007,9.820143,-1.473978,0.947557,-0.007330,-0.051312,-0.001221
2025-12-31T15:13:33.593007,9.925428,-1.406979,0.947557,-0.003665,-0.048869,-0.004886
2025-12-31T15:13:33.603007,9.911071,-1.416550,1.028913,-0.007330,-0.031764,-0.002443
2025-12-31T15:13:33.613007,9.853643,-1.416550,1.028913,-0.010995,-0.009773,0.004886
2025-12-31T15:13:33.622007,9.724431,-1.459621,0.971485,-0.015882,0.003665,0.012217
2025-12-31T15:13:33.632007,9.671788,-1.473978,1.024128,-0.017104,-0.002443,0.012217
2025-12-31T15:13:33.641007,9.566504,-1.512263,1.038485,-0.023212,-0.021991,0.008552
2025-12-31T15:13:33.651007,9.647860,-1.406979,0.957129,-0.024434,-0.048869,0.002443
2025-12-31T15:13:33.661007,9.805787,-1.478764,0.957129,-0.028099,-0.075747,-0.008552
2025-12-31T15:13:33.670007,9.915856,-1.473978,1.076770,-0.026878,-0.078190,-0.012217
2025-12-31T15:13:33.680007,10.025926,-1.478764,1.000199,-0.019547,-0.054977,-0.008552
2025-12-31T15:13:33.690007,9.982855,-1.550549,0.976271,-0.008552,-0.021991,-0.009773
2025-12-31T15:13:33.699007,9.877571,-1.531406,0.890130,-0.002443,0.004886,-0.004886
2025-12-31T15:13:33.709007,9.767501,-1.349551,0.995414,0.007330,0.012217,-0.001221
2025-12-31T15:13:33.718007,9.676574,-1.435693,1.014556,0.006108,0.000000,-0.007330
2025-12-31T15:13:33.728007,9.657432,-1.517049,1.091127,-0.002443,-0.023212,-0.009773
2025-12-31T15:13:33.738007,9.714859,-1.483550,1.048056,0.000000,-0.042760,-0.018325
2025-12-31T15:13:33.747007,9.815358,-1.483550,1.105484,0.010995,-0.047647,-0.017104
2025-12-31T15:13:33.757007,9.810572,-1.454836,1.043270,0.014660,-0.041538,-0.017104
2025-12-31T15:13:33.766007,9.848857,-1.406979,1.119840,0.008552,-0.025656,-0.010995
2025-12-31T15:13:33.776007,9.753144,-1.378265,1.048056,0.001221,-0.010995,-0.002443
2025-12-31T15:13:33.786007,9.719645,-1.421336,1.091127,-0.010995,-0.009773,0.001221
2025-12-31T15:13:33.795007,9.647860,-1.397408,1.019342,-0.025656,-0.009773,0.003665
2025-12-31T15:13:33.805007,9.619146,-1.325623,1.024128,-0.040317,-0.020769,0.010995
2025-12-31T15:13:33.815007,9.705288,-1.402194,0.981057,-0.054977,-0.036651,0.009773
2025-12-31T15:13:33.824007,9.753144,-1.517049,0.985842,-0.058643,-0.051312,0.004886
2025-12-31T15:13:33.834007,9.791430,-1.641476,0.928415,-0.035430,-0.057421,0.003665
2025-12-31T15:13:33.843007,9.834500,-1.588834,0.995414,-0.004886,-0.047647,0.001221
2025-12-31T15:13:33.853007,9.868000,-1.564905,0.966700,0.020769,-0.029321,0.003665
2025-12-31T15:13:33.863007,9.858429,-1.536192,0.971485,0.039095,-0.021991,0.000000
2025-12-31T15:13:33.872007,9.834500,-1.473978,0.961914,0.048869,-0.021991,-0.001221
2025-12-31T15:13:33.882007,9.786644,-1.454836,1.014556,0.050090,-0.014660,0.004886
2025-12-31T15:13:33.891007,9.777073,-1.349551,0.976271,0.039095,-0.018325,0.007330
2025-12-31T15:13:33.901007,9.772287,-1.282552,0.981057,0.018325,-0.024434,0.013439
2025-12-31T15:13:33.911007,9.762716,-1.268195,0.985842,-0.018325,-0.030543,0.019547
2025-12-31T15:13:33.920007,9.777073,-1.344766,1.000199,-0.056199,-0.032986,0.029321
2025-12-31T15:13:33.930007,9.753144,-1.473978,0.957129,-0.065973,-0.024434,0.035430
2025-12-31T15:13:33.940007,9.753144,-1.512263,1.024128,-0.056199,-0.024434,0.030543
2025-12-31T15:13:33.949007,9.690931,-1.564905,1.004985,-0.037873,-0.021991,0.024434
2025-12-31T15:13:33.959007,9.657432,-1.497906,0.923629,-0.006108,-0.025656,0.018325
2025-12-31T15:13:33.968007,9.705288,-1.483550,0.961914,0.024434,-0.039095,0.006108
2025-12-31T15:13:33.978007,9.762716,-1.426122,0.985842,0.036651,-0.047647,-0.002443
2025-12-31T15:13:33.988007,9.820143,-1.363908,0.966700,0.040317,-0.040317,-0.002443
2025-12-31T15:13:33.997007,9.858429,-1.344766,0.985842,0.029321,-0.032986,-0.003665
2025-12-31T15:13:34.007007,9.882357,-1.220339,0.933200,0.006108,-0.028099,0.009773
2025-12-31T15:13:34.016007,9.824929,-1.402194,0.894915,-0.018325,-0.028099,0.018325
2025-12-31T15:13:34.026007,9.839286,-1.320838,0.966700,-0.036651,-0.026878,0.015882
2025-12-31T15:13:34.036007,9.796215,-1.416550,1.014556,-0.048869,-0.026878,0.023212
2025-12-31T15:13:34.045007,9.820143,-1.435693,0.961914,-0.052534,-0.025656,0.025656
2025-12-31T15:13:34.055007,9.767501,-1.536192,0.942772,-0.041538,-0.023212,0.029321
2025-12-31T15:13:34.065007,9.772287,-1.526620,0.961914,-0.019547,-0.021991,0.023212
2025-12-31T15:13:34.074007,9.690931,-1.526620,0.961914,0.002443,-0.024434,0.014660
2025-12-31T15:13:34.084007,9.700502,-1.445264,0.928415,0.017104,-0.029321,0.009773
2025-12-31T15:13:34.093007,9.743573,-1.373480,0.971485,0.021991,-0.036651,0.008552
2025-12-31T15:13:34.103007,9.786644,-1.354337,1.004985,0.013439,-0.047647,0.003665
2025-12-31T15:13:34.113007,9.868000,-1.287338,0.971485,-0.004886,-0.050090,0.010995
2025-12-31T15:13:34.122007,9.906285,-1.272981,0.995414,-0.030543,-0.047647,0.014660
2025-12-31T15:13:34.132007,9.877571,-1.368694,0.947557,-0.051312,-0.036651,0.024434
2025-12-31T15:13:34.141007,9.896714,-1.440479,0.976271,-0.058643,-0.021991,0.031764
2025-12-31T15:13:34.151007,9.810572,-1.454836,0.976271,-0.051312,-0.012217,0.037873
2025-12-31T15:13:34.161007,9.729216,-1.493121,0.928415,-0.032986,-0.010995,0.039095
2025-12-31T15:13:34.170007,9.614361,-1.397408,0.947557,-0.013439,-0.017104,0.035430
2025-12-31T15:13:34.180007,9.614361,-1.397408,1.043270,0.004886,-0.030543,0.026878
2025-12-31T15:13:34.190007,9.695717,-1.330409,0.981057,0.007330,-0.043982,0.019547
2025-12-31T15:13:34.199007,9.748359,-1.301695,1.028913,-0.003665,-0.051312,0.012217
2025-12-31T15:13:34.209007,9.868000,-1.344766,0.995414,-0.017104,-0.056199,0.007330
2025-12-31T15:13:34.218007,9.911071,-1.339980,0.981057,-0.031764,-0.043982,0.009773
2025-12-31T15:13:34.228007,9.939785,-1.359123,1.014556,-0.037873,-0.036651,0.003665
2025-12-31T15:13:34.238007,9.911071,-1.387837,0.937986,-0.037873,-0.029321,0.007330
2025-12-31T15:13:34.247007,9.868000,-1.416550,1.014556,-0.035430,-0.024434,0.008552
2025-12-31T15:13:34.257007,9.829715,-1.440479,0.981057,-0.035430,-0.026878,0.008552
2025-12-31T15:13:34.266007,9.777073,-1.354337,0.961914,-0.036651,-0.020769,0.010995
2025-12-31T15:13:34.276007,9.762716,-1.464407,1.052841,-0.035430,-0.018325,0.009773
2025-12-31T15:13:34.286007,9.734002,-1.378265,0.957129,-0.031764,-0.023212,0.006108
2025-12-31T15:13:34.295007,9.695717,-1.450050,1.048056,-0.023212,-0.031764,-0.004886
2025-12-31T15:13:34.305007,9.671788,-1.430907,1.000199,-0.008552,-0.036651,-0.007330
2025-12-31T15:13:34.315007,9.734002,-1.450050,0.981057,0.003665,-0.039095,-0.012217
2025-12-31T15:13:34.324007,9.824929,-1.392622,1.062413,0.008552,-0.043982,-0.017104
2025-12-31T15:13:34.334007,9.834500,-1.406979,1.019342,0.007330,-0.037873,-0.012217
2025-12-31T15:13:34.343007,9.820143,-1.292124,1.024128,-0.003665,-0.029321,-0.017104
2025-12-31T15:13:34.353007,9.848857,-1.325623,1.024128,-0.021991,-0.021991,-0.018325
2025-12-31T15:13:34.363007,9.815358,-1.363908,1.028913,-0.032986,-0.017104,-0.020769
2025-12-31T15:13:34.372007,9.738787,-1.363908,1.052841,-0.054977,-0.010995,-0.017104
2025-12-31T15:13:34.382007,9.772287,-1.406979,0.990628,-0.056199,-0.010995,-0.020769
2025-12-31T15:13:34.391007,9.757930,-1.454836,1.000199,-0.041538,-0.007330,-0.026878
2025-12-31T15:13:34.401007,9.695717,-1.440479,1.038485,-0.029321,-0.004886,-0.023212
2025-12-31T15:13:34.411007,9.681360,-1.478764,0.957129,-0.021991,-0.006108,-0.018325
2025-12-31T15:13:34.420007,9.700502,-1.445264,0.937986,-0.015882,-0.020769,-0.019547
2025-12-31T15:13:34.430007,9.753144,-1.483550,0.870987,-0.002443,-0.041538,-0.021991
2025-12-31T15:13:34.440007,9.858429,-1.469193,0.961914,0.015882,-0.056199,-0.029321
2025-12-31T15:13:34.449007,9.978070,-1.406979,0.976271,0.026878,-0.052534,-0.037873
2025-12-31T15:13:34.459007,10.021141,-1.330409,0.961914,0.021991,-0.034208,-0.035430
2025-12-31T15:13:34.468007,10.001998,-1.268195,1.048056,0.004886,-0.006108,-0.032986
2025-12-31T15:13:34.478007,9.920642,-1.292124,0.995414,-0.017104,0.013439,-0.024434
2025-12-31T15:13:34.488007,9.824929,-1.325623,0.861416,-0.040317,0.015882,-0.019547
2025-12-31T15:13:34.497007,9.714859,-1.440479,0.947557,-0.046425,-0.002443,-0.023212
2025-12-31T15:13:34.507007,9.714859,-1.526620,0.981057,-0.041538,-0.020769,-0.024434
2025-12-31T15:13:34.516007,9.748359,-1.483550,0.971485,-0.021991,-0.035430,-0.024434
2025-12-31T15:13:34.526007,9.844072,-1.512263,1.024128,0.004886,-0.040317,-0.026878
2025-12-31T15:13:34.536007,9.882357,-1.507478,0.981057,0.036651,-0.037873,-0.034208
2025-12-31T15:13:34.545007,9.915856,-1.426122,0.995414,0.061086,-0.019547,-0.030543
2025-12-31T15:13:34.555007,9.839286,-1.244267,1.000199,0.061086,0.004886,-0.020769
2025-12-31T15:13:34.565007,9.714859,-1.182054,1.100698,0.043982,0.017104,-0.014660
2025-12-31T15:13:34.574007,9.676574,-1.167697,1.033699,0.002443,0.014660,-0.010995
2025-12-31T15:13:34.584007,9.566504,-1.253839,1.019342,-0.039095,-0.001221,-0.009773
2025-12-31T15:13:34.593007,9.628718,-1.258624,1.033699,-0.064751,-0.023212,-0.009773
2025-12-31T15:13:34.603007,9.734002,-1.373480,0.952343,-0.079412,-0.042760,-0.010995
2025-12-31T15:13:34.613007,9.882357,-1.512263,0.894915,-0.070860,-0.057421,-0.018325
2025-12-31T15:13:34.622007,9.911071,-1.478764,0.952343,-0.043982,-0.046425,-0.020769
2025-12-31T15:13:34.632007,10.030712,-1.540977,0.961914,-0.014660,-0.028099,-0.018325
2025-12-31T15:13:34.641007,9.925428,-1.469193,0.880558,0.017104,-0.004886,-0.015882
2025-12-31T15:13:34.651007,9.868000,-1.435693,0.894915,0.041538,0.017104,-0.010995
2025-12-31T15:13:34.661007,9.791430,-1.311266,0.981057,0.046425,0.025656,-0.008552
2025-12-31T15:13:34.670007,9.633503,-1.339980,0.961914,0.040317,0.018325,-0.004886
2025-12-31T15:13:34.680007,9.552147,-1.263410,0.923629,0.024434,-0.007330,-0.007330
2025-12-31T15:13:34.690007,9.580861,-1.263410,0.885344,0.004886,-0.039095,-0.009773
2025-12-31T15:13:34.699007,9.710074,-1.311266,0.952343,-0.012217,-0.058643,-0.014660
2025-12-31T15:13:34.709007,9.805787,-1.387837,0.966700,-0.018325,-0.065973,-0.019547
2025-12-31T15:13:34.718007,9.891928,-1.387837,0.966700,-0.015882,-0.054977,-0.018325
2025-12-31T15:13:34.728007,9.934999,-1.459621,0.885344,-0.009773,-0.042760,-0.017104
2025-12-31T15:13:34.738007,9.911071,-1.445264,0.861416,-0.001221,-0.023212,-0.010995
2025-12-31T15:13:34.747007,9.863214,-1.392622,0.909272,0.009773,-0.014660,-0.010995
2025-12-31T15:13:34.757007,9.786644,-1.378265,0.928415,0.019547,-0.012217,-0.009773
2025-12-31T15:13:34.766007,9.738787,-1.383051,1.004985,0.024434,-0.019547,-0.009773
2025-12-31T15:13:34.776007,9.719645,-1.426122,0.995414,0.029321,-0.034208,-0.008552
2025-12-31T15:13:34.786007,9.729216,-1.378265,0.894915,0.042760,-0.048869,-0.004886
2025-12-31T15:13:34.795007,9.729216,-1.387837,0.923629,0.058643,-0.057421,-0.003665
2025-12-31T15:13:34.805007,9.824929,-1.287338,0.952343,0.063529,-0.054977,-0.001221
2025-12-31T15:13:34.815007,9.824929,-1.258624,0.961914,0.057421,-0.043982,0.003665
2025-12-31T15:13:34.824007,9.891928,-1.210768,0.990628,0.043982,-0.042760,0.003665
2025-12-31T15:13:34.834007,9.781858,-1.258624,1.043270,0.023212,-0.039095,0.004886
2025-12-31T15:13:34.843007,9.829715,-1.196411,0.952343,0.008552,-0.029321,0.013439
2025-12-31T15:13:34.853007,9.824929,-1.263410,1.019342,0.000000,-0.026878,0.010995
2025-12-31T15:13:34.863007,9.796215,-1.253839,0.981057,-0.003665,-0.036651,0.008552
2025-12-31T15:13:34.872007,9.848857,-1.249053,1.028913,-0.003665,-0.040317,0.008552
2025-12-31T15:13:34.882007,9.853643,-1.292124,1.009771,0.003665,-0.035430,0.010995
2025-12-31T15:13:34.891007,9.868000,-1.253839,1.014556,0.013439,-0.026878,0.015882
2025-12-31T15:13:34.901007,9.839286,-1.205982,0.933200,0.018325,-0.017104,0.021991
2025-12-31T15:13:34.911007,9.853643,-1.158126,0.971485,0.008552,-0.014660,0.021991
2025-12-31T15:13:34.920007,9.815358,-1.143769,0.976271,-0.001221,-0.018325,0.026878
2025-12-31T15:13:34.930007,9.781858,-1.138983,0.995414,-0.004886,-0.030543,0.020769
2025-12-31T15:13:34.940007,9.796215,-1.158126,1.000199,-0.006108,-0.041538,0.018325
2025-12-31T15:13:34.949007,9.877571,-1.153340,0.990628,-0.004886,-0.046425,0.014660
2025-12-31T15:13:34.959007,9.920642,-1.205982,0.985842,-0.004886,-0.041538,0.015882
2025-12-31T15:13:34.968007,9.920642,-1.148554,1.014556,0.000000,-0.028099,0.015882
2025-12-31T15:13:34.978007,9.868000,-1.124626,1.071984,0.001221,-0.012217,0.015882
2025-12-31T15:13:34.988007,9.820143,-1.105484,1.028913,-0.001221,0.001221,0.019547
2025-12-31T15:13:34.997007,9.777073,-1.071984,1.014556,-0.008552,0.004886,0.012217
2025-12-31T15:13:35.007007,9.710074,-1.086341,1.009771,-0.018325,-0.003665,0.007330
2025-12-31T15:13:35.016007,9.719645,-1.134197,1.067198,-0.026878,-0.018325,0.003665
2025-12-31T15:13:35.026007,9.757930,-1.167697,1.038485,-0.029321,-0.031764,-0.003665
2025-12-31T15:13:35.036007,9.801001,-1.210768,1.000199,-0.029321,-0.041538,-0.012217
2025-12-31T15:13:35.045007,9.868000,-1.249053,0.947557,-0.021991,-0.052534,-0.018325
2025-12-31T15:13:35.055007,9.930213,-1.268195,0.990628,-0.002443,-0.052534,-0.021991
2025-12-31T15:13:35.065007,10.035497,-1.220339,0.952343,0.012217,-0.042760,-0.017104
2025-12-31T15:13:35.074007,10.068997,-1.167697,0.937986,0.018325,-0.024434,-0.012217
2025-12-31T15:13:35.084007,10.025926,-1.086341,0.961914,0.019547,-0.003665,-0.010995
2025-12-31T15:13:35.093007,9.920642,-1.110269,0.957129,0.002443,0.010995,-0.004886
2025-12-31T15:13:35.103007,9.839286,-1.091127,0.990628,-0.021991,0.021991,0.006108
2025-12-31T15:13:35.113007,9.686145,-1.105484,0.961914,-0.028099,0.021991,0.004886
2025-12-31T15:13:35.122007,9.662217,-1.119840,1.004985,-0.029321,0.014660,0.000000
2025-12-31T15:13:35.132007,9.561719,-1.229910,1.000199,-0.034208,-0.002443,-0.006108
2025-12-31T15:13:35.141007,9.528219,-1.244267,1.004985,-0.021991,-0.024434,-0.023212
2025-12-31T15:13:35.151007,9.580861,-1.244267,1.048056,-0.003665,-0.034208,-0.037873
2025-12-31T15:13:35.161007,9.609575,-1.292124,1.048056,0.007330,-0.039095,-0.046425
2025-12-31T15:13:35.170007,9.681360,-1.253839,0.957129,0.020769,-0.043982,-0.053756
2025-12-31T15:13:35.180007,9.724431,-1.225125,1.062413,0.028099,-0.045204,-0.058643
2025-12-31T15:13:35.190007,9.848857,-1.201196,0.909272,0.023212,-0.045204,-0.058643
2025-12-31T15:13:35.199007,9.906285,-1.244267,0.890130,0.014660,-0.043982,-0.058643
2025-12-31T15:13:35.209007,10.045069,-1.201196,0.837487,0.002443,-0.043982,-0.058643
2025-12-31T15:13:35.218007,10.045069,-1.253839,0.866201,-0.018325,-0.040317,-0.053756
2025-12-31T15:13:35.228007,10.102497,-1.272981,0.899701,-0.019547,-0.026878,-0.045204
2025-12-31T15:13:35.238007,9.982855,-1.272981,0.928415,-0.013439,-0.003665,-0.042760
2025-12-31T15:13:35.247007,9.796215,-1.349551,0.890130,-0.008552,0.009773,-0.035430
2025-12-31T15:13:35.257007,9.714859,-1.316052,0.966700,0.001221,0.006108,-0.036651
2025-12-31T15:13:35.266007,9.556933,-1.339980,0.914058,0.021991,-0.012217,-0.039095
2025-12-31T15:13:35.276007,9.504291,-1.426122,0.981057,0.045204,-0.041538,-0.047647
2025-12-31T15:13:35.286007,9.566504,-1.450050,0.981057,0.078190,-0.068416,-0.056199
2025-12-31T15:13:35.295007,9.705288,-1.459621,1.028913,0.111177,-0.086742,-0.058643
2025-12-31T15:13:35.305007,9.882357,-1.349551,0.985842,0.138055,-0.095294,-0.063529
2025-12-31T15:13:35.315007,10.045069,-1.335195,0.985842,0.156381,-0.083077,-0.053756
2025-12-31T15:13:35.324007,10.035497,-1.124626,1.038485,0.155159,-0.058643,-0.046425
2025-12-31T15:13:35.334007,9.968498,-1.067198,1.071984,0.128281,-0.025656,-0.028099
2025-12-31T15:13:35.343007,9.863214,-1.004985,1.143769,0.089186,-0.009773,-0.009773
2025-12-31T15:13:35.353007,9.777073,-1.086341,1.124626,0.047647,-0.013439,0.000000
2025-12-31T15:13:35.363007,9.786644,-1.153340,1.071984,0.017104,-0.039095,0.004886
2025-12-31T15:13:35.372007,9.829715,-1.287338,1.153340,0.010995,-0.057421,0.006108
2025-12-31T15:13:35.382007,9.954142,-1.335195,1.062413,0.032986,-0.065973,0.008552
2025-12-31T15:13:35.391007,10.025926,-1.263410,1.148554,0.059864,-0.064751,0.006108
2025-12-31T15:13:35.401007,10.145567,-1.177268,1.062413,0.084299,-0.048869,0.009773
2025-12-31T15:13:35.411007,10.121639,-1.071984,1.162911,0.096516,-0.021991,0.014660
2025-12-31T15:13:35.420007,10.121639,-0.957129,1.225125,0.081855,0.004886,0.023212
2025-12-31T15:13:35.430007,9.925428,-0.885344,1.215553,0.058643,0.031764,0.036651
2025-12-31T15:13:35.440007,9.863214,-0.875773,1.282552,0.028099,0.036651,0.039095
2025-12-31T15:13:35.449007,9.786644,-0.837487,1.177268,-0.008552,0.021991,0.041538
2025-12-31T15:13:35.459007,9.767501,-0.894915,1.177268,-0.030543,0.007330,0.046425
2025-12-31T15:13:35.468007,9.834500,-1.052841,1.191625,-0.031764,-0.006108,0.041538
2025-12-31T15:13:35.478007,9.844072,-1.038485,1.110269,-0.017104,-0.014660,0.030543
2025-12-31T15:13:35.488007,9.934999,-0.990628,1.124626,0.014660,-0.004886,0.026878
2025-12-31T15:13:35.497007,9.949356,-0.904486,1.186840,0.052534,0.007330,0.015882
2025-12-31T15:13:35.507007,9.992427,-0.775274,1.239482,0.076969,0.026878,0.004886
2025-12-31T15:13:35.516007,10.001998,-0.655633,1.263410,0.075747,0.035430,-0.010995
2025-12-31T15:13:35.526007,9.915856,-0.559920,1.263410,0.057421,0.041538,-0.023212
2025-12-31T15:13:35.536007,9.915856,-0.583848,1.249053,0.024434,0.041538,-0.035430
2025-12-31T15:13:35.545007,9.939785,-0.593420,1.277767,-0.010995,0.042760,-0.043982
2025-12-31T15:13:35.555007,9.906285,-0.602991,1.277767,-0.041538,0.047647,-0.057421
2025-12-31T15:13:35.565007,9.925428,-0.669990,1.186840,-0.054977,0.051312,-0.072082
2025-12-31T15:13:35.574007,9.939785,-0.689132,1.244267,-0.050090,0.058643,-0.081855
2025-12-31T15:13:35.584007,9.834500,-0.665204,1.234696,-0.041538,0.068416,-0.094073
2025-12-31T15:13:35.593007,9.753144,-0.775274,1.258624,-0.020769,0.080634,-0.107512
2025-12-31T15:13:35.603007,9.662217,-0.736989,1.296909,0.006108,0.086742,-0.128281
2025-12-31T15:13:35.613007,9.566504,-0.751346,1.225125,0.030543,0.080634,-0.150272
2025-12-31T15:13:35.622007,9.523433,-0.760917,1.201196,0.052534,0.058643,-0.178372
2025-12-31T15:13:35.632007,9.595218,-0.727418,1.210768,0.080634,0.036651,-0.212581
2025-12-31T15:13:35.641007,9.662217,-0.655633,1.205982,0.102625,0.014660,-0.245567
2025-12-31T15:13:35.651007,9.710074,-0.617348,1.177268,0.114842,0.001221,-0.272445
2025-12-31T15:13:35.661007,9.863214,-0.607776,1.201196,0.123394,-0.003665,-0.299323
2025-12-31T15:13:35.670007,9.954142,-0.626919,1.272981,0.124616,0.001221,-0.321315
2025-12-31T15:13:35.680007,9.973284,-0.559920,1.225125,0.114842,0.018325,-0.329867
2025-12-31T15:13:35.690007,9.992427,-0.569491,1.225125,0.109955,0.040317,-0.342084
2025-12-31T15:13:35.699007,9.834500,-0.655633,1.196411,0.109955,0.061086,-0.348193
2025-12-31T15:13:35.709007,9.710074,-0.703489,1.258624,0.111177,0.063529,-0.354301
2025-12-31T15:13:35.718007,9.614361,-0.794417,1.253839,0.128281,0.057421,-0.364075
2025-12-31T15:13:35.728007,9.480363,-0.660419,1.225125,0.153938,0.053756,-0.365297
2025-12-31T15:13:35.738007,9.293722,-0.669990,1.287338,0.168598,0.048869,-0.368962
2025-12-31T15:13:35.747007,9.217152,-0.646062,1.272981,0.172263,0.040317,-0.379958
2025-12-31T15:13:35.757007,9.097511,-0.641276,1.277767,0.168598,0.039095,-0.379958
2025-12-31T15:13:35.766007,8.920442,-0.722632,1.249053,0.174707,0.039095,-0.383623
2025-12-31T15:13:35.776007,8.772087,-0.856630,1.354337,0.189368,0.032986,-0.393397
2025-12-31T15:13:35.786007,8.575876,-0.971485,1.454836,0.212581,0.015882,-0.406836
2025-12-31T15:13:35.795007,8.499305,-1.033699,1.550549,0.246789,0.001221,-0.417831
2025-12-31T15:13:35.805007,8.537591,-1.177268,1.402194,0.268780,-0.013439,-0.423940
2025-12-31T15:13:35.815007,8.547162,-1.201196,1.277767,0.296880,-0.029321,-0.431270
2025-12-31T15:13:35.824007,8.638089,-1.191625,1.320838,0.313984,-0.040317,-0.421496
2025-12-31T15:13:35.834007,8.681160,-1.191625,1.268195,0.300545,-0.035430,-0.403170
2025-12-31T15:13:35.843007,8.662017,-1.234696,1.497906,0.260228,-0.010995,-0.375071
2025-12-31T15:13:35.853007,8.451449,-1.316052,1.574477,0.217467,0.017104,-0.329867
2025-12-31T15:13:35.863007,8.245666,-1.497906,1.732403,0.180816,0.034208,-0.282219
2025-12-31T15:13:35.872007,8.126025,-1.646261,1.832902,0.136833,0.024434,-0.238237
2025-12-31T15:13:35.882007,7.968099,-1.966900,1.536192,0.103847,0.006108,-0.194255
2025-12-31T15:13:35.891007,7.891528,-2.421536,1.392622,0.182037,0.008552,-0.167377
2025-12-31T15:13:35.901007,7.762316,-2.679961,1.598405,0.349414,0.001221,-0.164933
2025-12-31T15:13:35.911007,7.747959,-2.641676,1.588834,0.518013,-0.018325,-0.155159
2025-12-31T15:13:35.920007,7.910671,-2.455035,1.579262,0.679282,-0.026878,-0.147829
2025-12-31T15:13:35.930007,8.063812,-2.038684,1.641476,0.810007,-0.017104,-0.129503
2025-12-31T15:13:35.940007,8.145168,-1.540977,1.770688,0.829554,0.045204,-0.065973
2025-12-31T15:13:35.949007,8.001598,-0.933200,1.875972,0.692721,0.160046,0.041538
2025-12-31T15:13:35.959007,7.489534,-0.669990,1.962114,0.445931,0.288328,0.179594
2025-12-31T15:13:35.968007,6.709474,-0.770488,2.086541,0.166155,0.355523,0.298102
2025-12-31T15:13:35.978007,6.116054,-1.158126,2.048256,-0.073303,0.298102,0.371405
2025-12-31T15:13:35.988007,5.924628,-1.823330,2.201396,-0.213802,0.122173,0.387288
2025-12-31T15:13:35.997007,6.364908,-2.560320,1.756331,-0.279776,-0.108733,0.381179
2025-12-31T15:13:36.007007,7.116254,-3.555734,1.167697,-0.167377,-0.262671,0.360410
2025-12-31T15:13:36.016007,7.872386,-4.144368,1.024128,0.202807,-0.262671,0.315206
2025-12-31T15:13:36.026007,8.355736,-4.096512,0.741775,0.659734,-0.114842,0.307876
2025-12-31T15:13:36.036007,8.121239,-3.560520,0.827916,1.062905,0.133168,0.361632
2025-12-31T15:13:36.045007,7.494320,-2.435893,1.057627,1.309694,0.393397,0.476474
2025-12-31T15:13:36.055007,6.403193,-1.172483,1.196411,1.255938,0.586430,0.642630
2025-12-31T15:13:36.065007,5.240281,-0.239282,1.579262,0.899193,0.657290,0.821002
2025-12-31T15:13:36.074007,4.331008,0.071784,1.832902,0.354301,0.576656,0.988379
2025-12-31T15:13:36.084007,3.756731,-0.315852,2.067398,-0.230907,0.372627,1.125213
2025-12-31T15:13:36.093007,3.895515,-1.057627,1.919043,-0.729372,0.090408,1.204625
2025-12-31T15:13:36.103007,4.694717,-2.244467,1.177268,-1.071457,-0.201585,1.262047
2025-12-31T15:13:36.113007,5.919843,-3.550948,0.574277,-1.133765,-0.394618,1.291368
2025-12-31T15:13:36.122007,7.178467,-4.589433,0.076570,-0.900415,-0.452040,1.302364
2025-12-31T15:13:36.132007,8.264809,-5.120640,-0.373280,-0.491135,-0.398284,1.319468
2025-12-31T15:13:36.141007,8.915657,-5.120640,-0.555134,-0.002443,-0.262671,1.343903
2025-12-31T15:13:36.151007,9.183653,-4.699503,-0.200997,0.460592,-0.106290,1.384220
2025-12-31T15:13:36.161007,9.087940,-3.991228,-0.009571,0.794124,0.068416,1.484402
2025-12-31T15:13:36.170007,8.623732,-3.163311,0.009571,0.957836,0.280997,1.629788
2025-12-31T15:13:36.180007,7.848458,-2.483749,0.478564,0.993266,0.459370,1.788613
2025-12-31T15:13:36.190007,6.963113,-1.895115,0.856630,0.900415,0.516791,1.931555
2025-12-31T15:13:36.199007,6.350551,-1.406979,0.995414,0.675616,0.463035,2.052506
2025-12-31T15:13:36.209007,6.001199,-1.253839,1.129412,0.379958,0.329867,2.138027
2025-12-31T15:13:36.218007,6.096911,-1.363908,1.306481,0.074525,0.118507,2.196670
2025-12-31T15:13:36.228007,6.795616,-1.808973,1.497906,-0.219911,-0.171042,2.218662
2025-12-31T15:13:36.238007,8.106882,-2.555534,1.569691,-0.437379,-0.469144,2.222327
2025-12-31T15:13:36.247007,9.925428,-3.436093,1.689332,-0.482583,-0.670729,2.199114
2025-12-31T15:13:36.257007,11.729616,-4.206582,1.646261,-0.375071,-0.673173,2.196670
2025-12-31T15:13:36.266007,13.179666,-4.613361,1.430907,-0.185702,-0.405614,2.268753
2025-12-31T15:13:36.276007,13.519447,-4.814359,1.402194,0.034208,0.089186,2.436130
2025-12-31T15:13:36.286007,12.667602,-4.589433,1.339980,0.244346,0.616973,2.646267
2025-12-31T15:13:36.295007,11.088339,-4.067798,1.665404,0.342084,0.954171,2.792875
2025-12-31T15:13:36.305007,9.509077,-3.771088,1.938186,0.285884,1.004262,2.850296
2025-12-31T15:13:36.315007,8.312665,-3.694518,1.890329,0.161268,0.811228,2.839301
2025-12-31T15:13:36.324007,7.896314,-4.096512,2.057827,0.014660,0.477696,2.772105
2025-12-31T15:13:36.334007,8.154739,-4.800002,2.062613,-0.124616,0.116064,2.687806
2025-12-31T15:13:36.343007,8.896514,-5.685346,1.832902,-0.185702,-0.146607,2.621833
2025-12-31T15:13:36.353007,9.743573,-6.570690,1.751546,-0.112399,-0.240680,2.557081
2025-12-31T15:13:36.363007,10.198209,-7.130611,1.971685,0.070860,-0.175929,2.514320
2025-12-31T15:13:36.372007,10.241280,-7.499106,1.962114,0.288328,0.013439,2.514320
2025-12-31T15:13:36.382007,9.734002,-7.532605,1.612762,0.487470,0.234572,2.555859
2025-12-31T15:13:36.391007,8.810372,-7.465606,1.550549,0.629191,0.392175,2.612059
2025-12-31T15:13:36.401007,7.953742,-7.307680,1.440479,0.671951,0.425162,2.660928
2025-12-31T15:13:36.411007,7.216752,-7.322037,1.244267,0.629191,0.362853,2.696358
2025-12-31T15:13:36.420007,6.637689,-7.350751,1.076770,0.507018,0.240680,2.700023
2025-12-31T15:13:36.430007,6.518048,-7.676174,0.851844,0.320093,0.020769,2.682919
2025-12-31T15:13:36.440007,6.920042,-8.145168,0.780060,0.158824,-0.302989,2.632828
2025-12-31T15:13:36.449007,7.948956,-8.781658,1.536192,0.094073,-0.626747,2.520429
2025-12-31T15:13:36.459007,9.446863,-9.451649,2.344966,0.106290,-0.823446,2.409251
2025-12-31T15:13:36.468007,10.801201,-10.088140,2.364108,0.197920,-0.767246,2.401921
2025-12-31T15:13:36.478007,11.504691,-10.523633,1.593619,0.405614,-0.411723,2.517985
2025-12-31T15:13:36.488007,10.987841,-10.384850,0.602991,0.686612,0.047647,2.676810
2025-12-31T15:13:36.497007,9.638289,-9.920642,0.349352,0.950506,0.397062,2.784323
2025-12-31T15:13:36.507007,7.843672,-9.494720,0.957129,1.106887,0.521678,2.822196
2025-12-31T15:13:36.516007,6.403193,-9.001798,1.454836,1.126435,0.438601,2.819753
2025-12-31T15:13:36.526007,5.479563,-8.671589,1.842473,1.080009,0.207694,2.763553
2025-12-31T15:13:36.536007,5.340780,-8.705088,2.770888,1.022588,-0.102625,2.610837
2025-12-31T15:13:36.545007,6.096911,-9.073583,3.460021,0.860098,-0.431270,2.447125
2025-12-31T15:13:36.555007,7.633104,-9.643075,2.718246,0.643851,-0.668286,2.379930
2025-12-31T15:13:36.565007,9.231509,-10.021141,2.029113,0.552222,-0.664621,2.329839
2025-12-31T15:13:36.574007,10.207781,-9.877571,2.029113,0.469144,-0.431270,2.345722
2025-12-31T15:13:36.584007,10.265208,-9.379864,2.043470,0.355523,-0.056199,2.389704
2025-12-31T15:13:36.593007,9.255437,-8.666803,2.378465,0.266337,0.344527,2.383595
2025-12-31T15:13:36.603007,7.666603,-8.384450,3.407379,0.081855,0.612086,2.329839
2025-12-31T15:13:36.613007,6.063412,-8.748159,3.756731,-0.240680,0.636521,2.294409
2025-12-31T15:13:36.622007,4.857429,-9.887142,3.895515,-0.530230,0.458148,2.254092
2025-12-31T15:13:36.632007,4.426721,-11.265408,3.517449,-0.621860,0.188146,2.127032
2025-12-31T15:13:36.641007,4.570291,-12.490533,2.756531,-0.472809,-0.084299,1.964542
2025-12-31T15:13:36.651007,5.245067,-13.442877,2.086541,-0.102625,-0.270002,1.775174
2025-12-31T15:13:36.661007,6.120840,-13.734801,1.990828,0.443488,-0.344527,1.534493
2025-12-31T15:13:36.670007,6.915257,-13.251451,2.526820,1.039692,-0.310319,1.263269
2025-12-31T15:13:36.680007,7.446463,-11.782258,3.259024,1.518610,-0.169820,1.011592
2025-12-31T15:13:36.690007,7.470392,-9.748359,3.957728,1.704313,0.058643,0.792902
2025-12-31T15:13:36.699007,7.168896,-7.685746,4.646861,1.477071,0.279776,0.593760
2025-12-31T15:13:36.709007,6.675975,-6.139982,5.455635,0.917519,0.419053,0.404392
2025-12-31T15:13:36.718007,6.015556,-5.278566,5.962913,0.161268,0.463035,0.211359
2025-12-31T15:13:36.728007,5.388636,-5.489135,5.757131,-0.719599,0.344527,0.025656
2025-12-31T15:13:36.738007,5.393422,-7.144968,5.020141,-1.524719,0.063529,-0.239459
2025-12-31T15:13:36.747007,6.034698,-9.882357,4.350151,-1.951103,-0.287106,-0.576656
2025-12-31T15:13:36.757007,7.398607,-12.538390,3.479164,-1.832595,-0.587652,-0.930958
2025-12-31T15:13:36.766007,8.982656,-14.328221,2.617747,-1.161865,-0.674395,-1.295034
2025-12-31T15:13:36.776007,10.174281,-14.414363,2.009970,-0.112399,-0.527787,-1.624901
2025-12-31T15:13:36.786007,10.662417,-12.681959,2.215753,0.982271,-0.237015,-1.897347
2025-12-31T15:13:36.795007,10.188638,-9.762716,2.737389,1.732413,0.092851,-2.150245
2025-12-31T15:13:36.805007,9.178867,-6.939185,2.991028,1.885129,0.316428,-2.377487
2025-12-31T15:13:36.815007,8.121239,-5.163711,3.608376,1.473406,0.338419,-2.593733
2025-12-31T15:13:36.824007,7.475177,-4.627718,4.498506,0.618195,0.107512,-2.834414
2025-12-31T15:13:36.834007,7.824529,-5.446064,4.847858,-0.574213,-0.371405,-3.025004
2025-12-31T15:13:36.843007,9.284151,-7.489534,3.536591,-1.715309,-0.923628,-3.187494
2025-12-31T15:13:36.853007,11.442477,-9.939785,1.919043,-2.351830,-1.233947,-3.390301
2025-12-31T15:13:36.863007,13.342378,-12.069397,0.904486,-2.377487,-1.131322,-3.549126
2025-12-31T15:13:36.872007,14.151152,-13.174881,0.052642,-1.963320,-0.667064,-3.550348
2025-12-31T15:13:36.882007,13.485948,-12.854243,-0.559920,-1.320690,-0.068416,-3.452609
2025-12-31T15:13:36.891007,11.475977,-11.514262,-0.167497,-0.698829,0.398284,-3.429396
2025-12-31T15:13:36.901007,9.312865,-9.690931,1.545763,-0.321315,0.551000,-3.574782
2025-12-31T15:13:36.911007,7.700103,-8.245666,1.737189,-0.370184,0.357966,-3.721390
2025-12-31T15:13:36.920007,7.389036,-7.905885,2.785245,-0.642630,-0.109955,-3.938858
2025-12-31T15:13:36.930007,8.599804,-8.173882,3.072384,-0.970053,-0.689055,-4.225964
2025-12-31T15:13:36.940007,11.054840,-8.968299,1.143769,-1.216843,-1.185078,-4.387233
2025-12-31T15:13:36.949007,13.715659,-10.068997,-0.851844,-1.100778,-1.262047,-4.492302
2025-12-31T15:13:36.959007,15.424134,-10.911271,-1.129412,-0.623082,-0.871093,-4.514293
2025-12-31T15:13:36.968007,15.361921,-10.571490,-1.091127,-0.089186,-0.251676,-4.326146
2025-12-31T15:13:36.978007,13.667802,-9.327222,-1.115055,0.268780,0.298102,-4.054922
2025-12-31T15:13:36.988007,11.222337,-7.881957,-0.794417,0.389731,0.559552,-3.876549
2025-12-31T15:13:36.997007,8.982656,-6.422335,-0.602991,0.263893,0.428827,-3.772702
2025-12-31T15:13:37.007007,7.513462,-5.182853,-0.703489,-0.012217,-0.017104,-3.791028
2025-12-31T15:13:37.016007,7.355536,-4.307080,0.172283,-0.283441,-0.627969,-3.973066
2025-12-31T15:13:37.026007,8.532805,-3.570091,2.134397,-0.542448,-1.292590,-4.245512
2025-12-31T15:13:37.036007,11.097911,-3.034099,2.694318,-0.906523,-1.841147,-4.449541
2025-12-31T15:13:37.045007,14.093725,-3.115455,0.430708,-1.314581,-2.006081,-4.472754
2025-12-31T15:13:37.055007,16.567904,-4.067798,-0.741775,-1.522275,-1.662774,-4.418998
2025-12-31T15:13:37.065007,17.654245,-5.374279,-0.492921,-1.492954,-1.004262,-4.244290
2025-12-31T15:13:37.074007,17.123037,-6.374479,-0.526420,-1.287703,-0.316428,-3.931527
2025-12-31T15:13:37.084007,15.208780,-6.738188,-0.899701,-0.981049,0.227241,-3.640756
2025-12-31T15:13:37.093007,12.935598,-6.374479,-0.602991,-0.586430,0.460592,-3.430618
2025-12-31T15:13:37.103007,11.073982,-5.087140,-0.047856,-0.279776,0.340862,-3.303558
2025-12-31T15:13:37.113007,10.188638,-3.407379,0.354137,-0.174707,-0.029321,-3.265684
2025-12-31T15:13:37.122007,10.346564,-1.947757,1.100698,-0.316428,-0.507018,-3.273015
2025-12-31T15:13:37.132007,11.356336,-1.004985,1.210768,-0.703716,-0.981049,-3.210707
2025-12-31T15:13:37.141007,12.954741,-0.641276,1.339980,-1.136209,-1.263269,-3.123964
2025-12-31T15:13:37.151007,14.280365,-0.985842,1.272981,-1.490510,-1.186300,-2.965139
2025-12-31T15:13:37.161007,14.677573,-1.598405,0.368494,-1.725083,-0.780685,-2.704910
2025-12-31T15:13:37.170007,13.619946,-2.153540,-0.598205,-1.714087,-0.184481,-2.443460
2025-12-31T15:13:37.180007,11.533404,-2.445464,-0.650847,-1.494176,0.313984,-2.227214
2025-12-31T15:13:37.190007,9.322436,-2.636890,-0.043070,-1.298699,0.455705,-2.065945
2025-12-31T15:13:37.199007,7.858029,-2.809173,0.248853,-1.153313,0.268780,-1.954768
2025-12-31T15:13:37.209007,7.269395,-2.799602,0.579063,-0.928514,-0.069638,-1.920559
2025-12-31T15:13:37.218007,7.590033,-2.435893,0.698704,-0.656069,-0.443488,-1.933998
2025-12-31T15:13:37.228007,8.662017,-1.737189,0.918843,-0.386066,-0.756251,-1.938885
2025-12-31T15:13:37.238007,9.887142,-0.851844,1.282552,-0.213802,-0.895528,-1.903455
2025-12-31T15:13:37.247007,10.762916,-0.066999,1.660618,-0.212581,-0.813672,-1.780060
2025-12-31T15:13:37.257007,10.863414,0.330209,1.828116,-0.362853,-0.551000,-1.594357
2025-12-31T15:13:37.266007,10.188638,0.325423,2.139183,-0.564439,-0.248011,-1.407433
2025-12-31T15:13:37.276007,9.145367,0.009571,1.799402,-0.742811,-0.021991,-1.244943
2025-12-31T15:13:37.286007,8.130811,-0.416351,0.971485,-0.831998,0.102625,-1.102000
2025-12-31T15:13:37.295007,7.101897,-0.602991,0.138783,-0.731816,0.171042,-1.023809
2025-12-31T15:13:37.305007,6.216553,-0.378065,0.301495,-0.558330,0.141720,-1.011592
2025-12-31T15:13:37.315007,5.752345,-0.200997,0.861416,-0.504574,-0.021991,-1.003040
2025-12-31T15:13:37.324007,5.694917,-0.215354,1.167697,-0.541226,-0.250454,-0.957836
2025-12-31T15:13:37.334007,6.192624,-0.363709,1.545763,-0.541226,-0.422718,-0.919962
2025-12-31T15:13:37.343007,6.781259,-0.631705,1.540977,-0.483805,-0.461814,-0.852767
2025-12-31T15:13:37.353007,7.149753,-0.971485,1.722832,-0.343306,-0.365297,-0.753807
2025-12-31T15:13:37.363007,7.063612,-0.976271,1.837687,-0.135612,-0.182037,-0.649960
2025-12-31T15:13:37.372007,6.594619,-0.842273,1.287338,0.043982,0.010995,-0.520457
2025-12-31T15:13:37.382007,5.814558,-0.502492,0.756131,0.227241,0.150272,-0.416610
2025-12-31T15:13:37.391007,5.087140,-0.004785,0.937986,0.412944,0.168598,-0.388510
2025-12-31T15:13:37.401007,4.800002,0.741775,0.784845,0.507018,0.048869,-0.379958
2025-12-31T15:13:37.411007,4.871786,1.507478,0.626919,0.463035,-0.120951,-0.373849
2025-12-31T15:13:37.420007,5.201996,1.895115,0.751346,0.298102,-0.248011,-0.357966
2025-12-31T15:13:37.430007,5.541777,2.273181,0.928415,0.047647,-0.270002,-0.291993
2025-12-31T15:13:37.440007,5.637490,2.215753,1.014556,-0.266337,-0.177150,-0.182037
2025-12-31T15:13:37.449007,5.249852,1.871187,0.894915,-0.585208,-0.017104,-0.052534
2025-12-31T15:13:37.459007,4.555934,1.311266,0.885344,-0.801455,0.125838,0.063529
2025-12-31T15:13:37.468007,3.718446,0.794417,0.971485,-0.902858,0.162490,0.153938
2025-12-31T15:13:37.478007,3.340380,0.421136,0.851844,-0.866206,0.051312,0.183259
2025-12-31T15:13:37.488007,3.517449,0.387637,0.765703,-0.718377,-0.150272,0.153938
2025-12-31T15:13:37.497007,4.292723,0.478564,0.693918,-0.533896,-0.371405,0.091629
2025-12-31T15:13:37.507007,5.388636,0.818345,0.641276,-0.379958,-0.516791,0.048869
2025-12-31T15:13:37.516007,6.498906,1.320838,0.693918,-0.288328,-0.492357,0.041538
2025-12-31T15:13:37.526007,7.068397,1.727617,0.808774,-0.285884,-0.294436,0.072082
2025-12-31T15:13:37.536007,6.896114,2.005185,0.880558,-0.371405,-0.006108,0.146607
2025-12-31T15:13:37.545007,6.111268,2.081755,0.947557,-0.518013,0.250454,0.246789
2025-12-31T15:13:37.555007,5.039284,1.952543,0.976271,-0.663399,0.351858,0.306654
2025-12-31T15:13:37.565007,4.359722,1.808973,0.756131,-0.758694,0.251676,0.310319
2025-12-31T15:13:37.574007,4.436293,1.756331,0.660419,-0.799011,-0.031764,0.250454
2025-12-31T15:13:37.584007,5.374279,1.560120,0.894915,-0.812450,-0.405614,0.149051
2025-12-31T15:13:37.593007,6.967899,1.354337,0.952343,-0.777020,-0.735481,0.054977
2025-12-31T15:13:37.603007,8.992227,1.292124,0.650847,-0.711046,-0.897971,0.001221
2025-12-31T15:13:37.613007,10.920842,1.387837,0.330209,-0.632856,-0.846659,-0.004886
2025-12-31T15:13:37.622007,12.198609,1.550549,0.138783,-0.581543,-0.629191,0.041538
2025-12-31T15:13:37.632007,12.681959,1.694118,0.162711,-0.568104,-0.334754,0.133168
2025-12-31T15:13:37.641007,12.399606,1.856830,0.449850,-0.605978,-0.050090,0.248011
2025-12-31T15:13:37.651007,11.533404,1.770688,0.995414,-0.654847,0.179594,0.351858
2025-12-31T15:13:37.661007,10.274780,1.603191,1.397408,-0.652403,0.313984,0.421496
2025-12-31T15:13:37.670007,9.092725,1.258624,1.684547,-0.587652,0.315206,0.453261
2025-12-31T15:13:37.680007,8.365307,0.842273,1.751546,-0.476474,0.204028,0.452040
2025-12-31T15:13:37.690007,8.068597,0.516849,1.569691,-0.278554,0.064751,0.433714
2025-12-31T15:13:37.699007,8.154739,0.507278,1.392622,-0.007330,-0.021991,0.408057
2025-12-31T15:13:37.709007,8.269594,0.995414,1.253839,0.232128,-0.047647,0.395840
2025-12-31T15:13:37.718007,8.451449,1.564905,1.306481,0.370184,-0.034208,0.404392
2025-12-31T15:13:37.728007,8.547162,2.254038,1.378265,0.404392,-0.009773,0.414166
2025-12-31T15:13:37.738007,8.776873,2.885744,1.450050,0.315206,-0.007330,0.420275
2025-12-31T15:13:37.747007,8.977870,3.129811,1.497906,0.125838,-0.018325,0.422718
2025-12-31T15:13:37.757007,9.250652,3.072384,1.430907,-0.108733,-0.029321,0.412944
2025-12-31T15:13:37.766007,9.513862,2.694318,1.493121,-0.328645,-0.043982,0.399505
2025-12-31T15:13:37.776007,9.791430,2.072184,1.368694,-0.476474,-0.065973,0.386066
2025-12-31T15:13:37.786007,10.083354,1.344766,1.205982,-0.508239,-0.090408,0.375071
2025-12-31T15:13:37.795007,10.403992,0.813559,1.172483,-0.414166,-0.103847,0.362853
2025-12-31T15:13:37.805007,10.710273,0.397208,1.191625,-0.222354,-0.065973,0.367740
2025-12-31T15:13:37.815007,10.791629,0.296710,1.263410,-0.024434,0.030543,0.414166
2025-12-31T15:13:37.824007,10.581061,0.172283,1.249053,0.111177,0.175929,0.496022
2025-12-31T15:13:37.834007,9.992427,0.162711,1.359123,0.200363,0.323758,0.596204
2025-12-31T15:13:37.843007,9.241080,0.162711,1.325623,0.259006,0.398284,0.697607
2025-12-31T15:13:37.853007,8.662017,0.272781,1.177268,0.284663,0.383623,0.792902
2025-12-31T15:13:37.863007,8.193024,0.425922,0.947557,0.299323,0.302989,0.851545
2025-12-31T15:13:37.872007,8.025527,0.464207,0.655633,0.280997,0.183259,0.875980
2025-12-31T15:13:37.882007,8.111668,0.387637,0.531206,0.252898,0.063529,0.868650
2025-12-31T15:13:37.891007,8.360522,0.210568,0.765703,0.268780,-0.025656,0.842993
2025-12-31T15:13:37.901007,8.714659,0.153140,0.784845,0.344527,-0.061086,0.811228
2025-12-31T15:13:37.911007,9.102297,0.234496,0.784845,0.447153,-0.046425,0.785572
2025-12-31T15:13:37.920007,9.327222,0.277567,0.564706,0.522900,0.059864,0.790459
2025-12-31T15:13:37.930007,9.159724,0.540777,0.430708,0.560774,0.262671,0.825889
2025-12-31T15:13:37.940007,8.341379,0.588634,0.464207,0.541226,0.491135,0.885754
2025-12-31T15:13:37.949007,7.307680,0.535992,0.454636,0.465479,0.631634,0.940732
2025-12-31T15:13:37.959007,6.283552,0.401994,0.435493,0.382401,0.638964,0.982271
2025-12-31T15:13:37.968007,5.503491,0.234496,0.531206,0.324980,0.526565,0.988379
2025-12-31T15:13:37.978007,5.178068,0.028713,0.669990,0.296880,0.337197,0.962723
2025-12-31T15:13:37.988007,5.321637,-0.157926,0.631705,0.302989,0.123394,0.921184
2025-12-31T15:13:37.997007,5.852844,-0.306281,0.933200,0.373849,-0.078190,0.879645
2025-12-31T15:13:38.007007,6.766902,-0.349352,1.258624,0.496022,-0.219911,0.830776
2025-12-31T15:13:38.016007,7.795816,-0.287138,1.177268,0.591317,-0.232128,0.810007
2025-12-31T15:13:38.026007,8.480163,-0.210568,0.722632,0.664621,-0.072082,0.819780
2025-12-31T15:13:38.036007,8.628518,-0.086141,0.425922,0.718377,0.204028,0.872315
2025-12-31T15:13:38.045007,8.116454,-0.057427,0.363709,0.718377,0.482583,0.955393
2025-12-31T15:13:38.055007,7.231109,-0.100498,0.459421,0.686612,0.660956,1.033583
2025-12-31T15:13:38.065007,6.321837,-0.143569,0.382851,0.652403,0.709825,1.088561
2025-12-31T15:13:38.074007,5.541777,-0.234496,0.512064,0.601091,0.630412,1.134987
2025-12-31T15:13:38.084007,5.268995,-0.349352,0.512064,0.527787,0.433714,1.152091
2025-12-31T15:13:38.093007,5.599204,-0.382851,0.550349,0.458148,0.155159,1.169195
2025-12-31T15:13:38.103007,6.474977,-0.454636,0.344566,0.421496,-0.131946,1.185078
2025-12-31T15:13:38.113007,7.537391,-0.526420,0.626919,0.373849,-0.317649,1.213178
2025-12-31T15:13:38.122007,8.604590,-0.775274,1.134197,0.337197,-0.338419,1.242499
2025-12-31T15:13:38.132007,9.442077,-0.942772,1.306481,0.332310,-0.201585,1.281595
2025-12-31T15:13:38.141007,9.781858,-1.225125,0.569491,0.328645,0.056199,1.365894
2025-12-31T15:13:38.151007,9.322436,-1.641476,-0.004785,0.398284,0.386066,1.468519
2025-12-31T15:13:38.161007,8.140382,-1.856830,-0.081355,0.577878,0.684168,1.560149
2025-12-31T15:13:38.170007,6.819544,-1.852044,-0.167497,0.792902,0.823446,1.612683
2025-12-31T15:13:38.180007,5.661418,-1.765903,-0.110069,0.988379,0.762359,1.610240
2025-12-31T15:13:38.190007,5.178068,-1.799402,0.023928,1.128878,0.505796,1.566258
2025-12-31T15:13:38.199007,5.536991,-2.038684,0.148355,1.215621,0.124616,1.513723
2025-12-31T15:13:38.209007,6.675975,-2.134397,0.114855,1.302364,-0.238237,1.463632
2025-12-31T15:13:38.218007,8.135596,-2.187039,0.301495,1.403768,-0.453261,1.424537
2025-12-31T15:13:38.228007,9.652646,-1.804188,0.631705,1.436754,-0.488692,1.425759
2025-12-31T15:13:38.238007,10.715059,-1.483550,0.775274,1.361007,-0.370184,1.468519
2025-12-31T15:13:38.247007,11.341979,-1.172483,0.636490,1.152091,-0.156381,1.545488
2025-12-31T15:13:38.257007,11.227123,-1.086341,0.215354,0.861319,0.107512,1.632231
2025-12-31T15:13:38.266007,10.537990,-1.205982,0.119641,0.568104,0.349414,1.695761
2025-12-31T15:13:38.276007,9.365507,-1.421336,0.090927,0.320093,0.493579,1.738522
2025-12-31T15:13:38.286007,8.121239,-1.670190,0.090927,0.141720,0.516791,1.762956
2025-12-31T15:13:38.295007,7.159325,-1.885544,0.086141,0.009773,0.398284,1.733635
2025-12-31T15:13:38.305007,6.656832,-2.258824,0.315852,-0.084299,0.135612,1.684765
2025-12-31T15:13:38.315007,6.876972,-2.756531,0.803988,-0.125838,-0.205250,1.631009
2025-12-31T15:13:38.324007,7.838886,-3.426521,1.249053,-0.106290,-0.521678,1.588249
2025-12-31T15:13:38.334007,9.236295,-3.952942,1.560120,-0.046425,-0.679282,1.591914
2025-12-31T15:13:38.343007,10.514062,-4.469792,1.301695,0.062308,-0.614530,1.659109
2025-12-31T15:13:38.353007,11.327622,-4.728217,0.593420,0.218689,-0.372627,1.814269
2025-12-31T15:13:38.363007,11.265408,-4.570291,0.143569,0.337197,-0.070860,2.007302
2025-12-31T15:13:38.372007,10.528419,-4.230510,0.363709,0.346971,0.162490,2.173458
2025-12-31T15:13:38.382007,9.561719,-3.972085,0.684347,0.208915,0.222354,2.282192
2025-12-31T15:13:38.391007,8.719445,-4.149154,0.875773,-0.051312,0.087964,2.312735
2025-12-31T15:13:38.401007,8.413164,-4.871786,1.105484,-0.279776,-0.207694,2.258979
2025-12-31T15:13:38.411007,8.896514,-6.025127,1.253839,-0.394618,-0.564439,2.146580
2025-12-31T15:13:38.420007,9.982855,-7.403393,1.162911,-0.284663,-0.836885,2.035402
2025-12-31T15:13:38.430007,11.241480,-8.551947,0.741775,0.067195,-0.927293,1.968207
2025-12-31T15:13:38.440007,12.332607,-9.399007,0.143569,0.575434,-0.831998,1.965763
2025-12-31T15:13:38.449007,12.892528,-9.332008,-0.521635,1.137430,-0.605978,2.047619
2025-12-31T15:13:38.459007,12.792029,-8.595018,-0.703489,1.678657,-0.313984,2.167349
2025-12-31T15:13:38.468007,12.031112,-7.058826,-0.416351,2.056171,-0.029321,2.283413
2025-12-31T15:13:38.478007,10.844272,-5.331208,0.296710,2.102597,0.142942,2.384817
2025-12-31T15:13:38.488007,9.753144,-4.063012,1.205982,1.776395,0.144164,2.422691
2025-12-31T15:13:38.497007,9.135796,-3.373879,1.971685,1.185078,-0.052534,2.425134
2025-12-31T15:13:38.507007,9.154939,-3.287738,2.225325,0.522900,-0.371405,2.382373
2025-12-31T15:13:38.516007,9.643075,-3.785445,1.861615,-0.127059,-0.669508,2.350608
2025-12-31T15:13:38.526007,10.427920,-5.005784,1.392622,-0.676838,-0.839328,2.343278
2025-12-31T15:13:38.536007,11.169695,-6.805187,0.976271,-0.943175,-0.835663,2.356717
2025-12-31T15:13:38.545007,11.523833,-8.365307,0.454636,-0.904080,-0.691499,2.400699
2025-12-31T15:13:38.555007,11.514262,-9.781858,0.258424,-0.593760,-0.474031,2.465451
2025-12-31T15:13:38.565007,11.117053,-10.576275,0.808774,-0.015882,-0.251676,2.481334
2025-12-31T15:13:38.574007,10.427920,-10.533205,1.110269,0.696386,-0.085521,2.427577
2025-12-31T15:13:38.584007,9.753144,-9.772287,1.526620,1.323133,-0.021991,2.335948
2025-12-31T15:13:38.593007,9.432506,-8.480163,1.885544,1.712865,-0.070860,2.250427
2025-12-31T15:13:38.603007,9.427721,-7.082754,1.875972,1.825264,-0.171042,2.144136
2025-12-31T15:13:38.613007,9.657432,-5.833701,1.569691,1.637118,-0.221133,2.057393
2025-12-31T15:13:38.622007,9.858429,-5.144568,1.741974,1.233947,-0.196698,2.018298
2025-12-31T15:13:38.632007,9.695717,-4.886143,1.952543,0.690277,-0.105068,1.991420
2025-12-31T15:13:38.641007,9.389435,-5.173282,1.837687,0.084299,-0.028099,1.976759
2025-12-31T15:13:38.651007,8.958727,-5.881557,1.875972,-0.426383,0.002443,1.938885
2025-12-31T15:13:38.661007,8.652446,-6.905686,2.311466,-0.770911,-0.031764,1.852143
2025-12-31T15:13:38.670007,8.561519,-8.279166,2.761317,-0.966388,-0.079412,1.758069
2025-12-31T15:13:38.680007,8.705088,-9.537790,2.689532,-0.957836,-0.076969,1.677435
2025-12-31T15:13:38.690007,8.886943,-10.571490,2.569891,-0.696386,0.020769,1.578475
2025-12-31T15:13:38.699007,8.786444,-11.073982,2.641676,-0.311541,0.191811,1.486845
2025-12-31T15:13:38.709007,8.365307,-11.021340,2.388036,0.035430,0.340862,1.447750
2025-12-31T15:13:38.718007,7.896314,-10.466206,1.981257,0.327423,0.460592,1.393994
2025-12-31T15:13:38.728007,7.188039,-9.619146,2.000399,0.547335,0.552222,1.296255
2025-12-31T15:13:38.738007,6.527620,-8.628518,2.268395,0.601091,0.569326,1.171639
2025-12-31T15:13:38.747007,6.044269,-7.814958,2.225325,0.449596,0.488692,1.034805
2025-12-31T15:13:38.757007,5.838487,-7.680960,1.914258,0.147829,0.324980,0.900415
2025-12-31T15:13:38.766007,5.919843,-8.097311,1.694118,-0.189368,0.130725,0.748920
2025-12-31T15:13:38.776007,6.326622,-9.303294,1.493121,-0.466700,-0.023212,0.601091
2025-12-31T15:13:38.786007,6.790830,-10.786844,1.320838,-0.576656,-0.095294,0.475253
2025-12-31T15:13:38.795007,7.207181,-11.925827,1.153340,-0.432492,-0.050090,0.353080
2025-12-31T15:13:38.805007,7.264609,-12.390035,0.981057,-0.075747,0.086742,0.241902
2025-12-31T15:13:38.815007,6.963113,-11.911470,1.052841,0.389731,0.255341,0.116064
2025-12-31T15:13:38.824007,6.451049,-10.671988,1.368694,0.794124,0.333532,-0.035430
2025-12-31T15:13:38.834007,6.259623,-9.068797,2.072184,0.959058,0.266337,-0.202807
2025-12-31T15:13:38.843007,6.431907,-7.762316,2.818745,0.833220,0.090408,-0.400727
2025-12-31T15:13:38.853007,7.020541,-7.063612,3.077169,0.493579,-0.109955,-0.607199
2025-12-31T15:13:38.863007,7.929814,-6.762116,2.746960,0.051312,-0.244346,-0.823446
2025-12-31T15:13:38.872007,8.772087,-6.924828,1.995614,-0.421496,-0.283441,-1.017701
2025-12-31T15:13:38.882007,9.437292,-7.609175,1.000199,-0.785572,-0.207694,-1.216843
2025-12-31T15:13:38.891007,9.619146,-8.489734,0.287138,-0.959058,-0.057421,-1.401324
2025-12-31T15:13:38.901007,9.619146,-9.504291,0.066999,-0.946840,0.089186,-1.566258
2025-12-31T15:13:38.911007,9.375078,-10.212566,0.282353,-0.780685,0.166155,-1.717752
2025-12-31T15:13:38.920007,9.245866,-10.384850,0.669990,-0.502131,0.155159,-1.879021
2025-12-31T15:13:38.930007,9.226723,-9.671788,1.086341,-0.227241,0.084299,-2.061058
2025-12-31T15:13:38.940007,9.274580,-8.475377,1.048056,-0.105068,-0.004886,-2.240653
2025-12-31T15:13:38.949007,9.379864,-7.422535,1.191625,-0.207694,-0.091629,-2.387260
2025-12-31T15:13:38.959007,9.619146,-6.924828,1.933400,-0.458148,-0.207694,-2.533868
2025-12-31T15:13:38.968007,10.198209,-6.776473,2.407179,-0.758694,-0.310319,-2.696358
2025-12-31T15:13:38.978007,10.839486,-7.111468,1.545763,-1.104444,-0.331088,-2.781879
2025-12-31T15:13:38.988007,11.332407,-8.216952,0.248853,-1.381776,-0.263893,-2.794097
2025-12-31T15:13:38.997007,11.810972,-10.040283,-0.607776,-1.496619,-0.177150,-2.801427
2025-12-31T15:13:39.007007,12.275179,-11.748758,-1.244267,-1.375668,-0.116064,-2.795318
2025-12-31T15:13:39.016007,12.667602,-13.313664,-1.014556,-0.948062,-0.037873,-2.797762
2025-12-31T15:13:39.026007,12.839886,-13.969298,-0.698704,-0.261450,0.109955,-2.817309
2025-12-31T15:13:39.036007,12.739387,-13.222737,-0.291924,0.487470,0.300545,-2.775771
2025-12-31T15:13:39.045007,12.193823,-11.423335,-0.315852,1.029918,0.469144,-2.660928
2025-12-31T15:13:39.055007,11.361121,-9.336793,-0.167497,1.255938,0.546113,-2.558303
2025-12-31T15:13:39.065007,10.346564,-7.202396,-0.076570,1.169195,0.508239,-2.478890
2025-12-31T15:13:39.074007,9.451649,-5.355136,0.296710,0.819780,0.366519,-2.454456
2025-12-31T15:13:39.084007,8.767302,-3.866801,0.650847,0.279776,0.188146,-2.517985
2025-12-31T15:13:39.093007,8.193024,-2.823530,-0.191425,-0.299323,0.003665,-2.593733
2025-12-31T15:13:39.103007,7.838886,-2.297109,-0.957129,-0.785572,-0.189368,-2.715906
2025-12-31T15:13:39.113007,7.963313,-2.431107,-0.976271,-1.248608,-0.481361,-2.882061
2025-12-31T15:13:39.122007,8.958727,-3.785445,-0.588634,-1.718974,-0.886976,-3.018895
2025-12-31T15:13:39.132007,10.935199,-5.962913,-0.392422,-1.969429,-1.253495,-3.133738
2025-12-31T15:13:39.141007,13.256237,-8.231309,-0.602991,-1.848477,-1.354898,-3.175276
2025-12-31T15:13:39.151007,15.299707,-9.944570,-0.157926,-1.276708,-1.095892,-3.125185
2025-12-31T15:13:39.161007,16.103697,-10.284351,0.363709,-0.354301,-0.497244,-2.987130
2025-12-31T15:13:39.170007,15.189637,-8.853443,0.153140,0.522900,0.188146,-2.714684
2025-12-31T15:13:39.180007,12.911670,-6.781259,-0.043070,1.080009,0.676838,-2.466673
2025-12-31T15:13:39.190007,10.662417,-4.919643,0.392422,1.319468,0.763581,-2.379930
2025-12-31T15:13:39.199007,9.054440,-3.058027,0.641276,1.323133,0.507018,-2.452012
2025-12-31T15:13:39.209007,8.116454,-1.196411,-0.224925,1.166752,0.111177,-2.592511
2025-12-31T15:13:39.218007,7.920242,0.617348,-0.976271,0.901636,-0.307876,-2.740340
2025-12-31T15:13:39.228007,8.350950,1.684547,-0.282353,0.439822,-0.762359,-2.893057
2025-12-31T15:13:39.238007,9.657432,1.938186,0.636490,-0.299323,-1.221730,-2.935817
2025-12-31T15:13:39.247007,11.466405,1.215553,0.593420,-1.094670,-1.490510,-2.845409
2025-12-31T15:13:39.257007,13.007383,-0.143569,0.110069,-1.677435,-1.418428,-2.711019
2025-12-31T15:13:39.266007,13.854442,-1.933400,0.153140,-1.952324,-1.083674,-2.548529
2025-12-31T15:13:39.276007,13.801800,-3.512663,0.200997,-1.846034,-0.657290,-2.357939
2025-12-31T15:13:39.286007,12.825529,-4.211367,0.129212,-1.387885,-0.235793,-2.206444
2025-12-31T15:13:39.295007,11.466405,-3.905086,0.445065,-0.817337,0.031764,-2.147801
2025-12-31T15:13:39.305007,10.169496,-3.000599,0.756131,-0.327423,0.045204,-2.136806
2025-12-31T15:13:39.315007,9.403792,-1.694118,0.827916,0.001221,-0.114842,-2.157575
2025-12-31T15:13:39.324007,9.135796,-0.454636,0.794417,0.113620,-0.337197,-2.202779
2025-12-31T15:13:39.334007,9.241080,0.440279,1.014556,0.026878,-0.546113,-2.228435
2025-12-31T15:13:39.343007,9.710074,0.918843,1.210768,-0.124616,-0.695164,-2.233322
2025-12-31T15:13:39.353007,10.317851,1.167697,1.071984,-0.305432,-0.745255,-2.186897
2025-12-31T15:13:39.363007,10.978270,1.009771,0.856630,-0.538783,-0.689055,-2.062280
2025-12-31T15:13:39.372007,11.351550,0.540777,0.349352,-0.746477,-0.505796,-1.874134
2025-12-31T15:13:39.382007,11.284551,0.086141,0.143569,-0.856432,-0.239459,-1.659109
2025-12-31T15:13:39.391007,10.547562,-0.105284,0.282353,-0.899193,0.054977,-1.474628
2025-12-31T15:13:39.401007,9.437292,-0.244067,0.521635,-0.883310,0.273667,-1.318246
2025-12-31T15:13:39.411007,8.250452,-0.100498,0.847059,-0.828333,0.367740,-1.247386
2025-12-31T15:13:39.420007,7.250252,0.009571,1.105484,-0.818559,0.309097,-1.232725
2025-12-31T15:13:39.430007,6.819544,0.076570,1.440479,-0.823446,0.114842,-1.231504
2025-12-31T15:13:39.440007,6.848258,0.258424,1.569691,-0.830776,-0.146607,-1.231504
2025-12-31T15:13:39.449007,7.503891,0.378065,1.033699,-0.890641,-0.394618,-1.191186
2025-12-31T15:13:39.459007,8.398807,0.378065,0.363709,-0.928514,-0.520457,-1.114217
2025-12-31T15:13:39.468007,9.001798,0.411565,0.004785,-0.888197,-0.463035,-1.010370
2025-12-31T15:13:39.478007,9.126225,0.382851,0.114855,-0.835663,-0.262671,-0.874758
2025-12-31T15:13:39.488007,8.599804,0.196211,0.435493,-0.769690,-0.009773,-0.734259
2025-12-31T15:13:39.497007,7.676174,0.000000,0.622133,-0.682947,0.185702,-0.631634
2025-12-31T15:13:39.507007,6.699903,-0.200997,0.856630,-0.579100,0.245567,-0.571769
2025-12-31T15:13:39.516007,5.986842,-0.272781,0.861416,-0.436157,0.183259,-0.552222
2025-12-31T15:13:39.526007,5.670989,-0.224925,0.870987,-0.257785,0.057421,-0.538783
2025-12-31T15:13:39.536007,5.642275,0.119641,0.875773,-0.081855,-0.078190,-0.516791
2025-12-31T15:13:39.545007,5.905486,0.483350,1.110269,0.036651,-0.182037,-0.487470
2025-12-31T15:13:39.555007,6.312266,1.048056,1.004985,0.058643,-0.226020,-0.422718
2025-12-31T15:13:39.565007,6.570690,1.392622,0.445065,-0.007330,-0.188146,-0.329867
2025-12-31T15:13:39.574007,6.637689,1.703689,0.162711,-0.067195,-0.098960,-0.277332
2025-12-31T15:13:39.584007,6.484549,1.794616,0.234496,-0.130725,-0.012217,-0.273667
2025-12-31T15:13:39.593007,6.192624,1.670190,0.368494,-0.200363,0.040317,-0.283441
2025-12-31T15:13:39.603007,5.833701,1.186840,0.736989,-0.232128,0.064751,-0.312762
2025-12-31T15:13:39.613007,5.594419,0.827916,0.847059,-0.196698,0.047647,-0.335975
2025-12-31T15:13:39.622007,5.517848,0.650847,0.665204,-0.107512,0.018325,-0.338419
2025-12-31T15:13:39.632007,5.536991,0.689132,0.454636,0.014660,0.000000,-0.318871
2025-12-31T15:13:39.641007,5.541777,0.966700,0.392422,0.147829,0.000000,-0.276111
2025-12-31T15:13:39.651007,5.522634,1.488335,0.449850,0.235793,0.024434,-0.232128
2025-12-31T15:13:39.661007,5.379065,2.014756,0.478564,0.194255,0.045204,-0.174707
2025-12-31T15:13:39.670007,5.335994,2.258824,0.311066,0.079412,0.025656,-0.120951
2025-12-31T15:13:39.680007,5.297709,2.555534,0.401994,-0.043982,-0.021991,-0.119729
2025-12-31T15:13:39.690007,5.570491,2.526820,0.602991,-0.191811,-0.113620,-0.156381
2025-12-31T15:13:39.699007,6.020341,2.435893,0.531206,-0.335975,-0.213802,-0.178372
2025-12-31T15:13:39.709007,6.723831,2.335394,0.373280,-0.433714,-0.262671,-0.205250
2025-12-31T15:13:39.718007,7.216752,2.153540,0.133998,-0.518013,-0.234572,-0.226020
2025-12-31T15:13:39.728007,7.590033,2.014756,0.019142,-0.592539,-0.142942,-0.204028
2025-12-31T15:13:39.738007,7.642675,1.856830,-0.177068,-0.649960,-0.041538,-0.175929
2025-12-31T15:13:39.747007,7.594818,1.789831,-0.325423,-0.702494,0.019547,-0.147829
2025-12-31T15:13:39.757007,7.408178,1.765903,-0.272781,-0.715933,0.042760,-0.127059
2025-12-31T15:13:39.766007,7.298108,1.727617,-0.014356,-0.708603,0.006108,-0.125838
2025-12-31T15:13:39.776007,7.551748,1.497906,0.258424,-0.715933,-0.113620,-0.134390
2025-12-31T15:13:39.786007,8.130811,1.210768,0.148355,-0.704938,-0.277332,-0.153938
2025-12-31T15:13:39.795007,8.987441,0.933200,-0.167497,-0.630412,-0.400727,-0.178372
2025-12-31T15:13:39.805007,9.882357,0.746560,-0.344566,-0.485026,-0.442266,-0.199142
2025-12-31T15:13:39.815007,10.537990,0.799202,-0.502492,-0.300545,-0.394618,-0.183259
2025-12-31T15:13:39.824007,10.987841,0.933200,-0.555134,-0.123394,-0.257785,-0.129503
2025-12-31T15:13:39.834007,11.030912,1.196411,-0.602991,0.006108,-0.067195,-0.054977
2025-12-31T15:13:39.843007,10.356136,1.574477,-0.435493,0.097738,0.125838,0.040317
2025-12-31T15:13:39.853007,9.523433,1.971685,-0.224925,0.138055,0.256563,0.117286
2025-12-31T15:13:39.863007,8.628518,2.225325,0.148355,0.092851,0.280997,0.175929
2025-12-31T15:13:39.872007,7.905885,2.388036,0.320638,0.003665,0.188146,0.218689
2025-12-31T15:13:39.882007,7.671389,2.306680,0.579063,-0.075747,0.019547,0.239459
2025-12-31T15:13:39.891007,7.738388,2.124826,0.784845,-0.160046,-0.168598,0.235793
2025-12-31T15:13:39.901007,8.154739,1.919043,0.703489,-0.226020,-0.315206,0.246789
2025-12-31T15:13:39.911007,8.772087,1.718046,0.492921,-0.208915,-0.366519,0.246789
2025-12-31T15:13:39.920007,9.317651,1.655833,0.440279,-0.167377,-0.350636,0.230907
2025-12-31T15:13:39.930007,9.796215,1.689332,0.296710,-0.122173,-0.321315,0.241902
2025-12-31T15:13:39.940007,10.241280,1.804188,0.081355,-0.034208,-0.291993,0.244346
2025-12-31T15:13:39.949007,10.657631,2.172682,0.153140,0.028099,-0.251676,0.252898
2025-12-31T15:13:39.959007,10.911271,2.498106,0.153140,0.018325,-0.179594,0.290771
2025-12-31T15:13:39.968007,10.868200,2.813959,0.105284,-0.052534,-0.063529,0.345749
2025-12-31T15:13:39.978007,10.447063,2.866601,0.277567,-0.169820,0.058643,0.408057
2025-12-31T15:13:39.988007,9.839286,2.641676,0.449850,-0.320093,0.120951,0.454483
2025-12-31T15:13:39.997007,9.221938,2.225325,0.521635,-0.415388,0.109955,0.474031
2025-12-31T15:13:40.007007,8.729016,1.741974,0.655633,-0.372627,0.054977,0.442266
2025-12-31T15:13:40.016007,8.494520,1.339980,0.780060,-0.248011,-0.021991,0.371405
2025-12-31T15:13:40.026007,8.518448,0.856630,0.894915,-0.050090,-0.122173,0.306654
2025-12-31T15:13:40.036007,8.877371,0.789631,0.832702,0.256563,-0.218689,0.241902
2025-12-31T15:13:40.045007,9.322436,1.182054,0.636490,0.553443,-0.244346,0.200363
2025-12-31T15:13:40.055007,9.686145,1.698904,0.526420,0.748920,-0.134390,0.196698
2025-12-31T15:13:40.065007,9.456434,2.316252,0.569491,0.808785,0.080634,0.234572
2025-12-31T15:13:40.074007,8.896514,2.608176,0.679561,0.706160,0.270002,0.304210
2025-12-31T15:13:40.084007,8.159525,2.608176,0.813559,0.492357,0.322536,0.372627
2025-12-31T15:13:40.093007,7.685746,2.354537,0.665204,0.285884,0.257785,0.421496
2025-12-31T15:13:40.103007,7.484749,2.096112,0.574277,0.122173,0.138055,0.452040
2025-12-31T15:13:40.113007,7.527819,1.832902,0.574277,0.008552,-0.008552,0.463035
2025-12-31T15:13:40.122007,7.805387,1.497906,0.837487,-0.056199,-0.123394,0.425162
2025-12-31T15:13:40.132007,8.202595,0.847059,1.162911,-0.061086,-0.201585,0.379958
2025-12-31T15:13:40.141007,8.796015,0.349352,1.440479,0.065973,-0.245567,0.334754
2025-12-31T15:13:40.151007,9.571290,0.191425,1.249053,0.270002,-0.229685,0.307876
2025-12-31T15:13:40.161007,10.198209,0.421136,0.708275,0.491135,-0.074525,0.329867
2025-12-31T15:13:40.170007,10.231709,0.885344,0.234496,0.684168,0.246789,0.403170
2025-12-31T15:13:40.180007,9.528219,1.473978,0.267996,0.707381,0.598647,0.527787
2025-12-31T15:13:40.190007,8.336593,1.761117,0.569491,0.530230,0.842993,0.689055
2025-12-31T15:13:40.199007,6.920042,1.818545,0.756131,0.235793,0.940732,0.869871
2025-12-31T15:13:40.209007,5.647061,1.684547,1.009771,-0.111177,0.895528,1.028696
2025-12-31T15:13:40.218007,4.637290,1.311266,1.100698,-0.441044,0.734259,1.152091
2025-12-31T15:13:40.228007,4.139583,0.856630,1.024128,-0.693942,0.487470,1.232725
2025-12-31T15:13:40.238007,4.120440,0.177068,0.990628,-0.839328,0.226020,1.281595
2025-12-31T15:13:40.247007,4.546362,-0.555134,0.851844,-0.845437,-0.010995,1.304807
2025-12-31T15:13:40.257007,5.345565,-1.296909,0.933200,-0.695164,-0.191811,1.302364
2025-12-31T15:13:40.266007,6.407978,-1.761117,0.851844,-0.414166,-0.306654,1.282816
2025-12-31T15:13:40.276007,7.451249,-1.880758,0.660419,-0.086742,-0.320093,1.270599
2025-12-31T15:13:40.286007,8.327022,-1.756331,0.296710,0.216246,-0.178372,1.284038
2025-12-31T15:13:40.295007,8.662017,-1.411765,-0.081355,0.470366,0.078190,1.340238
2025-12-31T15:13:40.305007,8.389236,-0.899701,-0.277567,0.652403,0.361632,1.419650
2025-12-31T15:13:40.315007,7.661817,-0.425922,-0.062213,0.704938,0.571769,1.483180
2025-12-31T15:13:40.324007,6.762116,-0.196211,0.143569,0.629191,0.652403,1.535714
2025-12-31T15:13:40.334007,6.034698,-0.110069,0.287138,0.500909,0.602312,1.568701
2025-12-31T15:13:40.343007,5.637490,-0.205782,0.617348,0.362853,0.447153,1.540601
2025-12-31T15:13:40.353007,5.666203,-0.521635,0.894915,0.251676,0.221133,1.495397
2025-12-31T15:13:40.363007,6.154339,-0.880558,1.100698,0.250454,0.008552,1.441641
2025-12-31T15:13:40.372007,6.920042,-1.057627,1.205982,0.337197,-0.089186,1.370781
2025-12-31T15:13:40.382007,7.724031,-1.186840,0.780060,0.436157,-0.031764,1.357342
2025-12-31T15:13:40.391007,8.188238,-1.335195,0.172283,0.552222,0.153938,1.381776
2025-12-31T15:13:40.401007,8.197810,-1.349551,-0.143569,0.673173,0.370184,1.424537
2025-12-31T15:13:40.411007,7.862815,-1.359123,-0.282353,0.737925,0.520457,1.489289
2025-12-31T15:13:40.420007,7.374679,-1.292124,-0.301495,0.747698,0.574213,1.549153
2025-12-31T15:13:40.430007,7.039684,-1.076770,-0.009571,0.730594,0.529009,1.587027
2025-12-31T15:13:40.440007,6.910471,-0.899701,0.602991,0.643851,0.390953,1.601688
2025-12-31T15:13:40.449007,7.135396,-0.660419,0.885344,0.416610,0.201585,1.634675
2025-12-31T15:13:40.459007,7.618747,-0.789631,0.722632,0.113620,-0.003665,1.673770
2025-12-31T15:13:40.468007,8.207381,-1.138983,0.612562,-0.113620,-0.139277,1.685987
2025-12-31T15:13:40.478007,8.824729,-1.574477,0.492921,-0.246789,-0.211359,1.673770
2025-12-31T15:13:40.488007,9.269794,-2.354537,0.315852,-0.284663,-0.223576,1.660331
2025-12-31T15:13:40.497007,9.442077,-3.086741,-0.172283,-0.166155,-0.162490,1.645670
2025-12-31T15:13:40.507007,9.418149,-3.785445,-0.349352,0.057421,-0.046425,1.651779
2025-12-31T15:13:40.516007,9.135796,-4.398007,-0.320638,0.370184,0.039095,1.674992
2025-12-31T15:13:40.526007,8.743373,-4.713860,-0.722632,0.788015,0.086742,1.678657
2025-12-31T15:13:40.536007,8.461020,-4.713860,-0.799202,1.194852,0.081855,1.676213
2025-12-31T15:13:40.545007,8.537591,-4.503292,-0.617348,1.536936,-0.019547,1.654222
2025-12-31T15:13:40.555007,8.968299,-3.766302,-0.512064,1.793499,-0.211359,1.645670
2025-12-31T15:13:40.565007,9.801001,-2.775674,-0.043070,1.858251,-0.397062,1.643227
2025-12-31T15:13:40.574007,10.743773,-1.852044,0.449850,1.707978,-0.493579,1.655444
2025-12-31T15:13:40.584007,11.595618,-0.976271,0.449850,1.386663,-0.470366,1.729969
2025-12-31T15:13:40.593007,11.916256,-0.512064,0.186640,0.928514,-0.344527,1.830151
2025-12-31T15:13:40.603007,11.710473,-0.502492,0.234496,0.393397,-0.163711,1.932777
2025-12-31T15:13:40.613007,10.930413,-0.995414,0.263210,-0.101403,-0.008552,2.008524
2025-12-31T15:13:40.622007,9.954142,-1.952543,0.478564,-0.482583,0.023212,2.018298
2025-12-31T15:13:40.632007,9.432506,-3.531806,1.033699,-0.706160,-0.139277,1.926668
2025-12-31T15:13:40.641007,9.695717,-5.245067,0.722632,-0.718377,-0.453261,1.786169
2025-12-31T15:13:40.651007,10.777272,-6.742974,0.019142,-0.470366,-0.762359,1.643227
2025-12-31T15:13:40.661007,12.260823,-7.786244,-0.674775,-0.003665,-0.915075,1.532049
2025-12-31T15:13:40.670007,13.696516,-8.216952,-0.985842,0.575434,-0.883310,1.521054
2025-12-31T15:13:40.680007,14.739787,-7.843672,-0.789631,1.133765,-0.682947,1.601688
2025-12-31T15:13:40.690007,14.830714,-6.704688,-0.622133,1.524719,-0.355523,1.751961
2025-12-31T15:13:40.699007,14.069796,-5.154139,-0.267996,1.657887,0.015882,1.923003
2025-12-31T15:13:40.709007,12.648460,-3.699303,0.358923,1.521054,0.291993,2.050063
2025-12-31T15:13:40.718007,11.054840,-2.656033,0.808774,1.137430,0.379958,2.130697
2025-12-31T15:13:40.728007,9.753144,-2.340180,1.115055,0.587652,0.250454,2.157575
2025-12-31T15:13:40.738007,9.049655,-2.746960,1.445264,-0.029321,-0.061086,2.091602
2025-12-31T15:13:40.747007,9.178867,-4.048655,1.540977,-0.592539,-0.460592,1.968207
2025-12-31T15:13:40.757007,10.126425,-5.905486,0.985842,-0.943175,-0.818559,1.831373
2025-12-31T15:13:40.766007,11.413763,-7.829315,-0.057427,-0.973718,-0.993266,1.712865
2025-12-31T15:13:40.776007,12.638888,-9.370293,-0.990628,-0.642630,-0.913854,1.667661
2025-12-31T15:13:40.786007,13.150953,-10.341779,-1.028913,-0.065973,-0.616973,1.705535
2025-12-31T15:13:40.795007,12.844671,-10.298708,-0.894915,0.565661,-0.254119,1.806938
2025-12-31T15:13:40.805007,11.787044,-9.375078,-0.535992,1.061683,0.015882,1.933998
2025-12-31T15:13:40.815007,10.509276,-7.905885,0.023928,1.279151,0.120951,2.008524
2025-12-31T15:13:40.824007,9.480363,-6.608976,0.722632,1.202182,0.031764,2.004859
2025-12-31T15:13:40.834007,8.944370,-5.661418,1.536192,0.960279,-0.171042,1.937664
2025-12-31T15:13:40.843007,8.977870,-5.245067,2.234896,0.623082,-0.412944,1.833817
2025-12-31T15:13:40.853007,9.604789,-5.469992,2.411965,0.185702,-0.620638,1.767843
2025-12-31T15:13:40.863007,10.523633,-6.269195,1.966900,-0.216246,-0.719599,1.751961
2025-12-31T15:13:40.872007,11.274980,-7.245466,1.220339,-0.459370,-0.653625,1.766621
2025-12-31T15:13:40.882007,11.528619,-8.398807,0.526420,-0.569326,-0.441044,1.793499
2025-12-31T15:13:40.891007,11.251051,-9.413364,-0.220139,-0.572991,-0.172263,1.875355
2025-12-31T15:13:40.901007,10.442277,-10.217352,-0.650847,-0.458148,0.062308,1.944994
2025-12-31T15:13:40.911007,9.432506,-10.715059,-0.435493,-0.237015,0.194255,1.938885
2025-12-31T15:13:40.920007,8.461020,-10.820343,0.110069,0.047647,0.204028,1.866803
2025-12-31T15:13:40.930007,7.776673,-10.447063,0.454636,0.321315,0.131946,1.771508
2025-12-31T15:13:40.940007,7.465606,-9.690931,0.708275,0.551000,0.020769,1.649335
2025-12-31T15:13:40.949007,7.422535,-8.705088,1.033699,0.690277,-0.084299,1.508836
2025-12-31T15:13:40.959007,7.666603,-7.925028,1.320838,0.675616,-0.157603,1.397659
2025-12-31T15:13:40.968007,7.925028,-7.451249,1.660618,0.522900,-0.160046,1.302364
2025-12-31T15:13:40.978007,8.173882,-7.255038,2.067398,0.273667,-0.103847,1.225395
2025-12-31T15:13:40.988007,8.312665,-7.551748,1.871187,-0.069638,-0.024434,1.180191
2025-12-31T15:13:40.997007,8.260023,-8.307880,1.105484,-0.356745,0.069638,1.149648
2025-12-31T15:13:41.007007,8.087740,-9.312865,0.526420,-0.482583,0.171042,1.073900
2025-12-31T15:13:41.016007,7.915457,-10.461420,0.220139,-0.520457,0.217467,1.014036
2025-12-31T15:13:41.026007,7.834101,-11.571690,-0.057427,-0.394618,0.222354,0.924849
2025-12-31T15:13:41.036007,7.767102,-12.035897,-0.162711,-0.073303,0.229685,0.789237
2025-12-31T15:13:41.045007,7.642675,-11.892328,0.095712,0.295658,0.233350,0.648738
2025-12-31T15:13:41.055007,7.680960,-11.097911,0.421136,0.626747,0.215024,0.498465
2025-12-31T15:13:41.065007,7.551748,-9.801001,0.928415,0.883310,0.206472,0.324980
2025-12-31T15:13:41.074007,7.494320,-8.346165,1.555334,0.938288,0.208915,0.147829
2025-12-31T15:13:41.084007,7.360322,-7.178467,2.258824,0.777020,0.197920,-0.024434
2025-12-31T15:13:41.093007,7.398607,-6.412764,2.522035,0.489913,0.188146,-0.205250
2025-12-31T15:13:41.103007,7.417750,-5.943771,2.435893,0.130725,0.163711,-0.390953
2025-12-31T15:13:41.113007,7.518248,-6.053841,1.737189,-0.265115,0.117286,-0.565661
2025-12-31T15:13:41.122007,7.805387,-6.642475,1.320838,-0.630412,0.058643,-0.723264
2025-12-31T15:13:41.132007,8.011170,-7.652246,1.086341,-0.922406,-0.017104,-0.889419
2025-12-31T15:13:41.141007,8.461020,-8.724231,0.837487,-1.044579,-0.065973,-1.060461
2025-12-31T15:13:41.151007,8.843872,-9.614361,0.550349,-0.968832,-0.072082,-1.224173
2025-12-31T15:13:41.161007,9.135796,-10.059426,0.555134,-0.703716,-0.021991,-1.400102
2025-12-31T15:13:41.170007,9.217152,-9.915856,0.746560,-0.316428,0.067195,-1.589471
2025-12-31T15:13:41.180007,9.131011,-9.092725,0.717846,0.046425,0.171042,-1.750739
2025-12-31T15:13:41.190007,8.848657,-8.059026,0.837487,0.299323,0.248011,-1.910786
2025-12-31T15:13:41.199007,8.537591,-7.063612,0.981057,0.405614,0.289550,-2.080606
2025-12-31T15:13:41.209007,8.317451,-6.369693,0.765703,0.270002,0.257785,-2.210109
2025-12-31T15:13:41.218007,8.341379,-6.178267,0.311066,-0.002443,0.141720,-2.320065
2025-12-31T15:13:41.228007,8.671589,-6.159125,0.081355,-0.239459,-0.012217,-2.460564
2025-12-31T15:13:41.238007,9.178867,-6.556333,-0.229710,-0.530230,-0.182037,-2.559524
2025-12-31T15:13:41.247007,10.159924,-7.408178,-0.411565,-0.816115,-0.361632,-2.593733
2025-12-31T15:13:41.257007,11.198409,-8.097311,-0.488135,-0.900415,-0.444709,-2.641380
2025-12-31T15:13:41.266007,11.911470,-8.365307,-0.464207,-0.855211,-0.394618,-2.645045
2025-12-31T15:13:41.276007,12.236894,-8.365307,-0.421136,-0.781907,-0.211359,-2.570520
2025-12-31T15:13:41.286007,11.906685,-8.173882,-0.449850,-0.671951,0.046425,-2.494773
2025-12-31T15:13:41.295007,11.121839,-7.604390,-0.143569,-0.563217,0.255341,-2.460564
2025-12-31T15:13:41.305007,10.078568,-6.910471,0.086141,-0.503352,0.328645,-2.489886
2025-12-31T15:13:41.315007,9.446863,-6.197410,0.478564,-0.458148,0.251676,-2.613280
2025-12-31T15:13:41.324007,9.375078,-5.446064,0.186640,-0.438601,0.098960,-2.798983
2025-12-31T15:13:41.334007,9.552147,-4.766502,-1.344766,-0.438601,-0.057421,-2.972469
2025-12-31T15:13:41.343007,10.236495,-4.426721,-1.612762,-0.475253,-0.249232,-3.095864
2025-12-31T15:13:41.353007,11.361121,-4.541577,-1.100698,-0.582765,-0.474031,-3.191159
2025-12-31T15:13:41.363007,12.734601,-4.953142,-0.449850,-0.789237,-0.626747,-3.161837
2025-12-31T15:13:41.372007,14.050654,-5.556134,0.047856,-1.040914,-0.581543,-3.066542
2025-12-31T15:13:41.382007,14.763715,-6.273980,0.004785,-1.286481,-0.337197,-2.890613
2025-12-31T15:13:41.391007,14.601003,-6.814758,-0.224925,-1.398881,-0.003665,-2.663371
2025-12-31T15:13:41.401007,13.787443,-6.838686,-0.153140,-1.310916,0.289550,-2.491107
2025-12-31T15:13:41.411007,12.614960,-6.379265,0.038285,-1.127656,0.423940,-2.408030
2025-12-31T15:13:41.420007,11.715259,-5.627918,0.043070,-0.916297,0.384845,-2.387260
2025-12-31T15:13:41.430007,11.246266,-4.508077,0.066999,-0.711046,0.240680,-2.459342
2025-12-31T15:13:41.440007,11.064411,-3.129811,-0.253639,-0.594982,0.090408,-2.559524
2025-12-31T15:13:41.449007,10.983055,-1.741974,-0.923629,-0.590095,0.014660,-2.646267
2025-12-31T15:13:41.459007,10.691131,-0.698704,-1.799402,-0.641408,0.031764,-2.692693
2025-12-31T15:13:41.468007,10.336993,-0.191425,-1.435693,-0.805120,0.009773,-2.706132
2025-12-31T15:13:41.478007,10.308279,-0.765703,-0.263210,-1.141096,-0.136833,-2.722014
2025-12-31T15:13:41.488007,10.748559,-2.215753,0.119641,-1.491732,-0.355523,-2.653598
2025-12-31T15:13:41.497007,11.533404,-3.909872,-0.334995,-1.598023,-0.496022,-2.574185
2025-12-31T15:13:41.507007,12.346964,-5.278566,-0.531206,-1.292590,-0.460592,-2.555859
2025-12-31T15:13:41.516007,12.801600,-5.718846,-0.157926,-0.636521,-0.300545,-2.530203
2025-12-31T15:13:41.526007,12.863814,-5.029713,0.196211,0.111177,-0.095294,-2.476447
2025-12-31T15:13:41.536007,12.480962,-3.694518,0.569491,0.687834,0.111177,-2.408030
2025-12-31T15:13:41.545007,11.873185,-2.244467,0.693918,0.979827,0.262671,-2.307848
2025-12-31T15:13:41.555007,11.040483,-1.019342,0.401994,0.977384,0.331088,-2.191784
2025-12-31T15:13:41.565007,10.265208,-0.248853,0.220139,0.753807,0.309097,-2.070832
2025-12-31T15:13:41.574007,9.647860,0.215354,0.047856,0.458148,0.208915,-1.984089
2025-12-31T15:13:41.584007,9.207581,0.569491,-0.320638,0.189368,0.067195,-1.919338
2025-12-31T15:13:41.593007,9.064012,0.827916,-0.593420,-0.053756,-0.092851,-1.869247
2025-12-31T15:13:41.603007,9.092725,0.942772,-0.516849,-0.279776,-0.255341,-1.811825
2025-12-31T15:13:41.613007,9.288937,0.765703,-0.110069,-0.419053,-0.389731,-1.782504
2025-12-31T15:13:41.622007,9.690931,0.421136,0.172283,-0.496022,-0.449596,-1.751961
2025-12-31T15:13:41.632007,10.279565,-0.143569,0.387637,-0.515570,-0.405614,-1.703091
2025-12-31T15:13:41.641007,10.466206,-0.674775,0.311066,-0.428827,-0.245567,-1.623679
2025-12-31T15:13:41.651007,10.365707,-0.837487,-0.009571,-0.256563,0.000000,-1.503949
2025-12-31T15:13:41.661007,9.710074,-0.665204,-0.220139,-0.087964,0.238237,-1.379333
2025-12-31T15:13:41.670007,8.867800,-0.373280,-0.239282,0.037873,0.379958,-1.259603
2025-12-31T15:13:41.680007,8.049455,0.200997,-0.387637,0.108733,0.404392,-1.171639
2025-12-31T15:13:41.690007,7.513462,0.794417,-0.425922,0.108733,0.327423,-1.116661
2025-12-31T15:13:41.699007,7.302894,1.363908,-0.277567,0.020769,0.171042,-1.091005
2025-12-31T15:13:41.709007,7.398607,1.775474,-0.267996,-0.149051,-0.002443,-1.059240
2025-12-31T15:13:41.718007,7.652246,1.986042,-0.129212,-0.364075,-0.133168,-1.039692
2025-12-31T15:13:41.728007,7.896314,1.871187,0.100498,-0.610865,-0.196698,-1.017701
2025-12-31T15:13:41.738007,8.116454,1.473978,0.234496,-0.833220,-0.179594,-0.946840
2025-12-31T15:13:41.747007,7.996813,0.794417,0.411565,-0.971275,-0.122173,-0.882089
2025-12-31T15:13:41.757007,7.948956,-0.038285,0.406779,-1.000597,-0.064751,-0.802676
2025-12-31T15:13:41.766007,7.767102,-0.770488,0.263210,-0.906523,-0.026878,-0.703716
2025-12-31T15:13:41.776007,7.652246,-1.210768,0.210568,-0.660956,0.010995,-0.607199
2025-12-31T15:13:41.786007,7.580461,-1.091127,-0.038285,-0.316428,0.074525,-0.519235
2025-12-31T15:13:41.795007,7.436892,-0.579063,-0.401994,0.026878,0.177150,-0.436157
2025-12-31T15:13:41.805007,7.010970,0.311066,-0.492921,0.298102,0.304210,-0.359188
2025-12-31T15:13:41.815007,6.412764,1.268195,-0.239282,0.448374,0.410501,-0.313984
2025-12-31T15:13:41.824007,5.766702,2.091326,0.153140,0.415388,0.466700,-0.289550
2025-12-31T15:13:41.834007,5.225924,2.531606,0.459421,0.232128,0.456927,-0.263893
2025-12-31T15:13:41.843007,4.718646,2.675175,0.756131,-0.018325,0.353080,-0.263893
2025-12-31T15:13:41.853007,4.656432,2.589034,0.827916,-0.283441,0.169820,-0.271224
2025-12-31T15:13:41.863007,5.000999,2.282752,0.741775,-0.521678,-0.056199,-0.270002
2025-12-31T15:13:41.872007,5.718846,1.890329,0.358923,-0.697607,-0.245567,-0.248011
2025-12-31T15:13:41.882007,6.484549,1.627119,-0.028713,-0.794124,-0.315206,-0.199142
2025-12-31T15:13:41.891007,6.977470,1.430907,-0.052642,-0.784350,-0.232128,-0.130725
2025-12-31T15:13:41.901007,7.010970,1.339980,0.076570,-0.737925,-0.036651,-0.053756
2025-12-31T15:13:41.911007,6.551548,1.105484,-0.033499,-0.680503,0.205250,0.029321
2025-12-31T15:13:41.920007,5.699703,0.933200,-0.052642,-0.560774,0.409279,0.069638
2025-12-31T15:13:41.930007,4.828716,0.760917,0.239282,-0.390953,0.497244,0.054977
2025-12-31T15:13:41.940007,4.197010,0.679561,0.392422,-0.191811,0.394618,0.009773
2025-12-31T15:13:41.949007,4.225724,0.890130,0.344566,0.001221,0.136833,-0.065973
2025-12-31T15:13:41.959007,5.024927,1.373480,0.234496,0.155159,-0.186924,-0.161268
2025-12-31T15:13:41.968007,6.331408,1.904686,0.291924,0.229685,-0.452040,-0.226020
2025-12-31T15:13:41.978007,7.747959,2.426322,0.153140,0.200363,-0.565661,-0.244346
2025-12-31T15:13:41.988007,8.781658,2.876172,0.019142,0.075747,-0.467922,-0.200363
2025-12-31T15:13:41.997007,9.245866,3.000599,0.105284,-0.111177,-0.212581,-0.122173
2025-12-31T15:13:42.007007,8.834301,2.823530,0.119641,-0.313984,0.080634,-0.028099
2025-12-31T15:13:42.016007,7.972884,2.378465,-0.014356,-0.476474,0.279776,0.032986
2025-12-31T15:13:42.026007,7.082754,1.885544,0.014356,-0.537561,0.334754,0.048869
2025-12-31T15:13:42.036007,6.455835,1.445264,0.133998,-0.502131,0.204028,0.017104
2025-12-31T15:13:42.045007,6.594619,1.205982,-0.076570,-0.398284,-0.065973,-0.034208
2025-12-31T15:13:42.055007,7.436892,1.306481,-0.224925,-0.254119,-0.357966,-0.087964
2025-12-31T15:13:42.065007,8.662017,1.603191,-0.253639,-0.135612,-0.536339,-0.136833
2025-12-31T15:13:42.074007,9.848857,1.990828,-0.282353,-0.113620,-0.532674,-0.127059
2025-12-31T15:13:42.084007,10.638489,2.340180,-0.421136,-0.186924,-0.376292,-0.062308
2025-12-31T15:13:42.093007,10.834700,2.603390,-0.397208,-0.321315,-0.149051,0.017104
2025-12-31T15:13:42.103007,10.423135,2.727817,-0.411565,-0.491135,0.078190,0.114842
2025-12-31T15:13:42.113007,9.561719,2.598605,-0.071784,-0.665842,0.245567,0.190589
2025-12-31T15:13:42.122007,8.537591,2.215753,0.191425,-0.808785,0.304210,0.230907
2025-12-31T15:13:42.132007,7.685746,1.722832,0.320638,-0.874758,0.219911,0.234572
2025-12-31T15:13:42.141007,7.255038,1.134197,0.416351,-0.841772,0.017104,0.211359
2025-12-31T15:13:42.151007,7.398607,0.555134,0.492921,-0.689055,-0.221133,0.173485
2025-12-31T15:13:42.161007,7.925028,0.191425,0.459421,-0.431270,-0.420275,0.141720
2025-12-31T15:13:42.170007,8.733802,0.277567,0.215354,-0.109955,-0.542448,0.124616
2025-12-31T15:13:42.180007,9.667003,0.631705,0.124426,0.204028,-0.559552,0.107512
2025-12-31T15:13:42.190007,10.336993,1.115055,0.181854,0.447153,-0.487470,0.108733
2025-12-31T15:13:42.199007,10.657631,1.732403,0.368494,0.612086,-0.346971,0.145385
2025-12-31T15:13:42.209007,10.614561,2.254038,0.617348,0.691499,-0.186924,0.194255
2025-12-31T15:13:42.218007,10.289137,2.785245,0.899701,0.669508,-0.064751,0.238237
2025-12-31T15:13:42.228007,9.920642,3.220739,0.942772,0.557108,-0.013439,0.291993
2025-12-31T15:13:42.238007,9.542576,3.364308,0.870987,0.381179,-0.017104,0.339641
2025-12-31T15:13:42.247007,9.250652,3.402593,0.937986,0.160046,-0.054977,0.386066
2025-12-31T15:13:42.257007,9.073583,3.125026,0.995414,-0.040317,-0.113620,0.412944
2025-12-31T15:13:42.266007,8.987441,2.813959,1.000199,-0.158824,-0.157603,0.408057
2025-12-31T15:13:42.276007,9.068797,2.373680,1.000199,-0.213802,-0.171042,0.387288
2025-12-31T15:13:42.286007,9.097511,2.024327,0.870987,-0.175929,-0.168598,0.348193
2025-12-31T15:13:42.295007,9.116654,1.813759,0.894915,-0.063529,-0.142942,0.294436
2025-12-31T15:13:42.305007,9.212367,1.775474,0.976271,0.076969,-0.123394,0.244346
2025-12-31T15:13:42.315007,9.269794,1.904686,0.847059,0.215024,-0.123394,0.199142
2025-12-31T15:13:42.324007,9.537790,2.215753,0.842273,0.310319,-0.123394,0.163711
2025-12-31T15:13:42.334007,9.552147,2.325823,1.067198,0.298102,-0.091629,0.160046
2025-12-31T15:13:42.343007,9.485148,2.148754,1.373480,0.215024,-0.040317,0.183259
2025-12-31T15:13:42.353007,9.394221,1.818545,1.344766,0.128281,0.029321,0.222354
2025-12-31T15:13:42.363007,9.202795,1.454836,1.143769,0.069638,0.070860,0.265115
2025-12-31T15:13:42.372007,9.040083,1.129412,0.885344,0.090408,0.068416,0.294436
2025-12-31T15:13:42.382007,8.949156,0.966700,0.617348,0.166155,0.041538,0.313984
2025-12-31T15:13:42.391007,9.016155,0.961914,0.741775,0.246789,0.007330,0.323758
2025-12-31T15:13:42.401007,9.217152,1.062413,0.904486,0.333532,-0.046425,0.329867
2025-12-31T15:13:42.411007,9.600004,1.397408,0.885344,0.400727,-0.095294,0.339641
2025-12-31T15:13:42.420007,9.963713,1.718046,0.756131,0.395840,-0.050090,0.362853
2025-12-31T15:13:42.430007,9.877571,1.904686,0.751346,0.322536,0.122173,0.417831
2025-12-31T15:13:42.440007,9.288937,1.871187,0.904486,0.210137,0.344527,0.475253
2025-12-31T15:13:42.449007,8.355736,1.598405,1.038485,0.065973,0.515570,0.522900
2025-12-31T15:13:42.459007,7.436892,1.076770,1.067198,-0.053756,0.546113,0.547335
2025-12-31T15:13:42.468007,6.742974,0.650847,0.861416,-0.079412,0.439822,0.554665
2025-12-31T15:13:42.478007,6.546762,0.215354,0.492921,-0.030543,0.260228,0.520457
2025-12-31T15:13:42.488007,6.613761,-0.153140,0.449850,0.063529,0.103847,0.494800
2025-12-31T15:13:42.497007,7.087540,-0.397208,0.382851,0.224798,-0.020769,0.483805
2025-12-31T15:13:42.507007,7.709674,-0.416351,0.401994,0.438601,-0.105068,0.487470
2025-12-31T15:13:42.516007,8.346165,-0.153140,0.416351,0.637743,-0.124616,0.503352
2025-12-31T15:13:42.526007,8.896514,0.086141,0.569491,0.770911,-0.042760,0.559552
2025-12-31T15:13:42.536007,9.025726,0.602991,0.473778,0.823446,0.175929,0.659734
2025-12-31T15:13:42.545007,8.417949,0.880558,0.320638,0.795346,0.481361,0.785572
2025-12-31T15:13:42.555007,7.269395,0.990628,0.392422,0.691499,0.744033,0.890641
2025-12-31T15:13:42.565007,6.053841,0.937986,0.478564,0.526565,0.877202,0.993266
2025-12-31T15:13:42.574007,4.833501,0.861416,0.430708,0.365297,0.851545,1.055574
2025-12-31T15:13:42.584007,4.082155,0.794417,0.215354,0.208915,0.700051,1.077566
2025-12-31T15:13:42.593007,3.871586,0.559920,0.066999,0.080634,0.431270,1.086118
2025-12-31T15:13:42.603007,4.292723,0.349352,0.062213,0.009773,0.075747,1.064127
2025-12-31T15:13:42.613007,5.345565,0.133998,-0.105284,-0.026878,-0.265115,1.045801
2025-12-31T15:13:42.622007,6.613761,-0.033499,-0.157926,-0.023212,-0.455705,1.045801
2025-12-31T15:13:42.632007,7.819744,-0.306281,-0.023928,0.042760,-0.416610,1.062905
2025-12-31T15:13:42.641007,8.394021,-0.507278,0.009571,0.133168,-0.188146,1.103222
2025-12-31T15:13:42.651007,8.312665,-0.760917,-0.043070,0.252898,0.117286,1.172861
2025-12-31T15:13:42.661007,7.590033,-0.904486,-0.105284,0.428827,0.386066,1.222951
2025-12-31T15:13:42.670007,6.666403,-0.914058,0.119641,0.636521,0.522900,1.236390
2025-12-31T15:13:42.680007,5.843272,-0.765703,-0.004785,0.819780,0.511904,1.229060
2025-12-31T15:13:42.690007,5.503491,-0.449850,0.000000,0.977384,0.367740,1.204625
2025-12-31T15:13:42.699007,5.771488,0.205782,-0.095712,1.067792,0.142942,1.167974
2025-12-31T15:13:42.709007,6.393621,0.861416,-0.100498,1.012814,-0.070860,1.142317
2025-12-31T15:13:42.718007,7.154539,1.110269,0.004785,0.833220,-0.161268,1.154535
2025-12-31T15:13:42.728007,7.680960,1.148554,0.014356,0.586430,-0.102625,1.205847
2025-12-31T15:13:42.738007,7.747959,0.870987,0.076570,0.312762,0.034208,1.271821
2025-12-31T15:13:42.747007,7.527819,0.263210,0.363709,0.090408,0.141720,1.313359
2025-12-31T15:13:42.757007,7.231109,-0.382851,0.540777,-0.008552,0.153938,1.306029
2025-12-31T15:13:42.766007,7.235895,-0.981057,0.535992,0.007330,0.075747,1.273042
2025-12-31T15:13:42.776007,7.661817,-1.579262,0.406779,0.112399,-0.047647,1.215621
2025-12-31T15:13:42.786007,8.360522,-1.856830,0.028713,0.273667,-0.162490,1.181413
2025-12-31T15:13:42.795007,9.298508,-1.890329,-0.354137,0.427605,-0.210137,1.167974
2025-12-31T15:13:42.805007,10.112068,-1.899901,-0.291924,0.549778,-0.155159,1.189965
2025-12-31T15:13:42.815007,10.537990,-1.670190,0.100498,0.601091,-0.018325,1.269377
2025-12-31T15:13:42.824007,10.667203,-1.239482,0.282353,0.521678,0.147829,1.381776
2025-12-31T15:13:42.834007,10.389635,-0.952343,0.468993,0.300545,0.288328,1.514945
2025-12-31T15:13:42.843007,9.805787,-0.942772,0.617348,-0.010995,0.343306,1.620014
2025-12-31T15:13:42.853007,9.174081,-1.143769,0.669990,-0.331088,0.290771,1.679879
2025-12-31T15:13:42.863007,8.690731,-1.627119,0.669990,-0.598647,0.149051,1.693318
2025-12-31T15:13:42.872007,8.647660,-2.565105,0.875773,-0.755029,-0.068416,1.657887
2025-12-31T15:13:42.882007,9.255437,-3.517449,0.870987,-0.741590,-0.333532,1.600466
2025-12-31T15:13:42.891007,10.360921,-4.249652,0.358923,-0.565661,-0.579100,1.543045
2025-12-31T15:13:42.901007,11.820543,-4.943571,-0.488135,-0.262671,-0.670729,1.496619
2025-12-31T15:13:42.911007,12.973884,-5.321637,-0.947557,0.109955,-0.559552,1.512502
2025-12-31T15:13:42.920007,13.509876,-5.465206,-1.239482,0.492357,-0.301767,1.622457
2025-12-31T15:13:42.930007,13.203595,-5.235495,-1.349551,0.855211,0.009773,1.775174
2025-12-31T15:13:42.940007,12.308679,-4.627718,-1.019342,1.174082,0.279776,1.891238
2025-12-31T15:13:42.949007,11.050054,-3.814159,-0.483350,1.369559,0.405614,1.947437
2025-12-31T15:13:42.959007,9.877571,-3.091526,0.186640,1.386663,0.345749,1.949881
2025-12-31T15:13:42.968007,9.370293,-2.522035,0.703489,1.255938,0.087964,1.896125
2025-12-31T15:13:42.978007,9.705288,-2.129612,1.000199,1.033583,-0.298102,1.789834
2025-12-31T15:13:42.988007,10.791629,-2.129612,1.268195,0.734259,-0.664621,1.671326
2025-12-31T15:13:42.997007,12.323036,-2.493321,0.899701,0.420275,-0.853989,1.585805
2025-12-31T15:13:43.007007,13.600803,-3.158525,-0.014356,0.206472,-0.759916,1.572366
2025-12-31T15:13:43.016007,14.017154,-3.761517,-0.784845,0.147829,-0.439822,1.620014
2025-12-31T15:13:43.026007,13.643874,-4.431507,-1.000199,0.208915,-0.059864,1.676213
2025-12-31T15:13:43.036007,12.653245,-4.957928,-0.894915,0.342084,0.230907,1.731191
2025-12-31T15:13:43.045007,11.523833,-5.450849,-0.497707,0.526565,0.377514,1.770287
2025-12-31T15:13:43.055007,10.389635,-5.575276,-0.277567,0.700051,0.362853,1.802052
2025-12-31T15:13:43.065007,9.690931,-5.292923,-0.162711,0.828333,0.172263,1.810604
2025-12-31T15:13:43.074007,9.513862,-4.680361,0.258424,0.878424,-0.112399,1.765400
2025-12-31T15:13:43.084007,10.001998,-3.871586,1.119840,0.806341,-0.387288,1.674992
2025-12-31T15:13:43.093007,10.930413,-3.077169,1.995614,0.544891,-0.560774,1.627344
2025-12-31T15:13:43.103007,11.605189,-2.694318,2.325823,0.094073,-0.575434,1.656666
2025-12-31T15:13:43.113007,12.040683,-2.924029,2.029113,-0.489913,-0.453261,1.728748
2025-12-31T15:13:43.122007,11.911470,-3.847658,1.560120,-1.026253,-0.259006,1.777617
2025-12-31T15:13:43.132007,11.385049,-5.316851,0.741775,-1.372003,-0.086742,1.776395
2025-12-31T15:13:43.141007,10.758130,-7.202396,0.081355,-1.497841,-0.002443,1.753182
2025-12-31T15:13:43.151007,10.413563,-9.231509,-0.023928,-1.346346,-0.031764,1.699426
2025-12-31T15:13:43.161007,10.413563,-10.700702,0.023928,-0.840550,-0.128281,1.626122
2025-12-31T15:13:43.170007,10.657631,-11.265408,-0.224925,-0.146607,-0.239459,1.560149
2025-12-31T15:13:43.180007,10.992627,-11.040483,-0.177068,0.533896,-0.305432,1.527162
2025-12-31T15:13:43.190007,11.466405,-10.126425,0.129212,1.104444,-0.300545,1.550375
2025-12-31T15:13:43.199007,11.796615,-8.709874,0.550349,1.436754,-0.234572,1.623679
2025-12-31T15:13:43.209007,11.892328,-7.125825,0.995414,1.475850,-0.116064,1.696983
2025-12-31T15:13:43.218007,11.629117,-5.867201,1.430907,1.248608,0.036651,1.765400
2025-12-31T15:13:43.228007,11.222337,-5.297709,1.828116,0.737925,0.171042,1.844812
2025-12-31T15:13:43.238007,10.427920,-5.359922,1.660618,0.102625,0.273667,1.920559
2025-12-31T15:13:43.247007,9.513862,-6.025127,1.493121,-0.452040,0.349414,1.938885
2025-12-31T15:13:43.257007,8.513662,-6.991827,1.172483,-0.907745,0.359188,1.926668
2025-12-31T15:13:43.266007,7.838886,-8.130811,0.904486,-1.170417,0.261450,1.885129
2025-12-31T15:13:43.276007,7.475177,-9.217152,0.708275,-1.178969,0.117286,1.808160
2025-12-31T15:13:43.286007,7.384250,-10.054640,0.698704,-1.044579,-0.053756,1.743409
2025-12-31T15:13:43.295007,7.618747,-10.427920,0.650847,-0.774576,-0.193033,1.673770
2025-12-31T15:13:43.305007,7.953742,-10.375278,0.655633,-0.416610,-0.244346,1.602910
2025-12-31T15:13:43.315007,8.212167,-10.001998,0.631705,-0.070860,-0.213802,1.544267
2025-12-31T15:13:43.324007,8.384450,-9.561719,0.985842,0.250454,-0.111177,1.462411
2025-12-31T15:13:43.334007,8.312665,-9.025726,1.143769,0.394618,-0.004886,1.396437
2025-12-31T15:13:43.343007,8.169096,-8.987441,0.866201,0.382401,0.046425,1.347568
2025-12-31T15:13:43.353007,8.063812,-9.092725,0.617348,0.430049,0.095294,1.232725
2025-12-31T15:13:43.363007,7.838886,-8.977870,0.756131,0.510683,0.135612,1.095892
2025-12-31T15:13:43.372007,7.709674,-8.824729,0.799202,0.557108,0.146607,0.981049
2025-12-31T15:13:43.382007,7.479963,-8.441878,0.641276,0.625525,0.162490,0.868650
2025-12-31T15:13:43.391007,7.216752,-7.819744,0.693918,0.619417,0.173485,0.783129
2025-12-31T15:13:43.401007,7.068397,-7.379464,0.928415,0.445931,0.146607,0.714712
2025-12-31T15:13:43.411007,6.991827,-7.097111,1.138983,0.184481,0.079412,0.619417
2025-12-31T15:13:43.420007,7.044469,-7.039684,1.258624,-0.095294,-0.001221,0.488692
2025-12-31T15:13:43.430007,7.226324,-7.389036,1.172483,-0.322536,-0.057421,0.315206
2025-12-31T15:13:43.440007,7.489534,-7.829315,1.048056,-0.434935,-0.070860,0.120951
2025-12-31T15:13:43.449007,7.738388,-8.250452,0.703489,-0.412944,-0.043982,-0.076969
2025-12-31T15:13:43.459007,7.872386,-8.647660,0.421136,-0.351858,-0.012217,-0.285884
2025-12-31T15:13:43.468007,8.130811,-9.217152,0.306281,-0.317649,-0.035430,-0.491135
2025-12-31T15:13:43.478007,8.494520,-9.915856,0.052642,-0.298102,-0.105068,-0.674395
2025-12-31T15:13:43.488007,9.064012,-10.375278,0.081355,-0.169820,-0.149051,-0.858876
2025-12-31T15:13:43.497007,9.509077,-10.360921,0.090927,0.062308,-0.119729,-1.053131
2025-12-31T15:13:43.507007,9.748359,-9.896714,0.177068,0.326201,-0.012217,-1.199739
2025-12-31T15:13:43.516007,9.571290,-8.992227,0.157926,0.566882,0.124616,-1.318246
2025-12-31T15:13:43.526007,9.068797,-7.963313,0.124426,0.680503,0.229685,-1.418428
2025-12-31T15:13:43.536007,8.647660,-7.274180,0.177068,0.588873,0.230907,-1.513723
2025-12-31T15:13:43.545007,8.384450,-6.857829,0.196211,0.375071,0.102625,-1.632231
2025-12-31T15:13:43.555007,8.604590,-6.594619,0.287138,0.185702,-0.079412,-1.789834
2025-12-31T15:13:43.565007,9.116654,-6.345765,0.488135,-0.004886,-0.250454,-1.963320
2025-12-31T15:13:43.574007,9.762716,-6.474977,0.540777,-0.256563,-0.364075,-2.085493
2025-12-31T15:13:43.584007,10.514062,-6.939185,0.416351,-0.536339,-0.408057,-2.135584
2025-12-31T15:13:43.593007,11.064411,-7.484749,0.090927,-0.708603,-0.344527,-2.164905
2025-12-31T15:13:43.603007,11.284551,-7.934599,-0.167497,-0.759916,-0.182037,-2.174679
2025-12-31T15:13:43.613007,11.035697,-8.193024,-0.425922,-0.712268,0.012217,-2.168571
2025-12-31T15:13:43.622007,10.423135,-8.164310,-0.521635,-0.548556,0.171042,-2.186897
2025-12-31T15:13:43.632007,9.820143,-7.795816,-0.564706,-0.378736,0.239459,-2.249205
2025-12-31T15:13:43.641007,9.394221,-7.221538,-0.693918,-0.312762,0.152716,-2.328617
2025-12-31T15:13:43.651007,9.552147,-6.695117,-0.856630,-0.289550,-0.041538,-2.443460
2025-12-31T15:13:43.661007,10.054640,-6.139982,-0.784845,-0.311541,-0.224798,-2.581515
2025-12-31T15:13:43.670007,10.820343,-5.900700,-0.870987,-0.454483,-0.343306,-2.664593
2025-12-31T15:13:43.680007,11.566904,-6.005984,-0.794417,-0.586430,-0.381179,-2.691471
2025-12-31T15:13:43.690007,12.126824,-6.034698,-0.416351,-0.629191,-0.318871,-2.729345
2025-12-31T15:13:43.699007,12.356535,-6.187839,-0.320638,-0.678060,-0.188146,-2.715906
2025-12-31T15:13:43.709007,12.136396,-6.360122,-0.234496,-0.695164,-0.014660,-2.664593
2025-12-31T15:13:43.718007,11.581261,-6.446264,-0.320638,-0.618195,0.151494,-2.630385
2025-12-31T15:13:43.728007,10.877771,-6.192624,-0.277567,-0.475253,0.244346,-2.643824
2025-12-31T15:13:43.738007,10.202995,-5.694917,-0.215354,-0.310319,0.232128,-2.689028
2025-12-31T15:13:43.747007,9.958927,-5.364708,0.076570,-0.163711,0.119729,-2.776992
2025-12-31T15:13:43.757007,10.059426,-4.723431,-0.186640,-0.078190,-0.039095,-2.869844
2025-12-31T15:13:43.766007,10.547562,-4.101297,-0.588634,-0.040317,-0.164933,-2.941926
2025-12-31T15:13:43.776007,10.978270,-3.483949,-0.832702,-0.052534,-0.211359,-2.995682
2025-12-31T15:13:43.786007,11.437692,-3.326023,-0.803988,-0.205250,-0.232128,-2.972469
2025-12-31T15:13:43.795007,11.973684,-3.507877,-0.713061,-0.433714,-0.273667,-2.910161
2025-12-31T15:13:43.805007,12.442677,-3.996013,-0.502492,-0.623082,-0.293215,-2.833192
2025-12-31T15:13:43.815007,12.806386,-4.608576,-0.086141,-0.759916,-0.265115,-2.719571
2025-12-31T15:13:43.824007,13.007383,-5.163711,0.153140,-0.819780,-0.197920,-2.577850
2025-12-31T15:13:43.834007,13.045668,-5.508277,0.181854,-0.750142,-0.089186,-2.422691
2025-12-31T15:13:43.843007,12.792029,-5.584847,0.234496,-0.541226,0.035430,-2.294409
2025-12-31T15:13:43.853007,12.552747,-5.273781,0.464207,-0.274889,0.119729,-2.216218
2025-12-31T15:13:43.863007,12.227323,-4.622933,0.363709,0.006108,0.166155,-2.142914
2025-12-31T15:13:43.872007,11.887542,-3.594019,0.282353,0.313984,0.222354,-2.134362
2025-12-31T15:13:43.882007,11.341979,-2.321037,0.004785,0.541226,0.298102,-2.149023
2025-12-31T15:13:43.891007,10.657631,-1.124626,-0.473778,0.597426,0.351858,-2.097710
2025-12-31T15:13:43.901007,9.978070,-0.047856,-0.583848,0.474031,0.339641,-2.042732
2025-12-31T15:13:43.911007,9.437292,0.449850,-0.205782,0.172263,0.227241,-1.997528
2025-12-31T15:13:43.920007,9.154939,0.579063,0.291924,-0.257785,0.018325,-1.936442
2025-12-31T15:13:43.930007,9.408578,0.339780,0.430708,-0.701273,-0.228463,-1.866803
2025-12-31T15:13:43.940007,9.891928,-0.086141,0.435493,-1.038470,-0.421496,-1.798386
2025-12-31T15:13:43.949007,10.657631,-0.507278,0.416351,-1.205847,-0.491135,-1.731191
2025-12-31T15:13:43.959007,11.126625,-0.961914,0.454636,-1.210734,-0.416610,-1.663996
2025-12-31T15:13:43.968007,11.203195,-1.301695,0.387637,-1.106887,-0.221133,-1.578475
2025-12-31T15:13:43.978007,10.643274,-1.383051,0.387637,-0.872315,0.035430,-1.496619
2025-12-31T15:13:43.988007,9.623932,-1.239482,0.593420,-0.609643,0.266337,-1.457524
2025-12-31T15:13:43.997007,8.513662,-1.292124,0.760917,-0.410501,0.365297,-1.425759
2025-12-31T15:13:44.007007,7.551748,-1.110269,0.698704,-0.227241,0.312762,-1.417207
2025-12-31T15:13:44.016007,6.929614,-0.847059,0.464207,-0.070860,0.142942,-1.423315
2025-12-31T15:13:44.026007,6.876972,-0.574277,0.373280,0.007330,-0.124616,-1.418428
2025-12-31T15:13:44.036007,7.412964,-0.311066,0.200997,0.067195,-0.427605,-1.404989
2025-12-31T15:13:44.045007,8.398807,0.081355,-0.110069,0.142942,-0.651182,-1.384220
2025-12-31T15:13:44.055007,9.480363,0.602991,-0.421136,0.196698,-0.717155,-1.324355
2025-12-31T15:13:44.065007,10.236495,1.004985,-0.315852,0.243124,-0.588873,-1.236390
2025-12-31T15:13:44.074007,10.341779,1.239482,-0.263210,0.259006,-0.318871,-1.143539
2025-12-31T15:13:44.084007,9.729216,1.162911,0.028713,0.245567,0.013439,-1.031140
2025-12-31T15:13:44.093007,8.614161,0.971485,0.014356,0.261450,0.296880,-0.944397
2025-12-31T15:13:44.103007,7.350751,0.756131,0.033499,0.340862,0.436157,-0.884532
2025-12-31T15:13:44.113007,6.288337,0.626919,0.172283,0.464257,0.419053,-0.864984
2025-12-31T15:13:44.122007,5.575276,0.641276,0.239282,0.555887,0.260228,-0.858876
2025-12-31T15:13:44.132007,5.474778,0.842273,0.239282,0.604756,0.014660,-0.852767
2025-12-31T15:13:44.141007,5.819344,1.282552,0.009571,0.621860,-0.235793,-0.857654
2025-12-31T15:13:44.151007,6.580262,1.780260,-0.186640,0.561995,-0.410501,-0.840550
2025-12-31T15:13:44.161007,7.451249,2.158325,-0.502492,0.438601,-0.461814,-0.779463
2025-12-31T15:13:44.170007,7.934599,2.512463,-0.358923,0.289550,-0.368962,-0.706160
2025-12-31T15:13:44.180007,8.006384,2.684746,-0.157926,0.074525,-0.168598,-0.621860
2025-12-31T15:13:44.190007,7.599604,2.545963,0.071784,-0.175929,0.056199,-0.520457
2025-12-31T15:13:44.199007,6.776473,2.364108,0.253639,-0.372627,0.240680,-0.442266
2025-12-31T15:13:44.209007,5.838487,2.215753,0.301495,-0.518013,0.327423,-0.398284
2025-12-31T15:13:44.218007,5.048855,1.919043,0.521635,-0.629191,0.307876,-0.375071
2025-12-31T15:13:44.228007,4.560719,1.627119,0.579063,-0.685390,0.199142,-0.365297
2025-12-31T15:13:44.238007,4.383651,1.416550,0.660419,-0.684168,0.046425,-0.366519
2025-12-31T15:13:44.247007,4.622933,1.387837,0.464207,-0.660956,-0.111177,-0.368962
2025-12-31T15:13:44.257007,5.020141,1.368694,0.263210,-0.624304,-0.222354,-0.361632
2025-12-31T15:13:44.266007,5.575276,1.383051,0.148355,-0.576656,-0.268780,-0.354301
2025-12-31T15:13:44.276007,5.924628,1.464407,0.100498,-0.530230,-0.243124,-0.315206
2025-12-31T15:13:44.286007,6.144768,1.497906,0.282353,-0.497244,-0.175929,-0.273667
2025-12-31T15:13:44.295007,6.235695,1.387837,0.382851,-0.453261,-0.108733,-0.228463
2025-12-31T15:13:44.305007,6.183053,1.368694,0.449850,-0.367740,-0.047647,-0.189368
2025-12-31T15:13:44.315007,6.178267,1.502692,0.363709,-0.287106,-0.014660,-0.169820
2025-12-31T15:13:44.324007,6.278766,1.660618,0.382851,-0.216246,-0.026878,-0.151494
2025-12-31T15:13:44.334007,6.508477,1.947757,0.387637,-0.185702,-0.081855,-0.152716
2025-12-31T15:13:44.343007,6.920042,2.172682,0.253639,-0.217467,-0.141720,-0.153938
2025-12-31T15:13:44.353007,7.412964,2.402393,0.258424,-0.306654,-0.173485,-0.171042
2025-12-31T15:13:44.363007,7.824529,2.478964,0.220139,-0.422718,-0.172263,-0.171042
2025-12-31T15:13:44.372007,8.121239,2.536391,0.196211,-0.554665,-0.146607,-0.164933
2025-12-31T15:13:44.382007,8.379664,2.402393,0.167497,-0.692721,-0.103847,-0.134390
2025-12-31T15:13:44.391007,8.413164,2.182254,0.124426,-0.792902,-0.058643,-0.087964
2025-12-31T15:13:44.401007,8.307880,1.990828,0.143569,-0.840550,-0.008552,-0.037873
2025-12-31T15:13:44.411007,8.231309,1.880758,0.148355,-0.866206,0.018325,0.017104
2025-12-31T15:13:44.420007,8.039883,1.832902,0.090927,-0.858876,-0.002443,0.057421
2025-12-31T15:13:44.430007,8.039883,1.794616,0.066999,-0.838106,-0.054977,0.085521
2025-12-31T15:13:44.440007,8.250452,1.641476,0.071784,-0.812450,-0.135612,0.102625
2025-12-31T15:13:44.449007,8.604590,1.450050,0.124426,-0.748920,-0.212581,0.107512
2025-12-31T15:13:44.459007,9.083154,1.263410,0.052642,-0.632856,-0.266337,0.111177
2025-12-31T15:13:44.468007,9.475577,1.167697,-0.019142,-0.493579,-0.277332,0.109955
2025-12-31T15:13:44.478007,9.729216,1.201196,0.004785,-0.350636,-0.243124,0.124616
2025-12-31T15:13:44.488007,9.911071,1.301695,0.124426,-0.212581,-0.188146,0.161268
2025-12-31T15:13:44.497007,9.853643,1.646261,0.162711,-0.087964,-0.128281,0.204028
2025-12-31T15:13:44.507007,9.614361,1.962114,0.449850,-0.023212,-0.075747,0.240680
2025-12-31T15:13:44.516007,9.308079,2.105683,0.665204,-0.012217,-0.034208,0.279776
2025-12-31T15:13:44.526007,8.819944,2.172682,0.827916,-0.030543,-0.007330,0.317649
2025-12-31T15:13:44.536007,8.465806,2.057827,0.875773,-0.061086,-0.013439,0.349414
2025-12-31T15:13:44.545007,8.207381,1.856830,0.870987,-0.083077,-0.070860,0.362853
2025-12-31T15:13:44.555007,8.279166,1.694118,0.708275,-0.034208,-0.172263,0.368962
2025-12-31T15:13:44.565007,8.772087,1.813759,0.569491,0.059864,-0.276111,0.346971
2025-12-31T15:13:44.574007,9.475577,2.043470,0.416351,0.128281,-0.342084,0.331088
2025-12-31T15:13:44.584007,10.092925,2.450250,0.263210,0.162490,-0.331088,0.328645
2025-12-31T15:13:44.593007,10.466206,2.847458,0.344566,0.128281,-0.259006,0.335975
2025-12-31T15:13:44.603007,10.638489,3.101098,0.540777,0.012217,-0.151494,0.365297
2025-12-31T15:13:44.613007,10.547562,3.072384,0.607776,-0.144164,-0.036651,0.395840
2025-12-31T15:13:44.622007,10.231709,2.991028,0.583848,-0.300545,0.052534,0.423940
2025-12-31T15:13:44.632007,9.796215,2.574677,0.617348,-0.421496,0.084299,0.448374
2025-12-31T15:13:44.641007,9.513862,2.335394,0.612562,-0.449596,0.046425,0.442266
2025-12-31T15:13:44.651007,9.399007,2.072184,0.526420,-0.398284,-0.026878,0.417831
2025-12-31T15:13:44.661007,9.494720,1.904686,0.445065,-0.278554,-0.101403,0.384845
2025-12-31T15:13:44.670007,9.810572,1.890329,0.215354,-0.112399,-0.149051,0.351858
2025-12-31T15:13:44.680007,10.083354,2.129612,0.492921,0.046425,-0.157603,0.300545
2025-12-31T15:13:44.690007,10.265208,2.297109,0.646062,0.157603,-0.113620,0.274889
2025-12-31T15:13:44.699007,10.169496,2.488535,0.669990,0.238237,-0.006108,0.273667
2025-12-31T15:13:44.709007,9.824929,2.656033,0.626919,0.285884,0.122173,0.285884
2025-12-31T15:13:44.718007,9.365507,2.852244,0.579063,0.284663,0.189368,0.305432
2025-12-31T15:13:44.728007,9.001798,2.991028,0.473778,0.238237,0.164933,0.326201
2025-12-31T15:13:44.738007,8.757730,3.038884,0.478564,0.144164,0.084299,0.340862
2025-12-31T15:13:44.747007,8.772087,2.885744,0.531206,0.014660,-0.004886,0.361632
2025-12-31T15:13:44.757007,8.829515,2.665604,0.708275,-0.075747,-0.041538,0.365297
2025-12-31T15:13:44.766007,8.925228,2.244467,0.856630,-0.147829,-0.028099,0.349414
2025-12-31T15:13:44.776007,8.925228,1.770688,0.827916,-0.186924,-0.003665,0.344527
2025-12-31T15:13:44.786007,9.078368,1.406979,0.746560,-0.112399,0.012217,0.334754
2025-12-31T15:13:44.795007,9.250652,1.383051,0.574277,0.013439,0.000000,0.293215
2025-12-31T15:13:44.805007,9.499505,1.263410,0.449850,0.119729,-0.024434,0.257785
2025-12-31T15:13:44.815007,9.939785,1.540977,0.330209,0.217467,-0.061086,0.261450
2025-12-31T15:13:44.824007,10.442277,2.048256,0.033499,0.256563,-0.083077,0.285884
2025-12-31T15:13:44.834007,10.657631,2.292324,-0.057427,0.166155,-0.034208,0.348193
2025-12-31T15:13:44.843007,10.552347,2.435893,0.000000,0.030543,0.091629,0.432492
2025-12-31T15:13:44.853007,9.920642,2.344966,0.344566,-0.100181,0.274889,0.488692
2025-12-31T15:13:44.863007,8.853443,2.005185,0.579063,-0.244346,0.434935,0.507018
2025-12-31T15:13:44.872007,7.810172,1.268195,0.760917,-0.291993,0.481361,0.472809
2025-12-31T15:13:44.882007,6.848258,0.516849,1.134197,-0.189368,0.400727,0.379958
2025-12-31T15:13:44.891007,6.494120,-0.114855,1.292124,0.000000,0.240680,0.257785
2025-12-31T15:13:44.901007,6.632904,-0.598205,1.335195,0.270002,0.058643,0.135612
2025-12-31T15:13:44.911007,7.154539,-0.636490,1.076770,0.612086,-0.053756,0.050090
2025-12-31T15:13:44.920007,7.738388,-0.272781,0.928415,0.904080,-0.056199,0.006108
2025-12-31T15:13:44.930007,8.111668,0.129212,0.789631,1.066570,0.018325,0.024434
2025-12-31T15:13:44.940007,8.303094,0.550349,0.641276,1.120326,0.124616,0.101403
2025-12-31T15:13:44.949007,8.255237,0.909272,0.665204,1.070235,0.244346,0.205250
2025-12-31T15:13:44.959007,7.968099,1.134197,0.693918,0.908967,0.343306,0.323758
2025-12-31T15:13:44.968007,7.489534,1.263410,0.703489,0.695164,0.417831,0.432492
2025-12-31T15:13:44.978007,6.881757,1.229910,0.650847,0.502131,0.460592,0.510683
2025-12-31T15:13:44.988007,6.230910,1.129412,0.813559,0.344527,0.445931,0.552222
2025-12-31T15:13:44.997007,5.862415,0.942772,0.937986,0.211359,0.357966,0.555887
2025-12-31T15:13:45.007007,5.690132,0.646062,0.976271,0.105068,0.226020,0.553443
2025-12-31T15:13:45.016007,5.828915,0.172283,0.713061,0.064751,0.100181,0.557108
2025-12-31T15:13:45.026007,6.049055,-0.196211,0.636490,0.100181,0.017104,0.563217
2025-12-31T15:13:45.036007,6.336194,-0.622133,0.512064,0.194255,-0.014660,0.587652
2025-12-31T15:13:45.045007,6.723831,-0.971485,0.114855,0.334754,-0.017104,0.627969
2025-12-31T15:13:45.055007,6.982256,-1.158126,0.105284,0.508239,0.008552,0.675616
2025-12-31T15:13:45.065007,7.183253,-1.354337,0.311066,0.690277,0.042760,0.734259
2025-12-31T15:13:45.074007,7.408178,-1.296909,0.387637,0.853989,0.094073,0.816115
2025-12-31T15:13:45.084007,7.599604,-1.167697,0.411565,1.007927,0.166155,0.906523
2025-12-31T15:13:45.093007,7.877171,-0.875773,0.464207,1.111774,0.222354,0.993266
2025-12-31T15:13:45.103007,8.073383,-0.421136,0.464207,1.120326,0.259006,1.091005
2025-12-31T15:13:45.113007,8.202595,-0.023928,0.416351,1.028696,0.300545,1.185078
2025-12-31T15:13:45.122007,8.159525,0.320638,0.358923,0.846659,0.355523,1.288925
2025-12-31T15:13:45.132007,8.044669,0.421136,0.358923,0.591317,0.397062,1.393994
2025-12-31T15:13:45.141007,7.709674,0.368494,0.430708,0.331088,0.393397,1.500284
2025-12-31T15:13:45.151007,7.499106,0.224925,0.306281,0.087964,0.321315,1.585805
2025-12-31T15:13:45.161007,7.518248,0.019142,0.224925,-0.094073,0.213802,1.654222
2025-12-31T15:13:45.170007,7.728816,-0.277567,0.272781,-0.193033,0.113620,1.689652
2025-12-31T15:13:45.180007,8.020741,-0.502492,0.416351,-0.246789,0.057421,1.721417
2025-12-31T15:13:45.190007,8.379664,-0.722632,0.406779,-0.261450,0.069638,1.766621
2025-12-31T15:13:45.199007,8.690731,-1.033699,0.224925,-0.257785,0.150272,1.816712
2025-12-31T15:13:45.209007,8.695517,-1.282552,-0.038285,-0.246789,0.266337,1.875355
2025-12-31T15:13:45.218007,8.451449,-1.517049,-0.224925,-0.222354,0.367740,1.925446
2025-12-31T15:13:45.228007,8.063812,-1.751546,-0.349352,-0.197920,0.399505,1.969429
2025-12-31T15:13:45.238007,7.743173,-1.804188,-0.392422,-0.152716,0.338419,1.992641
2025-12-31T15:13:45.247007,7.709674,-1.866401,-0.196211,-0.094073,0.190589,1.973094
2025-12-31T15:13:45.257007,8.135596,-1.737189,0.090927,-0.054977,-0.040317,1.938885
2025-12-31T15:13:45.266007,9.044869,-1.780260,0.248853,-0.048869,-0.291993,1.902233
2025-12-31T15:13:45.276007,10.246066,-1.775474,0.239282,-0.064751,-0.458148,1.879021
2025-12-31T15:13:45.286007,11.456834,-1.899901,0.095712,-0.085521,-0.443488,1.882686
2025-12-31T15:13:45.295007,12.035897,-2.096112,-0.224925,-0.079412,-0.235793,1.932777
2025-12-31T15:13:45.305007,11.949756,-2.287538,-0.492921,-0.017104,0.092851,2.010967
2025-12-31T15:13:45.315007,11.088339,-2.435893,-0.693918,0.091629,0.427605,2.090380
2025-12-31T15:13:45.324007,9.600004,-2.388036,-0.736989,0.184481,0.636521,2.133140
2025-12-31T15:13:45.334007,8.212167,-2.431107,-0.660419,0.232128,0.657290,2.124588
2025-12-31T15:13:45.343007,7.216752,-2.550748,-0.607776,0.212581,0.493579,2.101375
2025-12-31T15:13:45.353007,6.723831,-2.871387,-0.708275,0.136833,0.162490,2.068389
2025-12-31T15:13:45.363007,7.054041,-3.268595,-0.105284,0.123394,-0.302989,1.969429
2025-12-31T15:13:45.372007,8.350950,-3.421736,0.746560,0.151494,-0.768468,1.819156
2025-12-31T15:13:45.382007,10.394421,-3.661018,1.143769,0.189368,-1.082452,1.689652
2025-12-31T15:13:45.391007,12.342178,-3.651447,0.966700,0.280997,-1.086118,1.624901
2025-12-31T15:13:45.401007,13.806586,-3.651447,0.579063,0.378736,-0.778242,1.620014
2025-12-31T15:13:45.411007,14.103296,-3.842873,0.110069,0.443488,-0.273667,1.676213
2025-12-31T15:13:45.420007,13.275379,-4.043870,-0.148355,0.516791,0.252898,1.764178
2025-12-31T15:13:45.430007,11.581261,-4.187439,-0.435493,0.546113,0.632856,1.839925
2025-12-31T15:13:45.440007,9.729216,-4.311866,-0.507278,0.504574,0.730594,1.870468
2025-12-31T15:13:45.449007,8.255237,-4.235296,-0.114855,0.406836,0.527787,1.828930
2025-12-31T15:13:45.459007,7.666603,-4.206582,0.569491,0.194255,0.073303,1.728748
2025-12-31T15:13:45.468007,8.130811,-4.503292,1.043270,-0.095294,-0.514348,1.623679
2025-12-31T15:13:45.478007,9.757930,-5.120640,1.339980,-0.386066,-1.051909,1.527162
2025-12-31T15:13:45.488007,11.820543,-6.010770,1.387837,-0.591317,-1.337794,1.473406
2025-12-31T15:13:45.497007,13.753944,-6.967899,0.808774,-0.605978,-1.263269,1.485623
2025-12-31T15:13:45.507007,14.802000,-7.676174,0.157926,-0.387288,-0.861319,1.547932
2025-12-31T15:13:45.516007,14.624931,-8.073383,-0.177068,0.035430,-0.276111,1.615127
2025-12-31T15:13:45.526007,13.375878,-8.197810,-0.263210,0.571769,0.283441,1.684765
2025-12-31T15:13:45.536007,11.456834,-7.791030,-0.196211,1.123991,0.643851,1.734856
2025-12-31T15:13:45.545007,9.638289,-7.068397,0.181854,1.562592,0.725707,1.732413
2025-12-31T15:13:45.555007,8.523234,-6.264409,0.679561,1.795943,0.555887,1.681100
2025-12-31T15:13:45.565007,8.073383,-5.388636,0.995414,1.777617,0.238237,1.618792
2025-12-31T15:13:45.574007,8.413164,-4.737788,1.344766,1.500284,-0.123394,1.579697
2025-12-31T15:13:45.584007,9.245866,-4.378865,1.574477,1.009149,-0.427605,1.577253
2025-12-31T15:13:45.593007,10.336993,-4.393222,1.694118,0.395840,-0.596204,1.637118
2025-12-31T15:13:45.603007,11.097911,-4.661218,1.473978,-0.208915,-0.561995,1.753182
2025-12-31T15:13:45.613007,11.174481,-5.187639,1.229910,-0.715933,-0.351858,1.864360
2025-12-31T15:13:45.622007,10.494919,-5.895914,1.071984,-1.122770,-0.090408,1.959655
2025-12-31T15:13:45.632007,9.408578,-6.762116,0.847059,-1.401324,0.090408,2.042732
2025-12-31T15:13:45.641007,8.145168,-7.633104,0.416351,-1.512502,0.136833,2.064724
2025-12-31T15:13:45.651007,7.317251,-8.518448,0.445065,-1.483180,0.034208,1.991420
2025-12-31T15:13:45.661007,7.063612,-9.523433,0.473778,-1.339016,-0.172263,1.861916
2025-12-31T15:13:45.670007,7.255038,-10.466206,0.177068,-1.051909,-0.404392,1.727526
2025-12-31T15:13:45.680007,7.896314,-10.997412,-0.354137,-0.597426,-0.541226,1.596801
2025-12-31T15:13:45.690007,8.575876,-11.121839,-0.746560,-0.087964,-0.544891,1.501506
2025-12-31T15:13:45.699007,9.054440,-10.734202,-0.674775,0.399505,-0.423940,1.473406
2025-12-31T15:13:45.709007,9.174081,-9.690931,-0.406779,0.759916,-0.249232,1.505171
2025-12-31T15:13:45.718007,9.011369,-8.417949,-0.224925,0.857654,-0.117286,1.567479
2025-12-31T15:13:45.728007,8.647660,-7.322037,0.119641,0.706160,-0.051312,1.591914
2025-12-31T15:13:45.738007,8.303094,-6.518048,0.693918,0.376292,-0.045204,1.568701
2025-12-31T15:13:45.747007,8.035098,-6.479763,1.028913,-0.145385,-0.100181,1.546710
2025-12-31T15:13:45.757007,7.925028,-7.336394,1.057627,-0.803898,-0.189368,1.547932
2025-12-31T15:13:45.766007,8.001598,-9.044869,0.751346,-1.309694,-0.245567,1.539380
2025-12-31T15:13:45.776007,8.011170,-10.920842,0.272781,-1.528384,-0.239459,1.532049
2025-12-31T15:13:45.786007,8.044669,-12.605389,-0.267996,-1.485623,-0.208915,1.551597
2025-12-31T15:13:45.795007,8.078169,-13.581661,-0.784845,-1.150869,-0.147829,1.554040
2025-12-31T15:13:45.805007,7.781459,-13.758729,-1.124626,-0.607199,-0.051312,1.513723
2025-12-31T15:13:45.815007,7.360322,-13.351950,-0.866201,-0.041538,0.039095,1.430646
2025-12-31T15:13:45.824007,7.010970,-12.442677,-0.464207,0.417831,0.073303,1.301142
2025-12-31T15:13:45.834007,6.809973,-11.475977,-0.196211,0.750142,0.058643,1.130100
2025-12-31T15:13:45.843007,6.805187,-10.509276,0.200997,0.985936,0.072082,0.919962
2025-12-31T15:13:45.853007,6.833901,-9.815358,0.756131,1.025031,0.112399,0.769690
2025-12-31T15:13:45.863007,6.781259,-9.360722,0.918843,0.852767,0.139277,0.713490
2025-12-31T15:13:45.872007,6.714260,-9.288937,0.751346,0.623082,0.194255,0.642630
2025-12-31T15:13:45.882007,6.460621,-9.351150,0.751346,0.398284,0.224798,0.544891
2025-12-31T15:13:45.891007,6.388836,-9.638289,0.985842,0.223576,0.204028,0.408057
2025-12-31T15:13:45.901007,6.288337,-9.777073,0.784845,0.149051,0.171042,0.252898
2025-12-31T15:13:45.911007,6.245266,-9.757930,0.555134,0.161268,0.145385,0.101403
2025-12-31T15:13:45.920007,6.345765,-9.418149,0.430708,0.226020,0.136833,-0.068416
2025-12-31T15:13:45.930007,6.269195,-8.949156,0.334995,0.285884,0.140498,-0.239459
2025-12-31T15:13:45.940007,6.302694,-8.551947,0.296710,0.276111,0.120951,-0.408057
2025-12-31T15:13:45.949007,6.350551,-8.441878,0.387637,0.193033,0.073303,-0.598647
2025-12-31T15:13:45.959007,6.671189,-8.379664,0.741775,0.102625,0.013439,-0.810007
2025-12-31T15:13:45.968007,7.121040,-8.322237,0.966700,0.086742,-0.032986,-1.060461
2025-12-31T15:13:45.978007,7.527819,-8.030312,0.981057,0.119729,-0.035430,-1.297477
2025-12-31T15:13:45.988007,7.881957,-7.690531,0.851844,0.129503,-0.002443,-1.501506
2025-12-31T15:13:45.997007,8.121239,-7.642675,0.665204,0.100181,0.040317,-1.673770
2025-12-31T15:13:46.007007,8.226524,-7.551748,0.473778,0.046425,0.069638,-1.832595
2025-12-31T15:13:46.016007,8.441878,-7.891528,0.210568,-0.102625,0.053756,-1.964542
2025-12-31T15:13:46.026007,8.762516,-8.441878,-0.090927,-0.279776,-0.036651,-2.068389
2025-12-31T15:13:46.036007,9.231509,-8.934799,-0.258424,-0.288328,-0.127059,-2.200336
2025-12-31T15:13:46.045007,9.724431,-8.949156,-0.282353,-0.160046,-0.151494,-2.334726
2025-12-31T15:13:46.055007,10.025926,-8.595018,-0.110069,0.015882,-0.101403,-2.434908
2025-12-31T15:13:46.065007,9.911071,-7.819744,-0.114855,0.202807,0.007330,-2.504546
2025-12-31T15:13:46.074007,9.662217,-6.723831,0.234496,0.321315,0.113620,-2.585181
2025-12-31T15:13:46.084007,9.212367,-5.819344,0.698704,0.317649,0.177150,-2.695136
2025-12-31T15:13:46.093007,8.877371,-5.345565,1.138983,0.167377,0.162490,-2.811201
2025-12-31T15:13:46.103007,8.882157,-5.230710,1.043270,-0.138055,0.043982,-2.896722
2025-12-31T15:13:46.113007,9.355936,-5.508277,0.512064,-0.441044,-0.127059,-2.983465
2025-12-31T15:13:46.122007,10.073783,-6.025127,-0.086141,-0.684168,-0.294436,-3.073873
2025-12-31T15:13:46.132007,11.188838,-6.733402,-0.373280,-0.858876,-0.417831,-3.122742
2025-12-31T15:13:46.141007,12.222537,-7.360322,-0.602991,-0.880867,-0.423940,-3.126407
2025-12-31T15:13:46.151007,12.849457,-7.451249,-0.545563,-0.766024,-0.282219,-3.075094
2025-12-31T15:13:46.161007,12.954741,-7.197610,-0.440279,-0.671951,-0.062308,-2.973691
2025-12-31T15:13:46.170007,12.562318,-6.824330,-0.267996,-0.662177,0.142942,-2.838079
2025-12-31T15:13:46.180007,11.672188,-6.297909,-0.263210,-0.714712,0.268780,-2.737897
2025-12-31T15:13:46.190007,10.805986,-5.747559,-0.124426,-0.818559,0.276111,-2.696358
2025-12-31T15:13:46.199007,10.284351,-5.259424,0.229710,-0.938288,0.162490,-2.747671
2025-12-31T15:13:46.209007,10.217352,-5.000999,0.468993,-1.056796,-0.041538,-2.836857
2025-12-31T15:13:46.218007,10.662417,-4.886143,0.502492,-1.132543,-0.244346,-2.934595
2025-12-31T15:13:46.228007,11.356336,-4.613361,0.181854,-1.126435,-0.322536,-3.023782
2025-12-31T15:13:46.238007,11.882757,-4.297509,-0.445065,-1.045801,-0.227241,-3.084868
2025-12-31T15:13:46.247007,12.145967,-4.225724,-0.990628,-0.965166,-0.042760,-3.097086
2025-12-31T15:13:46.257007,12.308679,-4.603790,-1.033699,-0.913854,0.092851,-3.048216
2025-12-31T15:13:46.266007,12.437891,-5.211567,-0.875773,-0.795346,0.145385,-3.003012
2025-12-31T15:13:46.276007,12.643674,-5.991627,-0.440279,-0.605978,0.164933,-2.939482
2025-12-31T15:13:46.286007,12.825529,-6.752545,0.000000,-0.393397,0.190589,-2.839301
2025-12-31T15:13:46.295007,12.868599,-7.235895,-0.004785,-0.068416,0.265115,-2.693915
2025-12-31T15:13:46.305007,12.658031,-6.967899,-0.315852,0.367740,0.382401,-2.532646
2025-12-31T15:13:46.315007,12.136396,-6.154339,-0.440279,0.788015,0.467922,-2.386039
2025-12-31T15:13:46.324007,11.523833,-5.087140,-0.435493,1.127656,0.455705,-2.273639
2025-12-31T15:13:46.334007,10.959127,-3.890729,-0.239282,1.341459,0.343306,-2.197892
2025-12-31T15:13:46.343007,10.648060,-2.703889,0.133998,1.413541,0.180816,-2.162462
2025-12-31T15:13:46.353007,10.566704,-1.694118,0.205782,1.319468,0.019547,-2.130697
2025-12-31T15:13:46.363007,10.523633,-0.928415,0.320638,1.078787,-0.112399,-2.053728
2025-12-31T15:13:46.372007,10.351350,-0.430708,0.306281,0.756251,-0.185702,-1.966985
2025-12-31T15:13:46.382007,10.236495,-0.196211,0.239282,0.438601,-0.212581,-1.880242
2025-12-31T15:13:46.391007,9.839286,-0.105284,0.325423,0.179594,-0.199142,-1.791056
2025-12-31T15:13:46.401007,9.442077,-0.110069,0.411565,-0.019547,-0.206472,-1.728748
2025-12-31T15:13:46.411007,9.111868,-0.306281,0.583848,-0.175929,-0.259006,-1.681100
2025-12-31T15:13:46.420007,8.963513,-0.579063,0.574277,-0.301767,-0.353080,-1.648114
2025-12-31T15:13:46.430007,8.949156,-0.971485,0.531206,-0.350636,-0.450818,-1.615127
2025-12-31T15:13:46.440007,9.178867,-1.234696,0.339780,-0.305432,-0.518013,-1.576031
2025-12-31T15:13:46.449007,9.389435,-1.306481,0.272781,-0.171042,-0.529009,-1.541823
2025-12-31T15:13:46.459007,9.600004,-1.210768,0.133998,0.007330,-0.456927,-1.507615
2025-12-31T15:13:46.468007,9.461220,-1.024128,-0.167497,0.216246,-0.328645,-1.434311
2025-12-31T15:13:46.478007,9.207581,-0.732203,-0.220139,0.417831,-0.175929,-1.372003
2025-12-31T15:13:46.488007,8.690731,-0.363709,-0.334995,0.541226,-0.064751,-1.310916
2025-12-31T15:13:46.497007,8.231309,-0.057427,-0.291924,0.635299,-0.004886,-1.266934
2025-12-31T15:13:46.507007,7.786244,0.344566,-0.124426,0.674395,-0.002443,-1.262047
2025-12-31T15:13:46.516007,7.451249,0.569491,0.143569,0.636521,-0.059864,-1.273042
2025-12-31T15:13:46.526007,7.393821,0.856630,0.387637,0.557108,-0.160046,-1.273042
2025-12-31T15:13:46.536007,7.633104,1.263410,0.378065,0.463035,-0.283441,-1.273042
2025-12-31T15:13:46.545007,8.049455,1.655833,0.545563,0.320093,-0.367740,-1.266934
2025-12-31T15:13:46.555007,8.480163,2.005185,0.354137,0.075747,-0.384845,-1.189965
2025-12-31T15:13:46.565007,8.757730,2.143969,0.181854,-0.195476,-0.298102,-1.077566
2025-12-31T15:13:46.574007,8.638089,2.292324,0.028713,-0.464257,-0.123394,-0.984714
