Timestamp,Acceleration_X,Acceleration_Y,Acceleration_Z,Gyro_X,Gyro_Y,Gyro_Z
2025-12-31T15:51:48.326157,9.801001,-1.115055,0.985842,-0.020769,-0.023212,0.024434
2025-12-31T15:51:48.336157,9.777073,-1.143769,0.976271,-0.019547,-0.024434,0.017104
2025-12-31T15:51:48.345157,9.805787,-1.148554,1.024128,-0.015882,-0.030543,0.012217
2025-12-31T15:51:48.355157,9.824929,-1.182054,1.033699,-0.013439,-0.034208,0.012217
2025-12-31T15:51:48.364157,9.781858,-1.191625,1.052841,-0.013439,-0.035430,0.012217
2025-12-31T15:51:48.374157,9.848857,-1.205982,1.081555,-0.010995,-0.031764,0.014660
2025-12-31T15:51:48.384157,9.863214,-1.244267,1.062413,-0.007330,-0.026878,0.015882
2025-12-31T15:51:48.393157,9.872786,-1.177268,1.143769,0.002443,-0.023212,0.012217
2025-12-31T15:51:48.403157,9.824929,-1.215553,1.115055,0.009773,-0.025656,0.008552
2025-12-31T15:51:48.413157,9.796215,-1.162911,1.062413,0.015882,-0.024434,0.009773
2025-12-31T15:51:48.422157,9.781858,-1.210768,1.153340,0.020769,-0.025656,0.010995
2025-12-31T15:51:48.432157,9.853643,-1.225125,1.115055,0.024434,-0.024434,0.008552
2025-12-31T15:51:48.441157,9.824929,-1.148554,1.052841,0.032986,-0.021991,0.009773
2025-12-31T15:51:48.451157,9.844072,-1.143769,1.095912,0.041538,-0.021991,0.006108
2025-12-31T15:51:48.461157,9.757930,-1.162911,1.067198,0.043982,-0.020769,0.006108
2025-12-31T15:51:48.470157,9.772287,-1.143769,1.076770,0.046425,-0.024434,0.008552
2025-12-31T15:51:48.480157,9.762716,-1.148554,1.028913,0.048869,-0.029321,0.004886
2025-12-31T15:51:48.489157,9.805787,-1.143769,1.043270,0.050090,-0.030543,0.003665
2025-12-31T15:51:48.499157,9.805787,-1.105484,1.019342,0.047647,-0.032986,0.004886
2025-12-31T15:51:48.509157,9.781858,-1.148554,1.052841,0.040317,-0.032986,0.006108
2025-12-31T15:51:48.518157,9.844072,-1.119840,1.048056,0.040317,-0.028099,0.012217
2025-12-31T15:51:48.528157,9.719645,-1.143769,1.057627,0.047647,-0.023212,0.012217
2025-12-31T15:51:48.538157,9.729216,-1.091127,1.004985,0.048869,-0.023212,0.010995
2025-12-31T15:51:48.547157,9.724431,-0.957129,1.004985,0.039095,-0.025656,0.018325
2025-12-31T15:51:48.557157,9.786644,-1.028913,1.004985,0.025656,-0.036651,0.014660
2025-12-31T15:51:48.566157,9.810572,-1.028913,0.995414,0.013439,-0.047647,0.012217
2025-12-31T15:51:48.576157,9.824929,-1.119840,1.105484,0.003665,-0.057421,0.008552
2025-12-31T15:51:48.586157,9.982855,-1.172483,1.067198,0.002443,-0.052534,0.007330
2025-12-31T15:51:48.595157,10.040283,-1.196411,1.043270,0.009773,-0.039095,0.004886
2025-12-31T15:51:48.605157,9.949356,-1.263410,1.076770,0.019547,-0.023212,0.004886
2025-12-31T15:51:48.614157,9.786644,-1.287338,1.062413,0.035430,-0.014660,0.002443
2025-12-31T15:51:48.624157,9.772287,-1.158126,1.043270,0.052534,-0.021991,0.001221
2025-12-31T15:51:48.634157,9.719645,-1.081555,1.062413,0.053756,-0.032986,-0.002443
2025-12-31T15:51:48.643157,9.796215,-1.110269,1.091127,0.050090,-0.039095,-0.001221
2025-12-31T15:51:48.653157,9.834500,-1.110269,1.115055,0.054977,-0.039095,0.000000
2025-12-31T15:51:48.663157,9.839286,-1.067198,1.162911,0.058643,-0.032986,0.000000
2025-12-31T15:51:48.672157,9.757930,-1.081555,1.095912,0.057421,-0.021991,0.004886
2025-12-31T15:51:48.682157,9.777073,-1.024128,1.100698,0.050090,-0.018325,0.006108
2025-12-31T15:51:48.691157,9.753144,-1.052841,1.048056,0.037873,-0.028099,0.010995
2025-12-31T15:51:48.701157,9.767501,-1.100698,0.995414,0.020769,-0.036651,0.009773
2025-12-31T15:51:48.711157,9.844072,-1.100698,1.000199,0.009773,-0.041538,0.014660
2025-12-31T15:51:48.720157,9.834500,-1.143769,1.062413,0.004886,-0.042760,0.015882
2025-12-31T15:51:48.730157,9.863214,-1.191625,1.000199,0.004886,-0.036651,0.019547
2025-12-31T15:51:48.739157,9.848857,-1.186840,0.947557,0.017104,-0.035430,0.014660
2025-12-31T15:51:48.749157,9.824929,-1.115055,0.937986,0.028099,-0.032986,0.015882
2025-12-31T15:51:48.759157,9.796215,-1.095912,0.976271,0.031764,-0.037873,0.014660
2025-12-31T15:51:48.768157,9.786644,-1.019342,1.076770,0.029321,-0.039095,0.014660
2025-12-31T15:51:48.778157,9.920642,-1.071984,1.100698,0.024434,-0.040317,0.017104
2025-12-31T15:51:48.788157,9.872786,-1.052841,1.105484,0.018325,-0.042760,0.012217
2025-12-31T15:51:48.797157,9.887142,-1.086341,1.057627,0.018325,-0.039095,0.013439
2025-12-31T15:51:48.807157,9.944570,-1.148554,1.081555,0.020769,-0.034208,0.012217
2025-12-31T15:51:48.816157,9.896714,-1.134197,1.134197,0.028099,-0.035430,0.004886
2025-12-31T15:51:48.826157,9.858429,-1.143769,1.095912,0.031764,-0.035430,0.004886
2025-12-31T15:51:48.836157,9.863214,-1.143769,1.095912,0.036651,-0.031764,0.002443
2025-12-31T15:51:48.845157,9.805787,-1.115055,1.105484,0.047647,-0.025656,0.002443
2025-12-31T15:51:48.855157,9.853643,-1.043270,1.028913,0.056199,-0.028099,0.002443
2025-12-31T15:51:48.864157,9.815358,-0.985842,1.033699,0.052534,-0.031764,0.001221
2025-12-31T15:51:48.874157,9.705288,-1.028913,1.033699,0.042760,-0.034208,0.002443
2025-12-31T15:51:48.884157,9.748359,-1.028913,0.995414,0.046425,-0.039095,0.003665
2025-12-31T15:51:48.893157,9.810572,-0.961914,1.033699,0.045204,-0.040317,0.007330
2025-12-31T15:51:48.903157,9.796215,-0.928415,0.985842,0.034208,-0.041538,0.006108
2025-12-31T15:51:48.913157,9.820143,-0.957129,0.990628,0.021991,-0.042760,0.008552
2025-12-31T15:51:48.922157,9.877571,-1.000199,0.937986,0.003665,-0.045204,0.009773
2025-12-31T15:51:48.932157,9.877571,-1.038485,1.000199,-0.012217,-0.045204,0.012217
2025-12-31T15:51:48.941157,9.891928,-1.052841,0.981057,-0.020769,-0.043982,0.009773
2025-12-31T15:51:48.951157,9.891928,-1.153340,1.000199,-0.019547,-0.040317,0.009773
2025-12-31T15:51:48.961157,9.844072,-1.177268,0.985842,-0.008552,-0.039095,0.008552
2025-12-31T15:51:48.970157,9.829715,-1.167697,1.033699,0.001221,-0.035430,0.008552
2025-12-31T15:51:48.980157,9.853643,-1.076770,1.038485,0.007330,-0.037873,0.006108
2025-12-31T15:51:48.989157,9.863214,-1.086341,1.062413,0.006108,-0.036651,0.006108
2025-12-31T15:51:48.999157,9.829715,-1.071984,1.028913,0.003665,-0.031764,0.013439
2025-12-31T15:51:49.009157,9.872786,-0.981057,1.019342,-0.001221,-0.030543,0.014660
2025-12-31T15:51:49.018157,9.815358,-1.019342,1.071984,-0.008552,-0.025656,0.012217
2025-12-31T15:51:49.028157,9.858429,-1.000199,1.067198,-0.012217,-0.028099,0.014660
2025-12-31T15:51:49.038157,9.820143,-1.019342,1.043270,-0.021991,-0.031764,0.013439
2025-12-31T15:51:49.047157,9.877571,-1.033699,1.048056,-0.030543,-0.031764,0.012217
2025-12-31T15:51:49.057157,9.872786,-1.067198,1.000199,-0.031764,-0.028099,0.010995
2025-12-31T15:51:49.066157,9.887142,-1.071984,1.014556,-0.030543,-0.021991,0.014660
2025-12-31T15:51:49.076157,9.791430,-1.071984,1.028913,-0.028099,-0.017104,0.014660
2025-12-31T15:51:49.086157,9.757930,-1.143769,0.976271,-0.029321,-0.019547,0.012217
2025-12-31T15:51:49.095157,9.815358,-1.043270,0.947557,-0.030543,-0.024434,0.012217
2025-12-31T15:51:49.105157,9.753144,-1.115055,0.995414,-0.026878,-0.026878,0.015882
2025-12-31T15:51:49.114157,9.757930,-1.086341,0.957129,-0.023212,-0.029321,0.015882
2025-12-31T15:51:49.124157,9.772287,-1.033699,0.957129,-0.024434,-0.026878,0.015882
2025-12-31T15:51:49.134157,9.777073,-1.048056,0.928415,-0.028099,-0.028099,0.017104
2025-12-31T15:51:49.143157,9.820143,-1.081555,0.985842,-0.031764,-0.036651,0.013439
2025-12-31T15:51:49.153157,9.839286,-1.081555,0.952343,-0.031764,-0.034208,0.014660
2025-12-31T15:51:49.163157,9.824929,-1.153340,0.995414,-0.021991,-0.030543,0.013439
2025-12-31T15:51:49.172157,9.729216,-1.048056,0.971485,-0.014660,-0.021991,0.012217
2025-12-31T15:51:49.182157,9.724431,-1.052841,0.981057,-0.012217,-0.014660,0.012217
2025-12-31T15:51:49.191157,9.681360,-0.971485,1.024128,-0.014660,-0.021991,0.013439
2025-12-31T15:51:49.201157,9.681360,-0.966700,1.019342,-0.024434,-0.042760,0.015882
2025-12-31T15:51:49.211157,9.824929,-0.990628,0.952343,-0.047647,-0.065973,0.017104
2025-12-31T15:51:49.220157,9.982855,-1.067198,1.014556,-0.064751,-0.075747,0.012217
2025-12-31T15:51:49.230157,10.102497,-1.110269,1.095912,-0.068416,-0.058643,0.012217
2025-12-31T15:51:49.239157,10.068997,-1.205982,1.038485,-0.059864,-0.029321,0.007330
2025-12-31T15:51:49.249157,9.930213,-1.196411,1.000199,-0.043982,-0.007330,0.008552
2025-12-31T15:51:49.259157,9.820143,-1.182054,1.038485,-0.025656,-0.007330,0.002443
2025-12-31T15:51:49.268157,9.734002,-1.100698,0.966700,-0.007330,-0.015882,0.003665
2025-12-31T15:51:49.278157,9.762716,-1.081555,1.057627,0.001221,-0.035430,0.001221
2025-12-31T15:51:49.288157,9.824929,-1.038485,1.048056,0.002443,-0.047647,-0.001221
2025-12-31T15:51:49.297157,9.887142,-1.000199,1.043270,0.003665,-0.040317,0.001221
2025-12-31T15:51:49.307157,9.839286,-0.952343,1.081555,-0.006108,-0.025656,0.009773
2025-12-31T15:51:49.316157,9.786644,-0.947557,1.014556,-0.025656,-0.013439,0.018325
2025-12-31T15:51:49.326157,9.714859,-0.990628,0.985842,-0.047647,-0.015882,0.020769
2025-12-31T15:51:49.336157,9.767501,-1.071984,0.957129,-0.059864,-0.020769,0.026878
2025-12-31T15:51:49.345157,9.786644,-1.076770,0.990628,-0.067195,-0.029321,0.028099
2025-12-31T15:51:49.355157,9.877571,-1.095912,0.995414,-0.062308,-0.036651,0.025656
2025-12-31T15:51:49.364157,9.882357,-1.153340,0.966700,-0.057421,-0.035430,0.021991
2025-12-31T15:51:49.374157,9.872786,-1.038485,0.976271,-0.053756,-0.032986,0.021991
2025-12-31T15:51:49.384157,9.925428,-1.105484,0.976271,-0.053756,-0.021991,0.023212
2025-12-31T15:51:49.393157,9.839286,-1.143769,0.947557,-0.048869,-0.010995,0.026878
2025-12-31T15:51:49.403157,9.777073,-1.115055,1.000199,-0.037873,-0.006108,0.028099
2025-12-31T15:51:49.413157,9.805787,-1.129412,0.933200,-0.028099,-0.017104,0.026878
2025-12-31T15:51:49.422157,9.801001,-1.028913,1.000199,-0.026878,-0.026878,0.026878
2025-12-31T15:51:49.432157,9.839286,-1.062413,0.971485,-0.031764,-0.037873,0.018325
2025-12-31T15:51:49.441157,9.939785,-1.043270,1.086341,-0.034208,-0.039095,0.015882
2025-12-31T15:51:49.451157,9.901499,-1.057627,1.004985,-0.031764,-0.028099,0.015882
2025-12-31T15:51:49.461157,9.944570,-1.110269,1.052841,-0.028099,-0.017104,0.015882
2025-12-31T15:51:49.470157,9.872786,-1.038485,0.976271,-0.021991,-0.018325,0.008552
2025-12-31T15:51:49.480157,9.839286,-1.119840,1.024128,-0.015882,-0.013439,0.006108
2025-12-31T15:51:49.489157,9.767501,-1.162911,0.957129,0.001221,-0.019547,0.003665
2025-12-31T15:51:49.499157,9.796215,-1.148554,1.014556,0.020769,-0.023212,0.003665
2025-12-31T15:51:49.509157,9.824929,-1.052841,0.990628,0.035430,-0.019547,0.001221
2025-12-31T15:51:49.518157,9.719645,-0.957129,0.947557,0.040317,-0.018325,0.003665
2025-12-31T15:51:49.528157,9.729216,-0.904486,0.966700,0.028099,-0.023212,0.007330
2025-12-31T15:51:49.538157,9.757930,-0.918843,0.966700,0.002443,-0.025656,0.012217
2025-12-31T15:51:49.547157,9.767501,-0.918843,0.957129,-0.021991,-0.031764,0.015882
2025-12-31T15:51:49.557157,9.853643,-1.019342,0.952343,-0.034208,-0.035430,0.014660
2025-12-31T15:51:49.566157,9.844072,-1.062413,0.957129,-0.034208,-0.031764,0.017104
2025-12-31T15:51:49.576157,9.868000,-0.995414,0.880558,-0.032986,-0.026878,0.019547
2025-12-31T15:51:49.586157,9.844072,-1.067198,0.971485,-0.034208,-0.034208,0.017104
2025-12-31T15:51:49.595157,9.868000,-1.110269,1.038485,-0.037873,-0.032986,0.020769
2025-12-31T15:51:49.605157,9.877571,-1.100698,1.024128,-0.037873,-0.037873,0.017104
2025-12-31T15:51:49.614157,9.858429,-1.081555,1.067198,-0.035430,-0.039095,0.012217
2025-12-31T15:51:49.624157,9.925428,-1.100698,1.028913,-0.029321,-0.032986,0.015882
2025-12-31T15:51:49.634157,9.868000,-1.086341,1.057627,-0.021991,-0.025656,0.018325
2025-12-31T15:51:49.643157,9.901499,-1.129412,0.995414,-0.018325,-0.023212,0.017104
2025-12-31T15:51:49.653157,9.815358,-1.048056,0.971485,-0.015882,-0.019547,0.018325
2025-12-31T15:51:49.663157,9.834500,-1.014556,1.038485,-0.015882,-0.019547,0.020769
2025-12-31T15:51:49.672157,9.815358,-1.019342,0.985842,-0.012217,-0.021991,0.015882
2025-12-31T15:51:49.682157,9.805787,-1.062413,1.009771,-0.009773,-0.020769,0.018325
2025-12-31T15:51:49.691157,9.853643,-1.014556,0.961914,-0.012217,-0.017104,0.014660
2025-12-31T15:51:49.701157,9.772287,-1.014556,1.000199,-0.017104,-0.020769,0.014660
2025-12-31T15:51:49.711157,9.777073,-1.028913,0.995414,-0.018325,-0.020769,0.013439
2025-12-31T15:51:49.720157,9.829715,-1.024128,0.933200,-0.020769,-0.025656,0.014660
2025-12-31T15:51:49.730157,9.829715,-1.000199,0.985842,-0.018325,-0.028099,0.017104
2025-12-31T15:51:49.739157,9.810572,-1.000199,0.995414,-0.020769,-0.028099,0.017104
2025-12-31T15:51:49.749157,9.853643,-0.985842,0.918843,-0.031764,-0.031764,0.014660
2025-12-31T15:51:49.759157,9.906285,-1.057627,1.014556,-0.040317,-0.032986,0.015882
2025-12-31T15:51:49.768157,9.920642,-1.038485,1.004985,-0.045204,-0.030543,0.021991
2025-12-31T15:51:49.778157,9.906285,-1.048056,1.019342,-0.046425,-0.030543,0.021991
2025-12-31T15:51:49.788157,9.844072,-1.081555,1.009771,-0.046425,-0.023212,0.021991
2025-12-31T15:51:49.797157,9.839286,-1.009771,0.995414,-0.041538,-0.018325,0.020769
2025-12-31T15:51:49.807157,9.824929,-0.966700,0.961914,-0.037873,-0.018325,0.023212
2025-12-31T15:51:49.816157,9.824929,-0.942772,0.985842,-0.043982,-0.020769,0.023212
2025-12-31T15:51:49.826157,9.810572,-1.028913,0.976271,-0.058643,-0.031764,0.020769
2025-12-31T15:51:49.836157,9.934999,-1.028913,1.000199,-0.063529,-0.041538,0.017104
2025-12-31T15:51:49.845157,10.001998,-1.052841,1.014556,-0.061086,-0.042760,0.012217
2025-12-31T15:51:49.855157,9.987641,-1.057627,1.057627,-0.061086,-0.029321,0.009773
2025-12-31T15:51:49.864157,9.891928,-1.091127,1.028913,-0.059864,-0.010995,0.010995
2025-12-31T15:51:49.874157,9.796215,-1.162911,1.014556,-0.059864,0.000000,0.014660
2025-12-31T15:51:49.884157,9.734002,-1.215553,0.985842,-0.050090,-0.006108,0.012217
2025-12-31T15:51:49.893157,9.781858,-1.115055,0.995414,-0.036651,-0.021991,0.013439
2025-12-31T15:51:49.903157,9.772287,-1.124626,1.100698,-0.023212,-0.036651,0.012217
2025-12-31T15:51:49.913157,9.877571,-1.019342,1.129412,-0.014660,-0.041538,0.010995
2025-12-31T15:51:49.922157,9.925428,-1.004985,1.076770,-0.021991,-0.030543,0.014660
2025-12-31T15:51:49.932157,9.891928,-1.076770,1.028913,-0.031764,-0.017104,0.015882
2025-12-31T15:51:49.941157,9.801001,-1.143769,0.995414,-0.030543,-0.004886,0.014660
2025-12-31T15:51:49.951157,9.724431,-1.067198,0.914058,-0.019547,-0.006108,0.015882
2025-12-31T15:51:49.961157,9.729216,-1.052841,0.952343,-0.013439,-0.014660,0.012217
2025-12-31T15:51:49.970157,9.815358,-1.028913,0.985842,-0.018325,-0.024434,0.013439
2025-12-31T15:51:49.980157,9.839286,-0.961914,0.937986,-0.026878,-0.030543,0.012217
2025-12-31T15:51:49.989157,9.887142,-1.014556,0.981057,-0.039095,-0.025656,0.017104
2025-12-31T15:51:49.999157,9.839286,-1.081555,0.952343,-0.050090,-0.017104,0.019547
2025-12-31T15:51:50.009157,9.791430,-1.004985,0.995414,-0.048869,-0.017104,0.019547
2025-12-31T15:51:50.018157,9.844072,-1.100698,0.985842,-0.043982,-0.020769,0.023212
2025-12-31T15:51:50.028157,9.839286,-1.043270,0.966700,-0.041538,-0.028099,0.019547
2025-12-31T15:51:50.038157,9.882357,-1.057627,1.043270,-0.046425,-0.032986,0.019547
2025-12-31T15:51:50.047157,9.891928,-1.071984,1.014556,-0.054977,-0.034208,0.017104
2025-12-31T15:51:50.057157,9.891928,-1.033699,1.052841,-0.056199,-0.031764,0.021991
2025-12-31T15:51:50.066157,9.915856,-1.119840,1.038485,-0.054977,-0.030543,0.018325
2025-12-31T15:51:50.076157,9.887142,-1.191625,0.971485,-0.047647,-0.023212,0.017104
2025-12-31T15:51:50.086157,9.829715,-1.162911,0.995414,-0.031764,-0.018325,0.013439
2025-12-31T15:51:50.095157,9.829715,-1.229910,1.067198,-0.013439,-0.018325,0.007330
2025-12-31T15:51:50.105157,9.863214,-1.105484,1.052841,0.001221,-0.018325,0.009773
2025-12-31T15:51:50.114157,9.781858,-1.071984,0.961914,0.004886,-0.023212,0.006108
2025-12-31T15:51:50.124157,9.839286,-1.076770,0.990628,0.006108,-0.024434,0.004886
2025-12-31T15:51:50.134157,9.844072,-1.148554,0.966700,0.013439,-0.021991,0.010995
2025-12-31T15:51:50.143157,9.824929,-1.081555,0.937986,0.017104,-0.023212,0.013439
2025-12-31T15:51:50.153157,9.824929,-1.019342,0.981057,0.020769,-0.023212,0.012217
2025-12-31T15:51:50.163157,9.772287,-1.009771,1.014556,0.028099,-0.024434,0.013439
2025-12-31T15:51:50.172157,9.767501,-0.957129,0.923629,0.023212,-0.028099,0.017104
2025-12-31T15:51:50.182157,9.748359,-0.990628,0.995414,0.009773,-0.032986,0.014660
2025-12-31T15:51:50.191157,9.815358,-0.990628,0.928415,-0.003665,-0.036651,0.014660
2025-12-31T15:51:50.201157,9.858429,-0.985842,0.942772,-0.010995,-0.039095,0.012217
2025-12-31T15:51:50.211157,9.791430,-1.019342,0.933200,-0.013439,-0.041538,0.009773
2025-12-31T15:51:50.220157,9.853643,-1.038485,0.928415,-0.015882,-0.043982,0.012217
2025-12-31T15:51:50.230157,9.839286,-1.062413,1.028913,-0.018325,-0.045204,0.009773
2025-12-31T15:51:50.239157,9.834500,-1.115055,0.985842,-0.012217,-0.043982,0.014660
2025-12-31T15:51:50.249157,9.954142,-1.115055,0.976271,-0.007330,-0.040317,0.015882
2025-12-31T15:51:50.259157,9.882357,-1.081555,1.009771,-0.007330,-0.036651,0.018325
2025-12-31T15:51:50.268157,9.887142,-1.148554,0.985842,-0.006108,-0.029321,0.018325
2025-12-31T15:51:50.278157,9.858429,-1.124626,1.048056,0.006108,-0.026878,0.017104
2025-12-31T15:51:50.288157,9.872786,-1.119840,0.957129,0.018325,-0.023212,0.019547
2025-12-31T15:51:50.297157,9.853643,-1.000199,0.942772,0.020769,-0.021991,0.019547
2025-12-31T15:51:50.307157,9.815358,-1.019342,0.937986,0.017104,-0.020769,0.017104
2025-12-31T15:51:50.316157,9.791430,-0.957129,0.990628,0.009773,-0.023212,0.018325
2025-12-31T15:51:50.326157,9.757930,-0.942772,0.923629,0.003665,-0.024434,0.017104
2025-12-31T15:51:50.336157,9.767501,-0.942772,0.971485,-0.006108,-0.026878,0.017104
2025-12-31T15:51:50.345157,9.748359,-0.880558,1.019342,-0.020769,-0.030543,0.017104
2025-12-31T15:51:50.355157,9.767501,-0.899701,0.942772,-0.034208,-0.032986,0.018325
2025-12-31T15:51:50.364157,9.820143,-0.904486,0.923629,-0.051312,-0.036651,0.024434
2025-12-31T15:51:50.374157,9.839286,-0.985842,0.981057,-0.062308,-0.040317,0.026878
2025-12-31T15:51:50.384157,9.853643,-1.057627,0.904486,-0.067195,-0.046425,0.023212
2025-12-31T15:51:50.393157,9.949356,-1.100698,0.923629,-0.062308,-0.045204,0.021991
2025-12-31T15:51:50.403157,9.911071,-1.100698,0.937986,-0.054977,-0.036651,0.021991
2025-12-31T15:51:50.413157,9.872786,-1.105484,0.923629,-0.050090,-0.026878,0.021991
2025-12-31T15:51:50.422157,9.863214,-1.091127,1.004985,-0.043982,-0.020769,0.023212
2025-12-31T15:51:50.432157,9.786644,-1.091127,0.976271,-0.040317,-0.020769,0.025656
2025-12-31T15:51:50.441157,9.762716,-1.043270,0.890130,-0.039095,-0.032986,0.026878
2025-12-31T15:51:50.451157,9.824929,-1.043270,0.890130,-0.042760,-0.047647,0.024434
2025-12-31T15:51:50.461157,9.911071,-1.071984,0.981057,-0.043982,-0.052534,0.024434
2025-12-31T15:51:50.470157,9.982855,-1.115055,1.004985,-0.040317,-0.050090,0.020769
2025-12-31T15:51:50.480157,9.992427,-1.119840,0.981057,-0.030543,-0.037873,0.014660
2025-12-31T15:51:50.489157,9.982855,-1.105484,1.014556,-0.026878,-0.023212,0.007330
2025-12-31T15:51:50.499157,9.801001,-1.100698,0.995414,-0.023212,-0.010995,0.006108
2025-12-31T15:51:50.509157,9.777073,-1.119840,0.933200,-0.017104,-0.014660,0.002443
2025-12-31T15:51:50.518157,9.700502,-1.095912,0.933200,-0.007330,-0.021991,-0.001221
2025-12-31T15:51:50.528157,9.767501,-1.062413,0.952343,0.006108,-0.030543,0.003665
2025-12-31T15:51:50.538157,9.781858,-1.081555,0.923629,0.012217,-0.039095,0.003665
2025-12-31T15:51:50.547157,9.829715,-1.048056,0.947557,0.012217,-0.036651,0.003665
2025-12-31T15:51:50.557157,9.762716,-0.966700,0.957129,0.010995,-0.028099,0.009773
2025-12-31T15:51:50.566157,9.753144,-0.923629,0.952343,0.008552,-0.029321,0.013439
2025-12-31T15:51:50.576157,9.762716,-0.890130,0.961914,-0.003665,-0.035430,0.018325
2025-12-31T15:51:50.586157,9.844072,-0.914058,0.957129,-0.024434,-0.042760,0.019547
2025-12-31T15:51:50.595157,9.939785,-1.048056,0.942772,-0.037873,-0.046425,0.019547
2025-12-31T15:51:50.605157,9.982855,-1.048056,0.947557,-0.035430,-0.039095,0.019547
2025-12-31T15:51:50.614157,9.973284,-1.091127,0.866201,-0.025656,-0.028099,0.020769
2025-12-31T15:51:50.624157,9.911071,-1.095912,0.942772,-0.015882,-0.018325,0.021991
2025-12-31T15:51:50.634157,9.834500,-1.014556,0.918843,-0.010995,-0.017104,0.019547
2025-12-31T15:51:50.643157,9.844072,-1.019342,0.947557,-0.002443,-0.017104,0.019547
2025-12-31T15:51:50.653157,9.820143,-0.947557,0.933200,-0.002443,-0.021991,0.018325
2025-12-31T15:51:50.663157,9.829715,-0.923629,0.952343,-0.012217,-0.031764,0.020769
2025-12-31T15:51:50.672157,9.791430,-0.942772,0.899701,-0.025656,-0.037873,0.020769
2025-12-31T15:51:50.682157,9.848857,-0.961914,0.928415,-0.035430,-0.041538,0.020769
2025-12-31T15:51:50.691157,9.920642,-1.004985,0.957129,-0.040317,-0.039095,0.023212
2025-12-31T15:51:50.701157,9.906285,-1.062413,0.904486,-0.041538,-0.032986,0.019547
2025-12-31T15:51:50.711157,9.853643,-1.100698,0.885344,-0.034208,-0.024434,0.015882
2025-12-31T15:51:50.720157,9.868000,-1.115055,0.928415,-0.020769,-0.023212,0.010995
2025-12-31T15:51:50.730157,9.796215,-1.124626,0.918843,-0.003665,-0.025656,0.006108
2025-12-31T15:51:50.739157,9.820143,-1.086341,0.923629,0.009773,-0.026878,0.004886
2025-12-31T15:51:50.749157,9.757930,-0.981057,0.971485,0.009773,-0.028099,0.001221
2025-12-31T15:51:50.759157,9.796215,-0.990628,0.947557,0.000000,-0.030543,0.004886
2025-12-31T15:51:50.768157,9.781858,-0.966700,0.942772,-0.013439,-0.029321,0.012217
2025-12-31T15:51:50.778157,9.786644,-0.990628,0.942772,-0.019547,-0.031764,0.010995
2025-12-31T15:51:50.788157,9.753144,-0.981057,0.914058,-0.021991,-0.031764,0.013439
2025-12-31T15:51:50.797157,9.695717,-1.024128,0.904486,-0.023212,-0.037873,0.017104
2025-12-31T15:51:50.807157,9.844072,-1.081555,0.861416,-0.030543,-0.040317,0.017104
2025-12-31T15:51:50.816157,9.887142,-1.043270,0.894915,-0.030543,-0.043982,0.017104
2025-12-31T15:51:50.826157,9.844072,-1.000199,0.957129,-0.028099,-0.046425,0.012217
2025-12-31T15:51:50.836157,9.901499,-1.105484,0.904486,-0.031764,-0.045204,0.012217
2025-12-31T15:51:50.845157,9.891928,-1.138983,0.971485,-0.030543,-0.040317,0.013439
2025-12-31T15:51:50.855157,9.887142,-1.115055,0.909272,-0.020769,-0.037873,0.012217
2025-12-31T15:51:50.864157,9.848857,-1.148554,0.957129,-0.010995,-0.036651,0.009773
2025-12-31T15:51:50.874157,9.868000,-1.153340,0.947557,-0.002443,-0.035430,0.007330
2025-12-31T15:51:50.884157,9.868000,-1.134197,0.971485,0.003665,-0.032986,0.012217
2025-12-31T15:51:50.893157,9.801001,-1.105484,1.004985,0.013439,-0.032986,0.012217
2025-12-31T15:51:50.903157,9.868000,-1.024128,0.971485,0.026878,-0.032986,0.010995
2025-12-31T15:51:50.913157,9.901499,-1.028913,0.966700,0.030543,-0.035430,0.009773
2025-12-31T15:51:50.922157,9.901499,-1.033699,0.957129,0.023212,-0.029321,0.013439
2025-12-31T15:51:50.932157,9.887142,-0.952343,0.923629,0.017104,-0.025656,0.015882
2025-12-31T15:51:50.941157,9.839286,-0.985842,0.971485,0.012217,-0.021991,0.013439
2025-12-31T15:51:50.951157,9.839286,-0.914058,0.866201,0.009773,-0.019547,0.015882
2025-12-31T15:51:50.961157,9.762716,-1.009771,0.914058,0.010995,-0.020769,0.012217
2025-12-31T15:51:50.970157,9.796215,-0.942772,0.914058,0.004886,-0.026878,0.010995
2025-12-31T15:51:50.980157,9.839286,-0.904486,0.914058,-0.006108,-0.028099,0.010995
2025-12-31T15:51:50.989157,9.791430,-0.928415,0.875773,-0.012217,-0.030543,0.015882
2025-12-31T15:51:50.999157,9.791430,-0.990628,0.894915,-0.028099,-0.031764,0.018325
2025-12-31T15:51:51.009157,9.820143,-0.981057,0.904486,-0.041538,-0.032986,0.019547
2025-12-31T15:51:51.018157,9.772287,-1.038485,0.933200,-0.035430,-0.031764,0.021991
2025-12-31T15:51:51.028157,9.858429,-1.091127,0.933200,-0.031764,-0.029321,0.023212
2025-12-31T15:51:51.038157,9.824929,-1.067198,0.885344,-0.032986,-0.034208,0.018325
2025-12-31T15:51:51.047157,9.906285,-1.095912,0.971485,-0.030543,-0.032986,0.015882
2025-12-31T15:51:51.057157,9.891928,-1.105484,0.990628,-0.025656,-0.025656,0.019547
2025-12-31T15:51:51.066157,9.824929,-1.052841,0.952343,-0.018325,-0.020769,0.021991
2025-12-31T15:51:51.076157,9.815358,-1.038485,0.890130,-0.013439,-0.020769,0.021991
2025-12-31T15:51:51.086157,9.781858,-1.009771,0.937986,-0.010995,-0.025656,0.021991
2025-12-31T15:51:51.095157,9.801001,-1.024128,0.952343,-0.012217,-0.034208,0.021991
2025-12-31T15:51:51.105157,9.844072,-1.028913,0.937986,-0.019547,-0.045204,0.021991
2025-12-31T15:51:51.114157,10.001998,-1.071984,0.942772,-0.020769,-0.053756,0.017104
2025-12-31T15:51:51.124157,10.021141,-1.105484,0.947557,-0.025656,-0.047647,0.010995
2025-12-31T15:51:51.134157,9.978070,-1.177268,0.933200,-0.028099,-0.025656,0.012217
2025-12-31T15:51:51.143157,9.906285,-1.167697,0.957129,-0.015882,-0.008552,0.008552
2025-12-31T15:51:51.153157,9.781858,-1.115055,0.990628,0.000000,-0.004886,0.004886
2025-12-31T15:51:51.163157,9.719645,-1.110269,0.909272,0.017104,-0.010995,0.008552
2025-12-31T15:51:51.172157,9.796215,-1.028913,0.918843,0.028099,-0.028099,0.004886
2025-12-31T15:51:51.182157,9.801001,-1.024128,0.923629,0.026878,-0.035430,0.002443
2025-12-31T15:51:51.191157,9.834500,-0.961914,0.976271,0.020769,-0.035430,0.003665
2025-12-31T15:51:51.201157,9.801001,-0.995414,0.947557,0.018325,-0.028099,0.009773
2025-12-31T15:51:51.211157,9.772287,-0.937986,0.952343,0.010995,-0.020769,0.010995
2025-12-31T15:51:51.220157,9.719645,-0.909272,0.890130,0.000000,-0.017104,0.018325
2025-12-31T15:51:51.230157,9.690931,-0.971485,0.909272,-0.017104,-0.023212,0.019547
2025-12-31T15:51:51.239157,9.781858,-0.947557,0.899701,-0.035430,-0.030543,0.023212
2025-12-31T15:51:51.249157,9.801001,-1.086341,0.894915,-0.046425,-0.042760,0.021991
2025-12-31T15:51:51.259157,9.877571,-1.119840,0.899701,-0.040317,-0.048869,0.019547
2025-12-31T15:51:51.268157,9.901499,-1.134197,0.847059,-0.032986,-0.047647,0.017104
2025-12-31T15:51:51.278157,9.896714,-1.134197,0.899701,-0.021991,-0.041538,0.015882
2025-12-31T15:51:51.288157,9.911071,-1.115055,0.851844,-0.007330,-0.031764,0.015882
2025-12-31T15:51:51.297157,9.839286,-1.091127,0.856630,0.002443,-0.026878,0.014660
2025-12-31T15:51:51.307157,9.810572,-1.057627,0.899701,0.004886,-0.030543,0.013439
2025-12-31T15:51:51.316157,9.743573,-1.038485,0.890130,0.012217,-0.042760,0.014660
2025-12-31T15:51:51.326157,9.786644,-1.000199,0.875773,0.018325,-0.054977,0.008552
2025-12-31T15:51:51.336157,9.872786,-0.971485,0.971485,0.020769,-0.059864,0.004886
2025-12-31T15:51:51.345157,9.925428,-0.909272,0.937986,0.015882,-0.059864,0.002443
2025-12-31T15:51:51.355157,9.911071,-0.961914,0.933200,0.008552,-0.053756,0.001221
2025-12-31T15:51:51.364157,9.925428,-0.995414,0.923629,0.007330,-0.047647,0.001221
2025-12-31T15:51:51.374157,9.882357,-0.937986,0.875773,0.008552,-0.040317,0.000000
2025-12-31T15:51:51.384157,9.834500,-0.914058,0.918843,0.007330,-0.037873,-0.002443
2025-12-31T15:51:51.393157,9.796215,-0.861416,0.847059,0.006108,-0.046425,-0.003665
2025-12-31T15:51:51.403157,9.772287,-0.880558,0.756131,0.000000,-0.063529,-0.008552
2025-12-31T15:51:51.413157,9.848857,-0.823130,0.756131,-0.012217,-0.072082,-0.006108
2025-12-31T15:51:51.422157,9.805787,-0.770488,0.775274,-0.019547,-0.072082,-0.004886
2025-12-31T15:51:51.432157,9.777073,-0.780060,0.722632,-0.031764,-0.076969,-0.007330
2025-12-31T15:51:51.441157,9.801001,-0.780060,0.775274,-0.040317,-0.085521,-0.010995
2025-12-31T15:51:51.451157,9.762716,-0.746560,0.679561,-0.045204,-0.092851,-0.019547
2025-12-31T15:51:51.461157,9.796215,-0.689132,0.641276,-0.058643,-0.105068,-0.023212
2025-12-31T15:51:51.470157,9.762716,-0.684347,0.612562,-0.069638,-0.114842,-0.028099
2025-12-31T15:51:51.480157,9.805787,-0.617348,0.655633,-0.085521,-0.129503,-0.046425
2025-12-31T15:51:51.489157,9.815358,-0.607776,0.617348,-0.101403,-0.144164,-0.063529
2025-12-31T15:51:51.499157,9.796215,-0.607776,0.693918,-0.129503,-0.152716,-0.061086
2025-12-31T15:51:51.509157,9.767501,-0.665204,0.689132,-0.163711,-0.166155,-0.064751
2025-12-31T15:51:51.518157,9.786644,-0.722632,0.665204,-0.179594,-0.175929,-0.084299
2025-12-31T15:51:51.528157,9.777073,-0.751346,0.669990,-0.182037,-0.184481,-0.097738
2025-12-31T15:51:51.538157,9.729216,-0.746560,0.598205,-0.183259,-0.197920,-0.117286
2025-12-31T15:51:51.547157,9.638289,-0.818345,0.650847,-0.189368,-0.215024,-0.130725
2025-12-31T15:51:51.557157,9.676574,-0.717846,0.698704,-0.191811,-0.239459,-0.147829
2025-12-31T15:51:51.566157,9.710074,-0.708275,0.665204,-0.195476,-0.251676,-0.160046
2025-12-31T15:51:51.576157,9.719645,-0.818345,0.703489,-0.212581,-0.256563,-0.162490
2025-12-31T15:51:51.586157,9.638289,-0.899701,0.693918,-0.213802,-0.259006,-0.164933
2025-12-31T15:51:51.595157,9.561719,-0.937986,0.602991,-0.200363,-0.266337,-0.173485
2025-12-31T15:51:51.605157,9.475577,-0.995414,0.622133,-0.185702,-0.280997,-0.186924
2025-12-31T15:51:51.614157,9.442077,-1.019342,0.593420,-0.163711,-0.299323,-0.204028
2025-12-31T15:51:51.624157,9.389435,-1.067198,0.775274,-0.128281,-0.316428,-0.215024
2025-12-31T15:51:51.634157,9.394221,-1.062413,0.780060,-0.083077,-0.339641,-0.237015
2025-12-31T15:51:51.643157,9.408578,-0.981057,0.866201,-0.042760,-0.350636,-0.255341
2025-12-31T15:51:51.653157,9.418149,-0.894915,0.981057,-0.014660,-0.348193,-0.268780
2025-12-31T15:51:51.663157,9.456434,-0.813559,1.162911,-0.006108,-0.335975,-0.272445
2025-12-31T15:51:51.672157,9.274580,-0.631705,1.076770,-0.032986,-0.307876,-0.267558
2025-12-31T15:51:51.682157,9.107082,-0.550349,1.028913,-0.097738,-0.283441,-0.260228
2025-12-31T15:51:51.691157,8.930013,-0.655633,0.937986,-0.179594,-0.263893,-0.246789
2025-12-31T15:51:51.701157,8.695517,-0.808774,1.028913,-0.229685,-0.251676,-0.241902
2025-12-31T15:51:51.711157,8.365307,-0.784845,1.124626,-0.257785,-0.232128,-0.224798
2025-12-31T15:51:51.720157,8.140382,-1.009771,1.196411,-0.306654,-0.222354,-0.199142
2025-12-31T15:51:51.730157,7.939385,-1.459621,1.100698,-0.295658,-0.193033,-0.186924
2025-12-31T15:51:51.739157,7.570890,-1.440479,1.143769,-0.169820,-0.166155,-0.178372
2025-12-31T15:51:51.749157,7.077969,-1.081555,1.411765,-0.034208,-0.140498,-0.178372
2025-12-31T15:51:51.759157,6.685546,-0.454636,1.665404,-0.009773,-0.134390,-0.153938
2025-12-31T15:51:51.768157,6.441478,-0.535992,1.689332,-0.167377,-0.129503,-0.125838
2025-12-31T15:51:51.778157,6.288337,-0.866201,1.842473,-0.233350,-0.113620,-0.109955
2025-12-31T15:51:51.788157,5.886343,-0.693918,2.048256,-0.185702,-0.029321,-0.050090
2025-12-31T15:51:51.797157,5.369493,-0.497707,1.995614,-0.235793,0.116064,0.046425
2025-12-31T15:51:51.807157,4.517649,-0.555134,1.708475,-0.306654,0.263893,0.129503
2025-12-31T15:51:51.816157,3.622733,-0.593420,1.402194,-0.357966,0.368962,0.222354
2025-12-31T15:51:51.826157,2.828316,-0.847059,1.311266,-0.395840,0.406836,0.294436
2025-12-31T15:51:51.836157,2.129612,-1.129412,1.067198,-0.401949,0.378736,0.371405
2025-12-31T15:51:51.845157,1.641476,-1.507478,0.756131,-0.350636,0.280997,0.427605
2025-12-31T15:51:51.855157,1.507478,-1.904686,0.545563,-0.233350,0.118507,0.433714
2025-12-31T15:51:51.864157,1.751546,-2.349751,0.612562,-0.035430,-0.091629,0.388510
2025-12-31T15:51:51.874157,2.459821,-2.584248,0.713061,0.238237,-0.307876,0.301767
2025-12-31T15:51:51.884157,3.426521,-2.507678,0.947557,0.553443,-0.476474,0.195476
2025-12-31T15:51:51.893157,4.536791,-2.230110,1.134197,0.830776,-0.564439,0.081855
2025-12-31T15:51:51.903157,5.513063,-1.785045,1.402194,1.010370,-0.557108,-0.031764
2025-12-31T15:51:51.913157,6.360122,-1.526620,1.756331,1.094670,-0.460592,-0.124616
2025-12-31T15:51:51.922157,7.010970,-1.253839,2.029113,1.117883,-0.312762,-0.199142
2025-12-31T15:51:51.932157,7.259823,-1.024128,2.096112,1.087339,-0.135612,-0.238237
2025-12-31T15:51:51.941157,7.317251,-0.641276,2.062613,0.995710,0.050090,-0.235793
2025-12-31T15:51:51.951157,7.077969,-0.320638,2.120040,0.816115,0.206472,-0.188146
2025-12-31T15:51:51.961157,6.699903,-0.186640,1.909472,0.546113,0.310319,-0.106290
2025-12-31T15:51:51.970157,6.479763,-0.277567,1.593619,0.228463,0.361632,-0.013439
2025-12-31T15:51:51.980157,6.388836,-0.650847,1.550549,-0.092851,0.357966,0.107512
2025-12-31T15:51:51.989157,6.580262,-1.225125,1.655833,-0.337197,0.316428,0.213802
2025-12-31T15:51:51.999157,6.996613,-1.875972,1.828116,-0.503352,0.265115,0.307876
2025-12-31T15:51:52.009157,7.738388,-2.474178,1.861615,-0.577878,0.232128,0.397062
2025-12-31T15:51:52.018157,8.403592,-2.976671,1.684547,-0.603534,0.232128,0.476474
2025-12-31T15:51:52.028157,9.087940,-3.349951,1.497906,-0.563217,0.265115,0.516791
2025-12-31T15:51:52.038157,9.767501,-3.445664,1.210768,-0.459370,0.295658,0.527787
2025-12-31T15:51:52.047157,10.375278,-3.321237,1.105484,-0.355523,0.326201,0.565661
2025-12-31T15:51:52.057157,11.030912,-3.091526,1.191625,-0.295658,0.376292,0.616973
2025-12-31T15:51:52.066157,11.480762,-2.933600,1.311266,-0.313984,0.459370,0.676838
2025-12-31T15:51:52.076157,11.877971,-2.904886,1.550549,-0.384845,0.564439,0.795346
2025-12-31T15:51:52.086157,12.112468,-2.914457,1.727617,-0.496022,0.657290,0.963945
2025-12-31T15:51:52.095157,12.308679,-3.019742,1.775474,-0.626747,0.735481,1.139874
2025-12-31T15:51:52.105157,12.533604,-3.096312,1.512263,-0.779463,0.788015,1.312138
2025-12-31T15:51:52.114157,12.662817,-3.134597,1.057627,-0.924849,0.816115,1.470963
2025-12-31T15:51:52.124157,12.710673,-3.407379,0.602991,-1.042135,0.847880,1.617570
2025-12-31T15:51:52.134157,12.725030,-3.847658,0.330209,-1.111774,0.871093,1.755626
2025-12-31T15:51:52.143157,12.763315,-4.350151,0.248853,-1.119104,0.867428,1.876577
2025-12-31T15:51:52.153157,12.873385,-4.986642,0.468993,-1.048244,0.850324,1.962098
2025-12-31T15:51:52.163157,12.973884,-5.484349,0.698704,-0.885754,0.850324,2.024406
2025-12-31T15:51:52.172157,13.194023,-5.800201,0.947557,-0.665842,0.888197,2.094045
2025-12-31T15:51:52.182157,12.911670,-5.919843,2.277967,-0.652403,1.220508,2.610837
2025-12-31T15:51:52.191157,11.681759,-4.761716,1.852044,-0.068416,1.089783,2.368934
2025-12-31T15:51:52.201157,12.069397,-3.804587,1.210768,-0.372627,0.726929,2.160019
2025-12-31T15:51:52.211157,13.002598,-4.838287,0.598205,-0.579100,0.552222,2.213775
2025-12-31T15:51:52.220157,13.524233,-4.608576,0.827916,-0.326201,0.620638,2.354274
2025-12-31T15:51:52.230157,13.605589,-4.182653,0.894915,-0.421496,0.751364,2.419025
2025-12-31T15:51:52.239157,13.543375,-5.168496,0.870987,-0.682947,0.884532,2.434908
2025-12-31T15:51:52.249157,13.141381,-5.819344,1.205982,-0.659734,1.017701,2.503325
2025-12-31T15:51:52.259157,12.461820,-5.809773,1.761117,-0.544891,1.123991,2.594954
2025-12-31T15:51:52.268157,11.609975,-5.929414,1.789831,-0.563217,1.160643,2.659706
2025-12-31T15:51:52.278157,11.097911,-6.226124,1.713260,-0.560774,1.109331,2.711019
2025-12-31T15:51:52.288157,10.662417,-6.321837,1.899901,-0.493579,0.987158,2.756223
2025-12-31T15:51:52.297157,10.451849,-6.575476,2.086541,-0.483805,0.827111,2.775771
2025-12-31T15:51:52.307157,10.533205,-7.231109,2.172682,-0.481361,0.675616,2.750114
2025-12-31T15:51:52.316157,10.777272,-7.915457,2.421536,-0.366519,0.549778,2.679254
2025-12-31T15:51:52.326157,11.097911,-8.379664,2.445464,-0.175929,0.475253,2.607172
2025-12-31T15:51:52.336157,11.294122,-8.719445,2.273181,0.046425,0.480139,2.522872
2025-12-31T15:51:52.345157,11.284551,-8.791230,2.076970,0.307876,0.536339,2.432464
2025-12-31T15:51:52.355157,11.088339,-8.571090,1.981257,0.546113,0.592539,2.345722
2025-12-31T15:51:52.364157,10.782058,-8.236095,2.230110,0.706160,0.627969,2.261422
2025-12-31T15:51:52.374157,10.537990,-8.063812,2.498106,0.774576,0.637743,2.201557
2025-12-31T15:51:52.384157,10.226923,-8.135596,2.622533,0.795346,0.610865,2.139249
2025-12-31T15:51:52.393157,10.298708,-8.322237,2.991028,0.808785,0.533896,2.072054
2025-12-31T15:51:52.403157,10.566704,-8.690731,3.282952,0.822224,0.436157,2.002415
2025-12-31T15:51:52.413157,10.916056,-8.915657,3.421736,0.888197,0.367740,1.927890
2025-12-31T15:51:52.422157,11.346764,-8.915657,3.378665,0.998153,0.344527,1.820378
2025-12-31T15:51:52.432157,11.499905,-8.714659,3.019742,1.080009,0.351858,1.695761
2025-12-31T15:51:52.441157,11.576475,-8.456235,2.756531,1.094670,0.362853,1.582140
2025-12-31T15:51:52.451157,11.609975,-8.149953,2.579462,1.029918,0.338419,1.455080
2025-12-31T15:51:52.461157,11.653046,-7.958527,2.469392,0.889419,0.268780,1.302364
2025-12-31T15:51:52.470157,11.729616,-7.819744,2.335394,0.709825,0.169820,1.142317
2025-12-31T15:51:52.480157,11.882757,-7.805387,2.344966,0.533896,0.063529,0.978605
2025-12-31T15:51:52.489157,12.112468,-8.011170,2.411965,0.362853,-0.046425,0.794124
2025-12-31T15:51:52.499157,12.342178,-8.169096,2.565105,0.234572,-0.147829,0.591317
2025-12-31T15:51:52.509157,12.571889,-8.303094,2.746960,0.162490,-0.217467,0.378736
2025-12-31T15:51:52.518157,12.672388,-8.413164,2.723032,0.123394,-0.265115,0.171042
2025-12-31T15:51:52.528157,12.629317,-8.255237,2.593819,0.094073,-0.318871,-0.051312
2025-12-31T15:51:52.538157,12.629317,-8.145168,2.526820,0.070860,-0.384845,-0.295658
2025-12-31T15:51:52.547157,12.547961,-8.068597,2.502892,0.046425,-0.452040,-0.538783
2025-12-31T15:51:52.557157,12.222537,-7.977670,2.411965,0.025656,-0.515570,-0.769690
2025-12-31T15:51:52.566157,12.059825,-7.944171,2.598605,0.007330,-0.597426,-0.998153
2025-12-31T15:51:52.576157,11.901899,-8.121239,2.880958,0.017104,-0.698829,-1.229060
2025-12-31T15:51:52.586157,11.863614,-8.322237,2.995813,0.142942,-0.789237,-1.477071
2025-12-31T15:51:52.595157,11.830114,-8.446663,3.053241,0.408057,-0.855211,-1.739743
2025-12-31T15:51:52.605157,11.739187,-8.145168,3.168097,0.755029,-0.890641,-2.007302
2025-12-31T15:51:52.614157,11.557333,-7.642675,3.120240,1.117883,-0.900415,-2.251648
2025-12-31T15:51:52.624157,11.188838,-6.604190,2.909672,1.455080,-0.897971,-2.436130
2025-12-31T15:51:52.634157,10.705488,-5.216353,2.493321,1.681100,-0.928514,-2.566855
2025-12-31T15:51:52.643157,10.341779,-3.828516,2.134397,1.704313,-1.043357,-2.674367
2025-12-31T15:51:52.653157,10.265208,-3.153740,1.741974,1.511280,-1.241277,-2.741562
2025-12-31T15:51:52.663157,10.427920,-2.971885,1.225125,1.211956,-1.496619,-2.780657
2025-12-31T15:51:52.672157,10.939984,-2.938386,0.765703,0.919962,-1.756848,-2.802649
2025-12-31T15:51:52.682157,11.495119,-3.196810,0.550349,0.693942,-2.004859,-2.850296
2025-12-31T15:51:52.691157,12.160324,-3.397808,0.392422,0.551000,-2.214996,-2.927265
2025-12-31T15:51:52.701157,12.878171,-3.584448,0.421136,0.510683,-2.375043,-3.020117
2025-12-31T15:51:52.711157,13.619946,-3.641875,0.813559,0.530230,-2.461786,-3.104416
2025-12-31T15:51:52.720157,14.232508,-3.589233,1.167697,0.582765,-2.467895,-3.154507
2025-12-31T15:51:52.730157,14.691930,-3.440878,1.296909,0.627969,-2.381152,-3.142290
2025-12-31T15:51:52.739157,14.835500,-3.215953,1.373480,0.651182,-2.233322,-3.128851
2025-12-31T15:51:52.749157,14.644074,-2.924029,1.383051,0.653625,-2.068389,-3.138624
2025-12-31T15:51:52.759157,14.213366,-2.574677,1.282552,0.659734,-1.920559,-3.134959
2025-12-31T15:51:52.768157,13.830514,-2.124826,1.177268,0.630412,-1.836260,-3.111746
2025-12-31T15:51:52.778157,13.533804,-1.804188,1.095912,0.542448,-1.822821,-3.073873
2025-12-31T15:51:52.788157,13.366307,-1.674975,0.890130,0.438601,-1.843590,-3.029890
2025-12-31T15:51:52.797157,13.490733,-1.488335,0.827916,0.326201,-1.883908,-2.974913
2025-12-31T15:51:52.807157,13.725230,-1.268195,0.650847,0.197920,-1.937664,-2.922378
2025-12-31T15:51:52.816157,14.065011,-1.138983,0.483350,0.052534,-1.982868,-2.855183
2025-12-31T15:51:52.826157,14.534004,-1.182054,0.373280,-0.100181,-1.997528,-2.789210
2025-12-31T15:51:52.836157,14.998212,-1.234696,0.354137,-0.259006,-1.947437,-2.702467
2025-12-31T15:51:52.845157,15.337992,-1.344766,0.325423,-0.423940,-1.805717,-2.601063
2025-12-31T15:51:52.855157,15.385849,-1.579262,0.311066,-0.555887,-1.587027,-2.500881
2025-12-31T15:51:52.864157,15.074782,-1.684547,0.454636,-0.642630,-1.328020,-2.399478
2025-12-31T15:51:52.874157,14.500504,-1.478764,0.416351,-0.692721,-1.066570,-2.282192
2025-12-31T15:51:52.884157,13.682159,-1.229910,0.392422,-0.746477,-0.872315,-2.155132
2025-12-31T15:51:52.893157,12.954741,-0.799202,0.550349,-0.860098,-0.763581,-1.997528
2025-12-31T15:51:52.903157,12.313465,-0.521635,0.626919,-1.039692,-0.718377,-1.815491
2025-12-31T15:51:52.913157,11.830114,-0.296710,0.689132,-1.259603,-0.706160,-1.607796
2025-12-31T15:51:52.922157,11.341979,-0.086141,0.717846,-1.534493,-0.679282,-1.397659
2025-12-31T15:51:52.932157,10.920842,-0.148355,0.722632,-1.831373,-0.621860,-1.191186
2025-12-31T15:51:52.941157,10.399207,-0.392422,0.626919,-2.135584,-0.540004,-0.985936
2025-12-31T15:51:52.951157,9.796215,-0.880558,0.583848,-2.421469,-0.449596,-0.799011
2025-12-31T15:51:52.961157,9.150153,-1.445264,0.736989,-2.620611,-0.368962,-0.647517
2025-12-31T15:51:52.970157,8.508877,-1.938186,0.832702,-2.689028,-0.309097,-0.540004
2025-12-31T15:51:52.980157,7.881957,-2.120040,0.933200,-2.647489,-0.250454,-0.465479
2025-12-31T15:51:52.989157,7.216752,-2.153540,1.024128,-2.566855,-0.208915,-0.428827
2025-12-31T15:51:52.999157,6.628118,-2.287538,1.105484,-2.499660,-0.194255,-0.395840
2025-12-31T15:51:53.009157,6.068198,-2.498106,1.177268,-2.441016,-0.184481,-0.365297
2025-12-31T15:51:53.018157,5.642275,-2.823530,1.330409,-2.354274,-0.178372,-0.340862
2025-12-31T15:51:53.028157,5.197210,-3.091526,1.320838,-2.223549,-0.162490,-0.324980
2025-12-31T15:51:53.038157,4.584648,-3.359522,1.344766,-2.051285,-0.129503,-0.309097
2025-12-31T15:51:53.047157,4.048655,-3.637090,1.378265,-1.832595,-0.085521,-0.301767
2025-12-31T15:51:53.057157,3.397808,-3.818944,1.430907,-1.565036,-0.039095,-0.295658
2025-12-31T15:51:53.066157,2.746960,-3.823730,1.488335,-1.263269,-0.003665,-0.274889
2025-12-31T15:51:53.076157,2.163111,-3.804587,1.598405,-0.961501,0.010995,-0.243124
2025-12-31T15:51:53.086157,1.617548,-3.742374,1.694118,-0.659734,-0.007330,-0.199142
2025-12-31T15:51:53.095157,1.244267,-3.536591,1.880758,-0.364075,-0.059864,-0.152716
2025-12-31T15:51:53.105157,0.995414,-3.211167,1.976471,-0.112399,-0.107512,-0.081855
2025-12-31T15:51:53.114157,0.909272,-2.818745,2.124826,0.089186,-0.146607,0.000000
2025-12-31T15:51:53.124157,0.947557,-2.349751,2.220539,0.240680,-0.180816,0.083077
2025-12-31T15:51:53.134157,1.162911,-1.847259,2.373680,0.338419,-0.201585,0.163711
2025-12-31T15:51:53.143157,1.464407,-1.392622,2.574677,0.357966,-0.186924,0.244346
2025-12-31T15:51:53.153157,1.761117,-1.071984,2.746960,0.321315,-0.136833,0.323758
2025-12-31T15:51:53.163157,2.029113,-0.669990,2.818745,0.271224,-0.078190,0.395840
2025-12-31T15:51:53.172157,2.311466,-0.153140,2.742174,0.191811,-0.012217,0.453261
2025-12-31T15:51:53.182157,2.593819,0.191425,2.761317,0.057421,0.056199,0.482583
2025-12-31T15:51:53.191157,2.833101,0.468993,2.632104,-0.116064,0.116064,0.486248
2025-12-31T15:51:53.201157,3.187239,0.507278,2.502892,-0.323758,0.130725,0.477696
2025-12-31T15:51:53.211157,3.799802,0.378065,2.297109,-0.540004,0.092851,0.436157
2025-12-31T15:51:53.220157,4.570291,0.028713,2.057827,-0.737925,0.000000,0.365297
2025-12-31T15:51:53.230157,5.790630,-0.435493,1.694118,-0.906523,-0.155159,0.261450
2025-12-31T15:51:53.239157,7.274180,-1.062413,1.450050,-1.036027,-0.353080,0.124616
2025-12-31T15:51:53.249157,9.131011,-1.694118,1.320838,-1.094670,-0.563217,-0.064751
2025-12-31T15:51:53.259157,11.131410,-2.210968,1.258624,-1.055574,-0.731816,-0.273667
2025-12-31T15:51:53.268157,13.237094,-2.459821,1.062413,-0.924849,-0.816115,-0.466700
2025-12-31T15:51:53.278157,15.132210,-2.373680,0.684347,-0.748920,-0.783129,-0.608421
2025-12-31T15:51:53.288157,16.558332,-1.990828,0.181854,-0.596204,-0.612086,-0.692721
2025-12-31T15:51:53.297157,17.606388,-1.493121,0.200997,-0.564439,-0.301767,-0.742811
2025-12-31T15:51:53.307157,17.879169,-1.100698,0.449850,-0.656069,0.180816,-0.670729
2025-12-31T15:51:53.316157,16.912470,-0.679561,0.832702,-0.824667,0.842993,-0.480139
2025-12-31T15:51:53.326157,14.572289,-0.540777,1.296909,-1.083674,1.557706,-0.216246
2025-12-31T15:51:53.336157,11.533404,-0.789631,1.497906,-1.356120,2.068389,0.134390
2025-12-31T15:51:53.345157,8.441878,-1.172483,1.641476,-1.491732,2.250427,0.505796
2025-12-31T15:51:53.355157,5.838487,-1.478764,1.689332,-1.517388,2.107484,0.847880
2025-12-31T15:51:53.364157,3.890729,-1.976471,1.574477,-1.455080,1.716530,1.082452
2025-12-31T15:51:53.374157,2.823530,-2.689532,1.172483,-1.241277,1.148426,1.196073
2025-12-31T15:51:53.384157,2.962314,-3.340380,0.894915,-0.863763,0.492357,1.215621
2025-12-31T15:51:53.393157,4.163511,-3.847658,0.861416,-0.397062,-0.136833,1.180191
2025-12-31T15:51:53.403157,6.020341,-4.115654,1.158126,0.108733,-0.637743,1.127656
2025-12-31T15:51:53.413157,8.169096,-4.163511,1.502692,0.602312,-0.923628,1.073900
2025-12-31T15:51:53.422157,10.174281,-4.082155,1.756331,1.075122,-0.938288,1.015257
2025-12-31T15:51:53.432157,11.408978,-3.704089,1.837687,1.516167,-0.689055,0.971275
2025-12-31T15:51:53.441157,11.767901,-3.148954,1.732403,1.875355,-0.283441,0.946840
2025-12-31T15:51:53.451157,11.365907,-2.402393,1.636690,2.128254,0.151494,0.928514
2025-12-31T15:51:53.461157,10.212566,-1.746760,1.545763,2.280970,0.477696,0.905302
2025-12-31T15:51:53.470157,8.968299,-1.363908,1.296909,2.377487,0.648738,0.895528
2025-12-31T15:51:53.480157,7.838886,-1.033699,1.229910,2.454456,0.693942,0.893084
2025-12-31T15:51:53.489157,6.805187,-0.693918,1.172483,2.489886,0.668286,0.886976
2025-12-31T15:51:53.499157,6.044269,-0.354137,1.095912,2.475225,0.618195,0.890641
2025-12-31T15:51:53.509157,5.335994,-0.047856,1.043270,2.420247,0.574213,0.911410
2025-12-31T15:51:53.518157,4.685146,0.344566,1.134197,2.311513,0.551000,0.937067
2025-12-31T15:51:53.528157,3.986442,0.483350,1.177268,2.152688,0.537561,0.974940
2025-12-31T15:51:53.538157,3.326023,0.416351,1.330409,1.962098,0.521678,1.032362
2025-12-31T15:51:53.547157,2.679961,0.038285,1.636690,1.798386,0.499687,1.081231
2025-12-31T15:51:53.557157,2.239681,-0.540777,1.914258,1.711644,0.480139,1.104444
2025-12-31T15:51:53.566157,1.904686,-1.014556,2.120040,1.710422,0.465479,1.117883
2025-12-31T15:51:53.576157,1.655833,-1.450050,2.182254,1.784947,0.436157,1.103222
2025-12-31T15:51:53.586157,1.660618,-1.646261,1.942971,1.904677,0.372627,1.058018
2025-12-31T15:51:53.595157,1.981257,-1.698904,1.679761,2.021963,0.302989,1.005483
2025-12-31T15:51:53.605157,2.579462,-1.627119,1.531406,2.122145,0.254119,0.932180
2025-12-31T15:51:53.614157,3.177668,-1.387837,1.335195,2.189340,0.243124,0.841772
2025-12-31T15:51:53.624157,3.938585,-1.191625,1.172483,2.204001,0.270002,0.745255
2025-12-31T15:51:53.634157,4.522434,-1.052841,0.842273,2.156353,0.334754,0.649960
2025-12-31T15:51:53.643157,5.106283,-1.000199,0.593420,2.057393,0.414166,0.549778
2025-12-31T15:51:53.653157,5.575276,-0.937986,0.411565,1.926668,0.496022,0.445931
2025-12-31T15:51:53.663157,5.881557,-0.918843,0.277567,1.769065,0.568104,0.331088
2025-12-31T15:51:53.672157,6.273980,-0.847059,0.196211,1.584584,0.609643,0.216246
2025-12-31T15:51:53.682157,6.666403,-0.909272,0.215354,1.387885,0.610865,0.106290
2025-12-31T15:51:53.691157,7.192824,-0.981057,0.368494,1.197295,0.580321,0.004886
2025-12-31T15:51:53.701157,7.838886,-1.009771,0.650847,0.994488,0.549778,-0.068416
2025-12-31T15:51:53.711157,8.461020,-1.052841,0.894915,0.762359,0.564439,-0.089186
2025-12-31T15:51:53.720157,8.958727,-1.033699,1.033699,0.515570,0.629191,-0.062308
2025-12-31T15:51:53.730157,9.288937,-1.014556,1.024128,0.251676,0.756251,0.039095
2025-12-31T15:51:53.739157,9.312865,-1.062413,0.899701,-0.087964,0.966388,0.294436
2025-12-31T15:51:53.749157,8.422735,-0.373280,-0.258424,-0.388510,1.138652,0.586430
2025-12-31T15:51:53.759157,8.221738,-0.847059,0.339780,-0.838106,0.970053,0.636521
2025-12-31T15:51:53.768157,8.662017,-1.885544,0.143569,-1.290147,0.735481,0.777020
2025-12-31T15:51:53.778157,9.188438,-2.411965,0.320638,-1.424537,0.581543,1.023809
2025-12-31T15:51:53.788157,9.887142,-2.220539,0.646062,-1.497841,0.459370,1.218065
2025-12-31T15:51:53.797157,10.643274,-2.239681,1.024128,-1.673770,0.362853,1.398881
2025-12-31T15:51:53.807157,11.428120,-2.349751,1.421336,-1.826486,0.322536,1.659109
2025-12-31T15:51:53.816157,12.007183,-2.220539,1.880758,-1.990198,0.345749,1.960877
2025-12-31T15:51:53.826157,12.466605,-2.388036,1.986042,-2.257757,0.442266,2.254092
2025-12-31T15:51:53.836157,12.471391,-2.967100,1.765903,-2.583959,0.590095,2.550972
2025-12-31T15:51:53.845157,12.126824,-3.675375,1.316052,-2.822196,0.753807,2.829527
2025-12-31T15:51:53.855157,11.629117,-4.498506,0.995414,-2.896722,0.839328,2.993239
2025-12-31T15:51:53.864157,11.370692,-5.364708,0.971485,-2.866179,0.794124,3.048216
2025-12-31T15:51:53.874157,11.475977,-6.254838,0.952343,-2.722014,0.632856,3.077538
2025-12-31T15:51:53.884157,11.830114,-6.905686,0.981057,-2.467895,0.417831,3.106859
2025-12-31T15:51:53.893157,12.576675,-7.618747,0.909272,-2.202779,0.223576,3.144733
2025-12-31T15:51:53.903157,13.241880,-8.226524,1.081555,-1.936442,0.125838,3.160616
2025-12-31T15:51:53.913157,13.811372,-8.590233,1.201196,-1.587027,0.144164,3.152063
2025-12-31T15:51:53.922157,14.141581,-8.274380,1.359123,-1.175304,0.265115,3.156950
2025-12-31T15:51:53.932157,13.940584,-7.393821,1.785045,-0.880867,0.443488,3.211928
2025-12-31T15:51:53.941157,13.332807,-6.723831,2.244467,-0.877202,0.585208,3.313332
2025-12-31T15:51:53.951157,12.672388,-6.704688,2.617747,-0.993266,0.627969,3.409849
2025-12-31T15:51:53.961157,12.155538,-6.876972,2.981456,-1.051909,0.555887,3.466048
2025-12-31T15:51:53.970157,11.992826,-7.255038,3.507877,-1.102000,0.426383,3.485596
2025-12-31T15:51:53.980157,12.102896,-8.011170,3.862015,-1.116661,0.317649,3.451387
2025-12-31T15:51:53.989157,12.179467,-8.934799,3.991228,-0.977384,0.283441,3.376862
2025-12-31T15:51:53.999157,11.968898,-9.643075,4.240081,-0.748920,0.333532,3.286454
2025-12-31T15:51:54.009157,11.461620,-10.145567,4.220939,-0.514348,0.448374,3.209485
2025-12-31T15:51:54.018157,10.628917,-10.509276,4.019941,-0.284663,0.554665,3.139846
2025-12-31T15:51:54.028157,9.786644,-10.681560,3.617947,-0.050090,0.587652,3.020117
2025-12-31T15:51:54.038157,9.097511,-10.849057,3.120240,0.166155,0.489913,2.863735
2025-12-31T15:51:54.047157,8.829515,-11.117053,2.670390,0.403170,0.267558,2.709797
2025-12-31T15:51:54.057157,9.030512,-11.346764,2.804388,0.676838,-0.024434,2.541198
2025-12-31T15:51:54.066157,9.930213,-11.581261,3.302095,0.938288,-0.262671,2.362826
2025-12-31T15:51:54.076157,10.849057,-11.681759,3.775874,1.161865,-0.343306,2.204001
2025-12-31T15:51:54.086157,11.605189,-11.538190,3.986442,1.347568,-0.272445,2.058615
2025-12-31T15:51:54.095157,11.949756,-11.131410,4.091726,1.463632,-0.122173,1.921781
2025-12-31T15:51:54.105157,11.954541,-10.648060,4.249652,1.459967,0.021991,1.784947
2025-12-31T15:51:54.114157,11.705688,-10.112068,4.249652,1.337794,0.124616,1.655444
2025-12-31T15:51:54.124157,11.490334,-9.676574,4.211367,1.123991,0.168598,1.532049
2025-12-31T15:51:54.134157,11.289337,-9.451649,3.617947,0.791681,0.144164,1.411098
2025-12-31T15:51:54.143157,11.279765,-9.628718,3.235096,0.392175,0.068416,1.265712
2025-12-31T15:51:54.153157,11.480762,-10.174281,3.125026,0.020769,-0.029321,1.092226
2025-12-31T15:51:54.163157,11.700902,-10.906485,2.895315,-0.254119,-0.081855,0.916297
2025-12-31T15:51:54.172157,11.633903,-11.499905,2.560320,-0.355523,-0.080634,0.734259
2025-12-31T15:51:54.182157,11.385049,-11.691331,2.416750,-0.324980,-0.054977,0.522900
2025-12-31T15:51:54.191157,10.920842,-11.763115,2.411965,-0.230907,-0.019547,0.299323
2025-12-31T15:51:54.201157,10.250852,-11.514262,2.531606,-0.094073,-0.007330,0.072082
2025-12-31T15:51:54.211157,9.590432,-11.179267,2.713460,0.054977,-0.026878,-0.152716
2025-12-31T15:51:54.220157,8.987441,-10.715059,2.775674,0.184481,-0.085521,-0.371405
2025-12-31T15:51:54.230157,8.618947,-10.408778,3.244667,0.282219,-0.183259,-0.612086
2025-12-31T15:51:54.239157,8.504091,-10.269994,3.751945,0.364075,-0.284663,-0.858876
2025-12-31T15:51:54.249157,8.642875,-10.102497,3.909872,0.470366,-0.344527,-1.082452
2025-12-31T15:51:54.259157,8.590233,-9.930213,3.804587,0.604756,-0.345749,-1.291368
2025-12-31T15:51:54.268157,8.427521,-9.743573,3.622733,0.745255,-0.322536,-1.503949
2025-12-31T15:51:54.278157,8.312665,-9.518648,3.436093,0.910189,-0.311541,-1.733635
2025-12-31T15:51:54.288157,8.078169,-9.293722,3.177668,1.130100,-0.320093,-1.980424
2025-12-31T15:51:54.297157,7.953742,-8.819944,3.081955,1.359785,-0.376292,-2.225992
2025-12-31T15:51:54.307157,7.944171,-8.073383,3.120240,1.492954,-0.478918,-2.399478
2025-12-31T15:51:54.316157,8.015955,-7.006184,3.215953,1.543045,-0.626747,-2.513099
2025-12-31T15:51:54.326157,8.283951,-5.804987,3.440878,1.451415,-0.808785,-2.604728
2025-12-31T15:51:54.336157,8.580661,-4.804787,3.799802,1.191186,-0.995710,-2.684141
2025-12-31T15:51:54.345157,8.982656,-4.086941,3.972085,0.831998,-1.142317,-2.739119
2025-12-31T15:51:54.355157,9.437292,-3.771088,3.871586,0.459370,-1.247386,-2.770884
2025-12-31T15:51:54.364157,9.719645,-3.594019,3.555734,0.105068,-1.315803,-2.800205
2025-12-31T15:51:54.374157,9.978070,-3.804587,2.976671,-0.179594,-1.368337,-2.845409
2025-12-31T15:51:54.384157,10.279565,-4.345365,2.287538,-0.337197,-1.424537,-2.899165
2025-12-31T15:51:54.393157,10.442277,-4.905286,1.603191,-0.345749,-1.488067,-2.974913
2025-12-31T15:51:54.403157,10.758130,-5.446064,0.947557,-0.212581,-1.551597,-3.070208
2025-12-31T15:51:54.413157,11.026126,-5.982056,0.497707,0.041538,-1.600466,-3.185050
2025-12-31T15:51:54.422157,11.370692,-6.312266,0.114855,0.403170,-1.640783,-3.330436
2025-12-31T15:51:54.432157,11.624332,-6.398407,-0.100498,0.825889,-1.679879,-3.472157
2025-12-31T15:51:54.441157,11.978469,-6.307480,-0.095712,1.295034,-1.727526,-3.621208
2025-12-31T15:51:54.451157,12.356535,-6.154339,0.153140,1.767843,-1.778839,-3.761707
2025-12-31T15:51:54.461157,12.691531,-5.800201,0.526420,2.213775,-1.813047,-3.878993
2025-12-31T15:51:54.470157,12.868599,-5.245067,0.564706,2.636493,-1.809382,-3.940079
2025-12-31T15:51:54.480157,12.777672,-4.469792,0.291924,3.029890,-1.782504,-3.957184
2025-12-31T15:51:54.489157,12.734601,-3.445664,0.143569,3.309667,-1.773952,-3.925419
2025-12-31T15:51:54.499157,12.567104,-2.464607,0.014356,3.439170,-1.799608,-3.849671
2025-12-31T15:51:54.509157,12.614960,-1.497906,0.000000,3.441614,-1.870468,-3.740937
2025-12-31T15:51:54.518157,12.739387,-0.679561,0.081355,3.316997,-1.949881,-3.573560
2025-12-31T15:51:54.528157,13.031311,-0.023928,0.325423,3.061655,-2.003637,-3.356092
2025-12-31T15:51:54.538157,13.261022,0.631705,0.564706,2.697580,-2.024406,-3.120298
2025-12-31T15:51:54.547157,13.447663,1.014556,0.957129,2.251648,-1.991420,-2.866179
2025-12-31T15:51:54.557157,13.442877,1.330409,1.344766,1.743409,-1.919338,-2.592511
2025-12-31T15:51:54.566157,13.361521,1.454836,1.660618,1.192408,-1.836260,-2.294409
2025-12-31T15:51:54.576157,13.380663,1.483550,1.933400,0.613308,-1.770287,-1.995085
2025-12-31T15:51:54.586157,13.280165,1.258624,2.062613,0.048869,-1.692096,-1.685987
2025-12-31T15:51:54.595157,13.112667,0.923629,2.177468,-0.463035,-1.561371,-1.402546
2025-12-31T15:51:54.605157,12.701102,0.679561,2.091326,-0.921184,-1.385442,-1.137430
2025-12-31T15:51:54.614157,12.136396,0.387637,1.919043,-1.331685,-1.199739,-0.882089
2025-12-31T15:51:54.624157,11.432906,0.090927,1.588834,-1.694539,-1.029918,-0.652403
2025-12-31T15:51:54.634157,10.652846,-0.181854,1.344766,-2.014633,-0.886976,-0.461814
2025-12-31T15:51:54.643157,9.915856,-0.765703,1.488335,-2.309070,-0.728151,-0.251676
2025-12-31T15:51:54.653157,9.140582,-1.335195,1.507478,-2.478890,-0.531452,-0.052534
2025-12-31T15:51:54.663157,8.140382,-1.574477,1.043270,-2.543642,-0.349414,0.128281
2025-12-31T15:51:54.672157,7.154539,-1.684547,0.746560,-2.574185,-0.243124,0.246789
2025-12-31T15:51:54.682157,6.427121,-1.713260,0.684347,-2.569298,-0.226020,0.285884
2025-12-31T15:51:54.691157,5.876772,-1.512263,0.665204,-2.544864,-0.260228,0.287106
2025-12-31T15:51:54.701157,5.426921,-1.239482,0.421136,-2.494773,-0.317649,0.234572
2025-12-31T15:51:54.711157,5.101497,-0.760917,0.373280,-2.471560,-0.364075,0.158824
2025-12-31T15:51:54.720157,4.661218,-0.301495,0.143569,-2.475225,-0.406836,0.040317
2025-12-31T15:51:54.730157,4.421936,0.052642,0.411565,-2.528981,-0.456927,-0.080634
2025-12-31T15:51:54.739157,4.139583,-0.157926,0.981057,-2.662150,-0.482583,-0.127059
2025-12-31T15:51:54.749157,4.000799,-0.454636,1.277767,-2.792875,-0.483805,-0.129503
2025-12-31T15:51:54.759157,3.962514,-1.201196,1.430907,-2.850296,-0.465479,-0.223576
2025-12-31T15:51:54.768157,4.211367,-2.081755,1.483550,-2.779436,-0.465479,-0.434935
2025-12-31T15:51:54.778157,4.618147,-2.498106,1.737189,-2.525316,-0.466700,-0.637743
2025-12-31T15:51:54.788157,4.843072,-2.330609,1.942971,-2.153910,-0.409279,-0.784350
2025-12-31T15:51:54.797157,5.024927,-1.703689,1.947757,-1.842369,-0.259006,-0.891863
2025-12-31T15:51:54.807157,4.823930,-0.985842,1.756331,-1.699426,-0.048869,-0.956614
2025-12-31T15:51:54.816157,4.297509,-0.435493,1.488335,-1.728748,0.140498,-0.962723
2025-12-31T15:51:54.826157,3.661018,-0.334995,1.272981,-1.841147,0.252898,-0.927293
2025-12-31T15:51:54.836157,3.297309,-0.397208,1.167697,-1.966985,0.249232,-0.869871
2025-12-31T15:51:54.845157,3.259024,-0.555134,1.086341,-2.080606,0.136833,-0.794124
2025-12-31T15:51:54.855157,3.622733,-0.789631,1.014556,-2.169792,-0.046425,-0.696386
2025-12-31T15:51:54.864157,4.493720,-0.995414,1.258624,-2.240653,-0.205250,-0.604756
2025-12-31T15:51:54.874157,5.594419,-0.942772,1.440479,-2.274861,-0.267558,-0.527787
2025-12-31T15:51:54.884157,6.575476,-0.823130,1.339980,-2.284635,-0.228463,-0.447153
2025-12-31T15:51:54.893157,7.250252,-0.708275,1.158126,-2.306626,-0.124616,-0.368962
2025-12-31T15:51:54.903157,7.762316,-0.579063,1.105484,-2.361604,-0.002443,-0.300545
2025-12-31T15:51:54.913157,8.221738,-0.617348,1.000199,-2.426356,0.086742,-0.251676
2025-12-31T15:51:54.922157,8.618947,-0.598205,0.818345,-2.467895,0.131946,-0.211359
2025-12-31T15:51:54.932157,9.020941,-0.569491,0.588634,-2.498438,0.135612,-0.184481
2025-12-31T15:51:54.941157,9.537790,-0.612562,0.301495,-2.555859,0.118507,-0.174707
2025-12-31T15:51:54.951157,10.169496,-0.708275,0.220139,-2.597398,0.101403,-0.196698
2025-12-31T15:51:54.961157,10.748559,-0.923629,0.157926,-2.596176,0.100181,-0.239459
2025-12-31T15:51:54.970157,11.241480,-1.201196,0.028713,-2.553416,0.120951,-0.289550
2025-12-31T15:51:54.980157,11.605189,-1.540977,-0.052642,-2.482555,0.147829,-0.329867
2025-12-31T15:51:54.989157,11.916256,-2.053041,-0.220139,-2.393369,0.178372,-0.353080
2025-12-31T15:51:54.999157,12.203395,-2.512463,0.004785,-2.299296,0.205250,-0.368962
2025-12-31T15:51:55.009157,12.212966,-3.134597,0.215354,-2.179566,0.306654,-0.371405
2025-12-31T15:51:55.018157,11.758330,-4.043870,0.899701,-2.012189,0.513126,-0.322536
2025-12-31T15:51:55.028157,9.714859,-3.225524,-0.698704,-1.925446,1.007927,0.211359
2025-12-31T15:51:55.038157,7.862815,-3.239881,1.770688,-1.277929,0.671951,-0.267558
2025-12-31T15:51:55.047157,8.030312,-3.450450,1.540977,-1.281595,0.178372,-0.604756
2025-12-31T15:51:55.057157,8.432306,-4.493720,1.660618,-0.944397,-0.050090,-0.427605
2025-12-31T15:51:55.066157,8.389236,-3.670589,2.297109,-0.274889,-0.015882,-0.321315
2025-12-31T15:51:55.076157,8.207381,-3.249453,2.057827,-0.031764,0.083077,-0.300545
2025-12-31T15:51:55.086157,7.810172,-3.565305,1.741974,0.228463,0.146607,-0.259006
2025-12-31T15:51:55.095157,7.283751,-2.976671,1.899901,0.648738,0.124616,-0.239459
2025-12-31T15:51:55.105157,7.135396,-2.263610,1.655833,0.913854,0.030543,-0.248011
2025-12-31T15:51:55.114157,7.412964,-1.861615,1.517049,1.033583,-0.095294,-0.249232
2025-12-31T15:51:55.124157,7.963313,-1.560120,1.555334,1.081231,-0.201585,-0.226020
2025-12-31T15:51:55.134157,8.561519,-1.306481,1.569691,1.055574,-0.265115,-0.204028
2025-12-31T15:51:55.143157,9.183653,-1.182054,1.430907,1.009149,-0.272445,-0.171042
2025-12-31T15:51:55.153157,9.686145,-0.976271,1.225125,0.957836,-0.229685,-0.124616
2025-12-31T15:51:55.163157,10.068997,-0.689132,1.000199,0.882089,-0.155159,-0.073303
2025-12-31T15:51:55.172157,10.107282,-0.425922,0.832702,0.769690,-0.047647,-0.018325
2025-12-31T15:51:55.182157,9.958927,-0.181854,0.684347,0.624304,0.061086,0.045204
2025-12-31T15:51:55.191157,9.710074,-0.023928,0.631705,0.447153,0.153938,0.129503
2025-12-31T15:51:55.201157,9.298508,-0.043070,0.555134,0.244346,0.206472,0.212581
2025-12-31T15:51:55.211157,8.829515,-0.449850,0.602991,0.051312,0.212581,0.307876
2025-12-31T15:51:55.220157,8.461020,-1.043270,0.650847,-0.080634,0.189368,0.389731
2025-12-31T15:51:55.230157,8.149953,-1.627119,0.770488,-0.109955,0.146607,0.454483
2025-12-31T15:51:55.239157,8.006384,-2.234896,0.799202,-0.032986,0.075747,0.494800
2025-12-31T15:51:55.249157,8.116454,-2.584248,0.870987,0.122173,-0.004886,0.520457
2025-12-31T15:51:55.259157,8.183453,-2.679961,1.048056,0.323758,-0.072082,0.525343
2025-12-31T15:51:55.268157,8.283951,-2.665604,1.076770,0.515570,-0.098960,0.522900
2025-12-31T15:51:55.278157,8.307880,-2.665604,1.167697,0.684168,-0.087964,0.520457
2025-12-31T15:51:55.288157,8.207381,-2.555534,1.062413,0.828333,-0.054977,0.515570
2025-12-31T15:51:55.297157,8.035098,-2.349751,0.952343,0.952949,-0.023212,0.513126
2025-12-31T15:51:55.307157,7.824529,-2.196611,0.827916,1.047022,-0.023212,0.508239
2025-12-31T15:51:55.316157,7.609175,-2.115255,0.617348,1.095892,-0.047647,0.518013
2025-12-31T15:51:55.326157,7.637889,-2.220539,0.583848,1.133765,-0.098960,0.532674
2025-12-31T15:51:55.336157,7.848458,-2.306680,0.521635,1.202182,-0.171042,0.559552
2025-12-31T15:51:55.345157,8.054240,-2.110469,0.492921,1.302364,-0.186924,0.602312
2025-12-31T15:51:55.355157,7.877171,-1.617548,0.492921,1.372003,-0.084299,0.658512
2025-12-31T15:51:55.364157,7.312465,-1.210768,0.526420,1.375668,0.094073,0.741590
2025-12-31T15:51:55.374157,6.226124,-1.014556,0.411565,1.321912,0.265115,0.841772
2025-12-31T15:51:55.384157,5.163711,-1.009771,0.253639,1.263269,0.378736,0.943175
2025-12-31T15:51:55.393157,4.067798,-1.105484,0.282353,1.238834,0.411723,1.014036
2025-12-31T15:51:55.403157,3.043670,-1.301695,0.301495,1.237612,0.365297,1.054353
2025-12-31T15:51:55.413157,2.383251,-1.540977,0.382851,1.269377,0.238237,1.073900
2025-12-31T15:51:55.422157,2.057827,-1.885544,0.440279,1.351233,0.039095,1.076344
2025-12-31T15:51:55.432157,2.153540,-2.225325,0.435493,1.479515,-0.191811,1.064127
2025-12-31T15:51:55.441157,2.799602,-2.579462,0.416351,1.659109,-0.411723,1.032362
2025-12-31T15:51:55.451157,3.742374,-2.646461,0.569491,1.868025,-0.549778,0.998153
2025-12-31T15:51:55.461157,4.670789,-2.440679,0.746560,2.050063,-0.559552,0.974940
2025-12-31T15:51:55.470157,5.297709,-2.321037,0.775274,2.190562,-0.437379,0.972497
2025-12-31T15:51:55.480157,5.546562,-2.081755,0.593420,2.295631,-0.234572,0.982271
2025-12-31T15:51:55.489157,5.302494,-1.885544,0.430708,2.366491,-0.029321,0.999375
2025-12-31T15:51:55.499157,4.996213,-1.789831,0.272781,2.399478,0.114842,1.015257
2025-12-31T15:51:55.509157,4.737788,-1.804188,0.143569,2.421469,0.157603,1.022588
2025-12-31T15:51:55.518157,4.780859,-1.741974,0.100498,2.445903,0.122173,1.017701
2025-12-31T15:51:55.528157,5.283352,-1.804188,0.028713,2.460564,0.035430,0.992044
2025-12-31T15:51:55.538157,6.001199,-1.713260,0.028713,2.463008,-0.053756,0.961501
2025-12-31T15:51:55.547157,6.896114,-1.641476,0.047856,2.461786,-0.112399,0.935845
2025-12-31T15:51:55.557157,7.896314,-1.464407,0.157926,2.439795,-0.112399,0.905302
2025-12-31T15:51:55.566157,8.733802,-1.220339,0.540777,2.382373,-0.036651,0.875980
2025-12-31T15:51:55.576157,9.451649,-0.952343,0.770488,2.280970,0.102625,0.856432
2025-12-31T15:51:55.586157,9.978070,-0.564706,0.976271,2.118480,0.287106,0.862541
2025-12-31T15:51:55.595157,10.298708,-0.100498,0.971485,1.879021,0.471587,0.904080
2025-12-31T15:51:55.605157,10.384850,0.234496,1.052841,1.567479,0.598647,0.967610
2025-12-31T15:51:55.614157,10.600204,0.512064,1.153340,1.203404,0.653625,1.043357
2025-12-31T15:51:55.624157,10.896914,0.598205,1.057627,0.805120,0.669508,1.152091
2025-12-31T15:51:55.634157,11.284551,0.555134,1.004985,0.362853,0.702494,1.329242
2025-12-31T15:51:55.643157,11.442477,0.220139,1.019342,-0.109955,0.769690,1.536936
2025-12-31T15:51:55.653157,11.322836,-0.401994,0.894915,-0.576656,0.890641,1.753182
2025-12-31T15:51:55.663157,10.849057,-1.234696,0.693918,-0.937067,1.012814,1.965763
2025-12-31T15:51:55.672157,10.179067,-1.947757,0.684347,-1.125213,1.094670,2.149023
2025-12-31T15:51:55.682157,9.628718,-2.459821,0.880558,-1.174082,1.066570,2.245540
2025-12-31T15:51:55.691157,9.461220,-3.072384,1.416550,-1.126435,0.921184,2.283413
2025-12-31T15:51:55.701157,9.863214,-3.570091,1.727617,-1.018923,0.702494,2.302961
2025-12-31T15:51:55.711157,10.662417,-3.799802,1.550549,-0.858876,0.472809,2.311513
2025-12-31T15:51:55.720157,11.696116,-3.632304,1.402194,-0.663399,0.280997,2.272418
2025-12-31T15:51:55.730157,12.811172,-3.464807,1.392622,-0.494800,0.191811,2.172236
2025-12-31T15:51:55.739157,13.658231,-3.263810,1.402194,-0.379958,0.237015,2.075719
2025-12-31T15:51:55.749157,14.069796,-2.933600,1.454836,-0.322536,0.395840,2.053728
2025-12-31T15:51:55.759157,13.825728,-2.603390,1.789831,-0.420275,0.637743,2.118480
2025-12-31T15:51:55.768157,13.160524,-2.761317,1.875972,-0.724486,0.855211,2.243096
2025-12-31T15:51:55.778157,12.399606,-3.546163,1.899901,-1.077566,0.927293,2.411695
2025-12-31T15:51:55.788157,12.107682,-4.522434,2.134397,-1.354898,0.824667,2.571742
2025-12-31T15:51:55.797157,12.184252,-5.661418,1.976471,-1.506393,0.613308,2.696358
2025-12-31T15:51:55.807157,12.658031,-6.570690,1.593619,-1.459967,0.371405,2.768440
2025-12-31T15:51:55.816157,13.366307,-7.140182,1.292124,-1.255938,0.169820,2.791653
2025-12-31T15:51:55.826157,14.117653,-7.436892,1.397408,-1.020144,0.092851,2.773327
2025-12-31T15:51:55.836157,14.730215,-7.671389,1.320838,-0.792902,0.180816,2.759888
2025-12-31T15:51:55.845157,14.873785,-7.566105,1.038485,-0.548556,0.404392,2.774549
2025-12-31T15:51:55.855157,14.333007,-7.441678,0.875773,-0.332310,0.667064,2.769662
2025-12-31T15:51:55.864157,13.462019,-7.188039,0.937986,-0.215024,0.875980,2.761110
2025-12-31T15:51:55.874157,12.538390,-7.121040,1.052841,-0.172263,0.965166,2.775771
2025-12-31T15:51:55.884157,11.753544,-7.164110,1.282552,-0.167377,0.929736,2.789210
2025-12-31T15:51:55.893157,11.346764,-7.427321,1.651047,-0.189368,0.803898,2.759888
2025-12-31T15:51:55.903157,11.227123,-7.834101,1.928615,-0.168598,0.637743,2.698802
2025-12-31T15:51:55.913157,11.485548,-8.260023,1.904686,-0.081855,0.487470,2.654819
2025-12-31T15:51:55.922157,11.710473,-8.322237,1.832902,0.037873,0.386066,2.616946
2025-12-31T15:51:55.932157,12.117253,-8.317451,1.856830,0.122173,0.309097,2.544864
2025-12-31T15:51:55.941157,12.409178,-8.331808,1.828116,0.145385,0.267558,2.467895
2025-12-31T15:51:55.951157,12.591032,-8.303094,1.689332,0.147829,0.262671,2.383595
2025-12-31T15:51:55.961157,12.677174,-8.389236,1.689332,0.136833,0.285884,2.269974
2025-12-31T15:51:55.970157,12.634103,-8.494520,1.584048,0.103847,0.322536,2.134362
2025-12-31T15:51:55.980157,12.466605,-8.685946,1.354337,0.074525,0.338419,1.968207
2025-12-31T15:51:55.989157,12.370892,-9.025726,1.368694,0.057421,0.306654,1.767843
2025-12-31T15:51:55.999157,12.466605,-9.274580,1.320838,0.056199,0.238237,1.555262
2025-12-31T15:51:56.009157,12.557533,-9.403792,1.277767,0.078190,0.153938,1.336572
2025-12-31T15:51:56.018157,12.629317,-9.255437,1.067198,0.120951,0.079412,1.103222
2025-12-31T15:51:56.028157,12.710673,-8.815158,0.808774,0.114842,0.013439,0.849102
2025-12-31T15:51:56.038157,12.715459,-8.528019,0.784845,-0.020769,-0.039095,0.598647
2025-12-31T15:51:56.047157,12.720244,-8.585447,0.674775,-0.202807,-0.085521,0.351858
2025-12-31T15:51:56.057157,12.662817,-8.614161,0.521635,-0.340862,-0.144164,0.100181
2025-12-31T15:51:56.066157,12.538390,-8.528019,0.622133,-0.463035,-0.218689,-0.164933
2025-12-31T15:51:56.076157,12.423534,-8.595018,0.732203,-0.581543,-0.290771,-0.437379
2025-12-31T15:51:56.086157,12.303893,-8.590233,0.799202,-0.646295,-0.344527,-0.711046
2025-12-31T15:51:56.095157,12.117253,-8.604590,1.134197,-0.652403,-0.378736,-0.974940
2025-12-31T15:51:56.105157,11.844471,-8.618947,1.512263,-0.630412,-0.399505,-1.218065
2025-12-31T15:51:56.114157,11.480762,-8.690731,1.655833,-0.570548,-0.399505,-1.428202
2025-12-31T15:51:56.124157,11.117053,-8.748159,1.761117,-0.454483,-0.415388,-1.631009
2025-12-31T15:51:56.134157,10.815558,-8.729016,1.890329,-0.285884,-0.460592,-1.833817
2025-12-31T15:51:56.143157,10.705488,-8.571090,1.856830,-0.068416,-0.530230,-2.041511
2025-12-31T15:51:56.153157,10.652846,-8.221738,1.708475,0.163711,-0.597426,-2.235766
2025-12-31T15:51:56.163157,10.782058,-7.661817,1.550549,0.370184,-0.637743,-2.431243
2025-12-31T15:51:56.172157,10.700702,-6.948756,1.201196,0.527787,-0.640186,-2.621833
2025-12-31T15:51:56.182157,10.638489,-6.072983,0.861416,0.605978,-0.664621,-2.763553
2025-12-31T15:51:56.191157,10.523633,-5.211567,0.593420,0.549778,-0.741590,-2.849074
2025-12-31T15:51:56.201157,10.585847,-4.469792,0.526420,0.360410,-0.856432,-2.918713
2025-12-31T15:51:56.211157,10.896914,-3.991228,0.760917,0.051312,-0.998153,-2.973691
2025-12-31T15:51:56.220157,11.533404,-3.952942,1.191625,-0.331088,-1.128878,-2.999347
2025-12-31T15:51:56.230157,12.246466,-4.345365,1.612762,-0.695164,-1.207069,-3.004234
2025-12-31T15:51:56.239157,12.926027,-4.867001,1.823330,-0.959058,-1.216843,-3.022560
2025-12-31T15:51:56.249157,13.361521,-5.278566,1.698904,-1.117883,-1.167974,-3.031112
2025-12-31T15:51:56.259157,13.629517,-5.570491,1.454836,-1.203404,-1.071457,-3.040886
2025-12-31T15:51:56.268157,13.634303,-5.862415,1.129412,-1.209512,-0.935845,-3.064099
2025-12-31T15:51:56.278157,13.428520,-6.010770,0.760917,-1.125213,-0.797789,-3.105638
2025-12-31T15:51:56.288157,13.016954,-6.029912,0.401994,-0.972497,-0.697607,-3.176498
2025-12-31T15:51:56.297157,12.624532,-5.943771,0.191425,-0.784350,-0.664621,-3.266906
2025-12-31T15:51:56.307157,12.385249,-5.771488,-0.009571,-0.577878,-0.679282,-3.345097
2025-12-31T15:51:56.316157,12.313465,-5.613561,-0.157926,-0.365297,-0.715933,-3.404962
2025-12-31T15:51:56.326157,12.299108,-5.407779,-0.296710,-0.138055,-0.766024,-3.451387
2025-12-31T15:51:56.336157,12.423534,-5.139782,-0.315852,0.083077,-0.852767,-3.505144
2025-12-31T15:51:56.345157,12.796815,-4.900500,-0.282353,0.265115,-0.945619,-3.534465
2025-12-31T15:51:56.355157,13.227523,-4.756931,-0.167497,0.426383,-1.015257,-3.540574
2025-12-31T15:51:56.364157,13.639088,-4.594219,-0.081355,0.586430,-1.049466,-3.530800
2025-12-31T15:51:56.374157,13.983655,-4.335794,-0.095712,0.725707,-1.049466,-3.499035
2025-12-31T15:51:56.384157,14.151152,-4.240081,-0.110069,0.840550,-1.018923,-3.444057
2025-12-31T15:51:56.393157,14.289936,-4.072584,-0.100498,0.938288,-0.974940,-3.371975
2025-12-31T15:51:56.403157,14.333007,-3.972085,-0.023928,1.009149,-0.923628,-3.265684
2025-12-31T15:51:56.413157,14.242080,-3.881158,0.052642,1.049466,-0.867428,-3.137403
2025-12-31T15:51:56.422157,14.117653,-3.751945,0.019142,1.084896,-0.802676,-2.987130
2025-12-31T15:51:56.432157,13.964512,-3.531806,0.009571,1.119104,-0.731816,-2.817309
2025-12-31T15:51:56.441157,13.691730,-3.096312,-0.076570,1.136209,-0.651182,-2.632828
2025-12-31T15:51:56.451157,13.395020,-2.622533,-0.200997,1.123991,-0.574213,-2.430021
2025-12-31T15:51:56.461157,12.911670,-1.947757,-0.430708,1.067792,-0.503352,-2.204001
2025-12-31T15:51:56.470157,12.504890,-1.249053,-0.583848,0.940732,-0.448374,-1.958433
2025-12-31T15:51:56.480157,11.978469,-0.660419,-0.899701,0.709825,-0.389731,-1.673770
2025-12-31T15:51:56.489157,11.428120,-0.181854,-1.493121,0.388510,-0.357966,-1.347568
2025-12-31T15:51:56.499157,10.786844,0.095712,-1.971685,0.001221,-0.375071,-0.994488
2025-12-31T15:51:56.509157,10.317851,0.028713,-2.311466,-0.428827,-0.427605,-0.654847
2025-12-31T15:51:56.518157,9.925428,-0.612562,-2.411965,-0.811228,-0.499687,-0.351858
2025-12-31T15:51:56.528157,9.753144,-1.320838,-2.378465,-1.004262,-0.570548,-0.086742
2025-12-31T15:51:56.538157,9.748359,-1.378265,-1.904686,-0.972497,-0.609643,0.103847
2025-12-31T15:51:56.547157,9.748359,-0.866201,-1.292124,-0.886976,-0.591317,0.207694
2025-12-31T15:51:56.557157,9.643075,-0.081355,-0.899701,-0.873537,-0.488692,0.272445
2025-12-31T15:51:56.566157,9.317651,0.684347,-0.689132,-0.960279,-0.310319,0.338419
2025-12-31T15:51:56.576157,8.781658,1.182054,-0.421136,-1.188743,-0.092851,0.362853
2025-12-31T15:51:56.586157,8.063812,1.172483,-0.157926,-1.522275,0.128281,0.321315
2025-12-31T15:51:56.595157,7.144968,0.411565,0.062213,-1.868025,0.323758,0.246789
2025-12-31T15:51:56.605157,5.910271,-0.736989,0.148355,-2.108706,0.454483,0.138055
2025-12-31T15:51:56.614157,4.694717,-1.938186,0.181854,-2.175901,0.505796,0.000000
2025-12-31T15:51:56.624157,3.503092,-2.751745,0.215354,-2.040289,0.491135,-0.158824
2025-12-31T15:51:56.634157,2.416750,-3.254238,0.263210,-1.710422,0.426383,-0.342084
2025-12-31T15:51:56.643157,1.651047,-3.187239,0.363709,-1.253495,0.302989,-0.547335
2025-12-31T15:51:56.653157,1.143769,-2.684746,0.421136,-0.778242,0.107512,-0.712268
2025-12-31T15:51:56.663157,1.239482,-1.885544,0.602991,-0.398284,-0.120951,-0.818559
2025-12-31T15:51:56.672157,1.703689,-1.095912,0.861416,-0.227241,-0.313984,-0.888197
2025-12-31T15:51:56.682157,2.383251,-0.885344,1.220339,-0.215024,-0.404392,-0.926071
2025-12-31T15:51:56.691157,2.938386,-0.708275,1.540977,-0.263893,-0.382401,-0.908967
2025-12-31T15:51:56.701157,3.378665,-0.717846,1.770688,-0.366519,-0.278554,-0.838106
2025-12-31T15:51:56.711157,3.622733,-0.837487,1.866401,-0.518013,-0.146607,-0.739146
2025-12-31T15:51:56.720157,3.627519,-1.009771,1.818545,-0.671951,-0.039095,-0.629191
2025-12-31T15:51:56.730157,3.550948,-1.124626,1.842473,-0.801455,0.050090,-0.505796
2025-12-31T15:51:56.739157,3.550948,-1.205982,1.919043,-0.926071,0.122173,-0.387288
2025-12-31T15:51:56.749157,3.565305,-1.311266,1.823330,-1.026253,0.167377,-0.267558
2025-12-31T15:51:56.759157,3.584448,-1.330409,1.679761,-1.109331,0.186924,-0.151494
2025-12-31T15:51:56.768157,3.809373,-1.373480,1.646261,-1.210734,0.182037,-0.036651
2025-12-31T15:51:56.778157,4.216153,-1.493121,1.631905,-1.312138,0.140498,0.075747
2025-12-31T15:51:56.788157,4.776073,-1.593619,1.550549,-1.387885,0.107512,0.201585
2025-12-31T15:51:56.797157,5.350351,-1.555334,1.287338,-1.434311,0.128281,0.328645
2025-12-31T15:51:56.807157,5.761916,-1.593619,1.062413,-1.478293,0.194255,0.447153
2025-12-31T15:51:56.816157,6.082555,-1.746760,0.674775,-1.543045,0.280997,0.575434
2025-12-31T15:51:56.826157,6.317051,-1.923829,0.344566,-1.579697,0.346971,0.674395
2025-12-31T15:51:56.836157,6.470192,-2.115255,0.220139,-1.545488,0.357966,0.740368
2025-12-31T15:51:56.845157,6.838686,-2.297109,0.076570,-1.447750,0.293215,0.784350
2025-12-31T15:51:56.855157,7.451249,-2.182254,0.090927,-1.315803,0.178372,0.796568
2025-12-31T15:51:56.864157,8.274380,-1.942971,-0.004785,-1.178969,0.029321,0.778242
2025-12-31T15:51:56.874157,9.351150,-1.655833,-0.081355,-1.053131,-0.119729,0.757472
2025-12-31T15:51:56.884157,10.509276,-1.306481,-0.239282,-0.970053,-0.251676,0.725707
2025-12-31T15:51:56.893157,11.763115,-0.995414,-0.497707,-0.948062,-0.354301,0.706160
2025-12-31T15:51:56.903157,12.945170,-0.937986,-0.823130,-0.994488,-0.410501,0.702494
2025-12-31T15:51:56.913157,14.031511,-1.000199,-1.172483,-1.059240,-0.394618,0.704938
2025-12-31T15:51:56.922157,14.931213,-1.287338,-1.196411,-1.112996,-0.298102,0.689055
2025-12-31T15:51:56.932157,15.395420,-1.670190,-1.014556,-1.121548,-0.145385,0.662177
2025-12-31T15:51:56.941157,15.352349,-1.904686,-0.646062,-1.033583,0.136833,0.630412
2025-12-31T15:51:56.951157,14.371292,-1.875972,-0.239282,-0.847880,0.519235,0.609643
2025-12-31T15:51:56.961157,12.634103,-1.483550,0.272781,-0.626747,0.860098,0.614530
2025-12-31T15:51:56.970157,10.652846,-1.043270,0.780060,-0.444709,1.067792,0.634077
2025-12-31T15:51:56.980157,8.748159,-0.851844,1.196411,-0.291993,1.112996,0.680503
2025-12-31T15:51:56.989157,7.130611,-0.894915,1.502692,-0.118507,1.001818,0.725707
2025-12-31T15:51:56.999157,5.962913,-0.847059,1.560120,0.107512,0.762359,0.746477
2025-12-31T15:51:57.009157,5.340780,-0.923629,1.421336,0.365297,0.438601,0.737925
2025-12-31T15:51:57.018157,5.407779,-0.899701,1.253839,0.614530,0.092851,0.689055
2025-12-31T15:51:57.028157,6.173482,-0.770488,1.100698,0.845437,-0.200363,0.597426
2025-12-31T15:51:57.038157,7.188039,-0.392422,1.067198,1.044579,-0.365297,0.519235
2025-12-31T15:51:57.047157,8.145168,0.153140,1.086341,1.165530,-0.403170,0.447153
2025-12-31T15:51:57.057157,8.910871,0.641276,0.894915,1.193630,-0.365297,0.381179
2025-12-31T15:51:57.066157,9.533005,0.904486,0.717846,1.149648,-0.299323,0.328645
2025-12-31T15:51:57.076157,10.016355,1.167697,0.464207,1.049466,-0.252898,0.289550
2025-12-31T15:51:57.086157,10.557133,1.392622,0.086141,0.926071,-0.237015,0.266337
2025-12-31T15:51:57.095157,11.097911,1.837687,-0.311066,0.801455,-0.219911,0.262671
2025-12-31T15:51:57.105157,11.361121,2.335394,-0.636490,0.658512,-0.175929,0.282219
2025-12-31T15:51:57.114157,11.595618,2.651247,-0.799202,0.445931,-0.102625,0.334754
2025-12-31T15:51:57.124157,11.571690,2.651247,-0.837487,0.174707,-0.010995,0.403170
2025-12-31T15:51:57.134157,11.418549,2.249253,-0.722632,-0.095294,0.062308,0.464257
2025-12-31T15:51:57.143157,11.193624,1.646261,-0.674775,-0.265115,0.087964,0.518013
2025-12-31T15:51:57.153157,10.863414,1.196411,-0.569491,-0.290771,0.080634,0.533896
2025-12-31T15:51:57.163157,10.494919,0.985842,-0.421136,-0.261450,0.074525,0.500909
2025-12-31T15:51:57.172157,10.126425,0.646062,-0.282353,-0.235793,0.079412,0.438601
2025-12-31T15:51:57.182157,9.590432,0.277567,-0.033499,-0.204028,0.105068,0.357966
2025-12-31T15:51:57.191157,8.853443,-0.354137,0.167497,-0.173485,0.149051,0.262671
2025-12-31T15:51:57.201157,8.130811,-1.158126,0.320638,-0.119729,0.180816,0.151494
2025-12-31T15:51:57.211157,7.412964,-2.081755,0.641276,0.003665,0.129503,0.012217
2025-12-31T15:51:57.220157,6.982256,-2.804388,0.827916,0.244346,-0.031764,-0.134390
2025-12-31T15:51:57.230157,7.058826,-3.024527,0.856630,0.624304,-0.265115,-0.285884
2025-12-31T15:51:57.239157,7.585247,-2.455035,0.880558,1.066570,-0.449596,-0.420275
2025-12-31T15:51:57.249157,8.178667,-1.430907,0.990628,1.324355,-0.470366,-0.522900
2025-12-31T15:51:57.259157,8.283951,-0.746560,0.923629,1.313359,-0.357966,-0.552222
2025-12-31T15:51:57.268157,8.001598,-0.272781,0.847059,1.186300,-0.173485,-0.514348
2025-12-31T15:51:57.278157,7.393821,-0.009571,0.823130,0.971275,0.017104,-0.448374
2025-12-31T15:51:57.288157,6.503691,-0.181854,0.875773,0.682947,0.152716,-0.364075
2025-12-31T15:51:57.297157,5.527420,-0.646062,0.732203,0.431270,0.205250,-0.271224
2025-12-31T15:51:57.307157,4.637290,-1.215553,0.698704,0.268780,0.180816,-0.188146
2025-12-31T15:51:57.316157,4.034298,-1.564905,0.703489,0.194255,0.114842,-0.117286
2025-12-31T15:51:57.326157,3.637090,-1.904686,0.885344,0.186924,0.043982,-0.050090
2025-12-31T15:51:57.336157,3.373879,-2.086541,1.004985,0.241902,-0.008552,0.018325
2025-12-31T15:51:57.345157,3.105883,-2.134397,1.272981,0.315206,-0.029321,0.085521
2025-12-31T15:51:57.355157,2.919243,-2.143969,1.584048,0.393397,-0.024434,0.160046
2025-12-31T15:51:57.364157,2.699103,-2.067398,1.536192,0.474031,0.003665,0.239459
2025-12-31T15:51:57.374157,2.478964,-2.043470,1.483550,0.546113,0.037873,0.310319
2025-12-31T15:51:57.384157,2.344966,-1.990828,1.344766,0.583987,0.045204,0.362853
2025-12-31T15:51:57.393157,2.277967,-2.167897,1.272981,0.599869,0.020769,0.401949
2025-12-31T15:51:57.403157,2.517249,-2.378465,1.124626,0.642630,-0.024434,0.421496
2025-12-31T15:51:57.413157,2.852244,-2.512463,1.019342,0.717155,-0.080634,0.408057
2025-12-31T15:51:57.422157,3.397808,-2.541177,0.899701,0.806341,-0.118507,0.389731
2025-12-31T15:51:57.432157,3.924229,-2.598605,0.909272,0.889419,-0.122173,0.368962
2025-12-31T15:51:57.441157,4.479363,-2.522035,0.861416,0.951727,-0.086742,0.357966
2025-12-31T15:51:57.451157,4.876572,-2.411965,0.837487,0.983492,-0.015882,0.362853
2025-12-31T15:51:57.461157,5.096712,-2.230110,0.770488,0.978605,0.062308,0.378736
2025-12-31T15:51:57.470157,5.278566,-2.043470,0.760917,0.923628,0.135612,0.404392
2025-12-31T15:51:57.480157,5.383850,-2.033899,0.760917,0.829554,0.194255,0.450818
2025-12-31T15:51:57.489157,5.536991,-2.009970,0.780060,0.728151,0.228463,0.515570
2025-12-31T15:51:57.499157,5.714060,-2.053041,0.717846,0.634077,0.244346,0.582765
2025-12-31T15:51:57.509157,5.977270,-2.158325,0.693918,0.540004,0.243124,0.652403
2025-12-31T15:51:57.518157,6.197410,-2.359323,0.669990,0.448374,0.237015,0.717155
2025-12-31T15:51:57.528157,6.623332,-2.598605,0.660419,0.377514,0.223576,0.773355
2025-12-31T15:51:57.538157,6.934399,-2.809173,0.545563,0.332310,0.218689,0.830776
2025-12-31T15:51:57.547157,7.250252,-2.971885,0.325423,0.321315,0.212581,0.879645
2025-12-31T15:51:57.557157,7.637889,-3.005385,0.100498,0.349414,0.201585,0.916297
2025-12-31T15:51:57.566157,8.035098,-2.971885,0.143569,0.377514,0.183259,0.949284
2025-12-31T15:51:57.576157,8.408378,-3.062812,0.263210,0.386066,0.174707,0.994488
2025-12-31T15:51:57.586157,8.829515,-3.177668,0.459421,0.403170,0.178372,1.029918
2025-12-31T15:51:57.595157,9.183653,-3.321237,0.411565,0.465479,0.178372,1.051909
2025-12-31T15:51:57.605157,9.556933,-3.311666,0.387637,0.564439,0.166155,1.065348
2025-12-31T15:51:57.614157,9.963713,-3.330809,0.344566,0.648738,0.122173,1.075122
2025-12-31T15:51:57.624157,10.585847,-3.479164,0.478564,0.670729,0.046425,1.094670
2025-12-31T15:51:57.634157,11.399406,-3.909872,0.679561,0.632856,-0.050090,1.164308
2025-12-31T15:51:57.643157,12.308679,-4.398007,0.861416,0.599869,-0.127059,1.253495
2025-12-31T15:51:57.653157,13.131810,-4.852644,0.914058,0.624304,-0.111177,1.335351
2025-12-31T15:51:57.663157,13.753944,-5.039284,1.067198,0.712268,0.030543,1.384220
2025-12-31T15:51:57.672157,13.902299,-4.800002,0.856630,0.823446,0.280997,1.457524
2025-12-31T15:51:57.682157,13.481162,-4.326223,0.617348,0.891863,0.551000,1.578475
2025-12-31T15:51:57.691157,12.744173,-3.828516,0.684347,0.852767,0.728151,1.722639
2025-12-31T15:51:57.701157,11.954541,-3.699303,0.416351,0.712268,0.733038,1.858251
2025-12-31T15:51:57.711157,11.791829,-4.086941,0.244067,0.559552,0.559552,1.974316
2025-12-31T15:51:57.720157,12.380464,-4.828716,0.535992,0.476474,0.287106,2.053728
2025-12-31T15:51:57.730157,13.572089,-5.532205,0.961914,0.467922,0.062308,2.111149
2025-12-31T15:51:57.739157,14.749358,-6.216553,1.033699,0.519235,-0.035430,2.167349
2025-12-31T15:51:57.749157,15.658631,-6.704688,0.799202,0.651182,-0.026878,2.194227
2025-12-31T15:51:57.759157,16.333406,-6.838686,0.521635,0.855211,0.073303,2.179566
2025-12-31T15:51:57.768157,16.577475,-6.503691,0.076570,1.070235,0.262671,2.130697
2025-12-31T15:51:57.778157,16.476976,-5.886343,-0.263210,1.262047,0.533896,2.087936
2025-12-31T15:51:57.788157,15.902698,-4.910071,-0.244067,1.356120,0.800233,2.084271
2025-12-31T15:51:57.797157,14.931213,-4.240081,-0.196211,1.248608,0.961501,2.131919
2025-12-31T15:51:57.807157,14.189438,-4.043870,-0.162711,1.009149,0.957836,2.191784
2025-12-31T15:51:57.816157,13.969298,-4.244867,-0.023928,0.778242,0.795346,2.229657
2025-12-31T15:51:57.826157,14.141581,-4.713860,0.287138,0.642630,0.563217,2.235766
2025-12-31T15:51:57.836157,14.940784,-4.962714,0.602991,0.608421,0.360410,2.216218
2025-12-31T15:51:57.845157,15.826128,-5.048855,1.115055,0.623082,0.252898,2.182010
2025-12-31T15:51:57.855157,16.558332,-4.900500,1.584048,0.632856,0.257785,2.147801
2025-12-31T15:51:57.864157,17.022539,-4.646861,1.895115,0.591317,0.311541,2.102597
2025-12-31T15:51:57.874157,17.247465,-4.642075,1.756331,0.430049,0.395840,2.069610
2025-12-31T15:51:57.884157,17.146967,-4.895715,1.368694,0.248011,0.476474,2.047619
2025-12-31T15:51:57.893157,16.850256,-5.211567,1.363908,0.108733,0.502131,1.974316
2025-12-31T15:51:57.903157,16.749758,-5.627918,1.344766,-0.010995,0.444709,1.865582
2025-12-31T15:51:57.913157,16.649260,-5.881557,1.038485,-0.076969,0.293215,1.707978
2025-12-31T15:51:57.922157,16.922041,-5.996413,0.933200,-0.125838,0.113620,1.522275
2025-12-31T15:51:57.932157,17.295321,-6.254838,0.602991,-0.204028,-0.072082,1.345124
2025-12-31T15:51:57.941157,17.659031,-6.522834,0.306281,-0.248011,-0.246789,1.158200
2025-12-31T15:51:57.951157,17.994024,-6.757331,-0.119641,-0.219911,-0.375071,0.945619
2025-12-31T15:51:57.961157,18.233309,-6.809973,-0.267996,-0.166155,-0.460592,0.697607
2025-12-31T15:51:57.970157,18.443876,-6.862615,-0.062213,-0.084299,-0.469144,0.415388
2025-12-31T15:51:57.980157,18.343378,-6.695117,0.330209,0.042760,-0.362853,0.144164
2025-12-31T15:51:57.989157,17.783457,-6.259623,0.794417,0.193033,-0.221133,-0.111177
2025-12-31T15:51:57.999157,17.003397,-5.594419,1.244267,0.273667,-0.136833,-0.371405
2025-12-31T15:51:58.009157,16.027124,-4.924428,1.344766,0.228463,-0.133168,-0.614530
2025-12-31T15:51:58.018157,15.055639,-4.177868,1.478764,0.057421,-0.206472,-0.806341
2025-12-31T15:51:58.028157,14.242080,-3.885943,1.952543,-0.283441,-0.310319,-0.937067
2025-12-31T15:51:58.038157,13.447663,-4.455435,2.282752,-0.736703,-0.350636,-1.042135
2025-12-31T15:51:58.047157,12.863814,-5.694917,2.273181,-1.055574,-0.378736,-1.158200
2025-12-31T15:51:58.057157,12.375678,-6.613761,2.100898,-1.075122,-0.470366,-1.254716
2025-12-31T15:51:58.066157,12.299108,-6.833901,1.899901,-0.895528,-0.643851,-1.364672
2025-12-31T15:51:58.076157,12.672388,-6.656832,1.655833,-0.703716,-0.838106,-1.521054
2025-12-31T15:51:58.086157,12.921242,-6.230910,1.196411,-0.551000,-0.823446,-1.717752
2025-12-31T15:51:58.095157,12.705888,-6.020341,0.741775,-0.401949,-0.587652,-1.894903
2025-12-31T15:51:58.105157,11.901899,-5.867201,0.344566,-0.226020,-0.373849,-1.979202
2025-12-31T15:51:58.114157,11.136196,-5.642275,0.239282,0.006108,-0.366519,-2.036624
2025-12-31T15:51:58.124157,10.710273,-5.216353,-0.047856,0.276111,-0.497244,-2.185675
2025-12-31T15:51:58.134157,10.705488,-4.670789,-0.344566,0.486248,-0.623082,-2.340835
2025-12-31T15:51:58.143157,10.705488,-4.230510,-0.358923,0.629191,-0.698829,-2.437351
2025-12-31T15:51:58.153157,10.782058,-3.905086,-0.473778,0.715933,-0.777020,-2.502103
2025-12-31T15:51:58.163157,10.973484,-3.814159,-0.521635,0.756251,-0.866206,-2.530203
2025-12-31T15:51:58.172157,11.217552,-4.043870,-0.401994,0.786794,-0.970053,-2.558303
2025-12-31T15:51:58.182157,11.633903,-4.139583,-0.186640,0.847880,-1.056796,-2.585181
2025-12-31T15:51:58.191157,12.026326,-4.326223,0.076570,0.962723,-1.093448,-2.603507
2025-12-31T15:51:58.201157,12.145967,-4.201796,0.220139,1.123991,-1.084896,-2.610837
2025-12-31T15:51:58.211157,12.189038,-3.900300,0.330209,1.291368,-1.045801,-2.599841
2025-12-31T15:51:58.220157,12.069397,-3.397808,0.401994,1.414763,-1.012814,-2.574185
2025-12-31T15:51:58.230157,11.901899,-2.986242,0.502492,1.477071,-1.006705,-2.528981
2025-12-31T15:51:58.239157,11.772687,-2.574677,0.445065,1.484402,-1.036027,-2.460564
2025-12-31T15:51:58.249157,11.820543,-2.292324,0.358923,1.451415,-1.105665,-2.381152
2025-12-31T15:51:58.259157,11.992826,-2.100898,0.315852,1.392772,-1.185078,-2.288300
2025-12-31T15:51:58.268157,12.308679,-1.971685,0.143569,1.319468,-1.248608,-2.191784
2025-12-31T15:51:58.278157,12.629317,-1.847259,0.000000,1.226617,-1.280373,-2.098932
2025-12-31T15:51:58.288157,12.969098,-1.756331,0.038285,1.127656,-1.277929,-2.014633
2025-12-31T15:51:58.297157,13.217952,-1.631905,0.004785,1.028696,-1.230282,-1.925446
2025-12-31T15:51:58.307157,13.265808,-1.402194,0.100498,0.901636,-1.170417,-1.821599
2025-12-31T15:51:58.316157,13.275379,-1.177268,0.200997,0.724486,-1.091005,-1.709200
2025-12-31T15:51:58.326157,13.107882,-1.067198,0.191425,0.511904,-0.978605,-1.572366
2025-12-31T15:51:58.336157,12.863814,-0.823130,0.277567,0.280997,-0.868650,-1.435533
2025-12-31T15:51:58.345157,12.480962,-0.660419,0.239282,0.041538,-0.805120,-1.292590
2025-12-31T15:51:58.355157,12.232109,-0.569491,0.387637,-0.218689,-0.790459,-1.155756
2025-12-31T15:51:58.364157,12.136396,-0.602991,0.507278,-0.486248,-0.792902,-1.022588
2025-12-31T15:51:58.374157,12.088539,-0.660419,0.540777,-0.753807,-0.780685,-0.875980
2025-12-31T15:51:58.384157,12.040683,-0.789631,0.440279,-1.020144,-0.735481,-0.725707
2025-12-31T15:51:58.393157,11.873185,-0.957129,0.425922,-1.274264,-0.652403,-0.591317
2025-12-31T15:51:58.403157,11.499905,-1.177268,0.387637,-1.494176,-0.530230,-0.466700
2025-12-31T15:51:58.413157,11.069197,-1.402194,0.349352,-1.662774,-0.389731,-0.354301
2025-12-31T15:51:58.422157,10.432706,-1.545763,0.354137,-1.788613,-0.243124,-0.248011
2025-12-31T15:51:58.432157,9.643075,-1.655833,0.421136,-1.876577,-0.106290,-0.158824
2025-12-31T15:51:58.441157,8.853443,-1.670190,0.387637,-1.926668,0.017104,-0.076969
2025-12-31T15:51:58.451157,8.006384,-1.560120,0.497707,-1.951103,0.131946,-0.018325
2025-12-31T15:51:58.461157,7.125825,-1.435693,0.545563,-1.973094,0.239459,0.019547
2025-12-31T15:51:58.470157,6.187839,-1.253839,0.583848,-1.975537,0.333532,0.042760
2025-12-31T15:51:58.480157,5.307280,-1.067198,0.636490,-1.968207,0.400727,0.061086
2025-12-31T15:51:58.489157,4.326223,-0.890130,0.497707,-1.969429,0.433714,0.067195
2025-12-31T15:51:58.499157,3.560520,-0.708275,0.713061,-1.952324,0.406836,0.020769
2025-12-31T15:51:58.509157,2.957528,-0.650847,0.775274,-1.927890,0.322536,-0.041538
2025-12-31T15:51:58.518157,2.617747,-0.588634,0.909272,-1.893681,0.210137,-0.112399
2025-12-31T15:51:58.528157,2.364108,-0.564706,0.966700,-1.872912,0.117286,-0.156381
2025-12-31T15:51:58.538157,2.287538,-0.803988,1.062413,-1.863138,0.061086,-0.195476
2025-12-31T15:51:58.547157,2.287538,-1.110269,1.162911,-1.835038,0.043982,-0.244346
2025-12-31T15:51:58.557157,2.277967,-1.383051,1.234696,-1.751961,0.057421,-0.301767
2025-12-31T15:51:58.566157,2.359323,-1.531406,1.076770,-1.615127,0.072082,-0.356745
2025-12-31T15:51:58.576157,2.541177,-1.440479,0.713061,-1.441641,0.078190,-0.398284
2025-12-31T15:51:58.586157,2.746960,-1.138983,0.368494,-1.224173,0.080634,-0.442266
2025-12-31T15:51:58.595157,3.029313,-0.708275,-0.014356,-1.036027,0.087964,-0.471587
2025-12-31T15:51:58.605157,3.345165,-0.311066,-0.258424,-0.930958,0.094073,-0.470366
2025-12-31T15:51:58.614157,3.589233,-0.119641,-0.401994,-0.913854,0.092851,-0.450818
2025-12-31T15:51:58.624157,3.852444,-0.330209,-0.282353,-0.955393,0.087964,-0.415388
2025-12-31T15:51:58.634157,4.216153,-0.550349,-0.057427,-0.943175,0.067195,-0.390953
2025-12-31T15:51:58.643157,4.627718,-0.540777,0.181854,-0.856432,0.039095,-0.373849
2025-12-31T15:51:58.653157,5.268995,-0.081355,0.430708,-0.773355,0.031764,-0.353080
2025-12-31T15:51:58.663157,5.785845,0.416351,0.483350,-0.768468,0.059864,-0.310319
2025-12-31T15:51:58.672157,6.168696,1.024128,0.248853,-0.829554,0.131946,-0.252898
2025-12-31T15:51:58.682157,6.427121,1.655833,-0.133998,-0.959058,0.222354,-0.200363
2025-12-31T15:51:58.691157,6.360122,1.942971,-0.689132,-1.181413,0.302989,-0.135612
2025-12-31T15:51:58.701157,6.125625,1.718046,-1.019342,-1.426980,0.322536,-0.098960
2025-12-31T15:51:58.711157,6.101697,1.100698,-1.043270,-1.582140,0.234572,-0.095294
2025-12-31T15:51:58.720157,6.417550,0.492921,-0.966700,-1.580918,0.072082,-0.122173
2025-12-31T15:51:58.730157,7.250252,0.172283,-0.760917,-1.461189,-0.095294,-0.178372
2025-12-31T15:51:58.739157,8.188238,0.110069,-0.550349,-1.302364,-0.230907,-0.252898
2025-12-31T15:51:58.749157,9.193224,0.382851,-0.358923,-1.171639,-0.298102,-0.307876
2025-12-31T15:51:58.759157,10.174281,0.689132,-0.191425,-1.082452,-0.299323,-0.371405
2025-12-31T15:51:58.768157,10.973484,1.062413,-0.330209,-1.050687,-0.254119,-0.419053
2025-12-31T15:51:58.778157,11.542976,1.383051,-0.693918,-1.098335,-0.195476,-0.432492
2025-12-31T15:51:58.788157,11.901899,1.459621,-0.971485,-1.243721,-0.145385,-0.428827
2025-12-31T15:51:58.797157,12.289536,1.115055,-1.196411,-1.404989,-0.134390,-0.423940
2025-12-31T15:51:58.807157,12.653245,0.545563,-1.416550,-1.511280,-0.140498,-0.430049
2025-12-31T15:51:58.816157,12.748958,0.014356,-1.411765,-1.543045,-0.117286,-0.431270
2025-12-31T15:51:58.826157,12.643674,-0.574277,-1.186840,-1.494176,-0.056199,-0.441044
2025-12-31T15:51:58.836157,12.308679,-1.210768,-0.689132,-1.362229,0.018325,-0.454483
2025-12-31T15:51:58.845157,11.538190,-1.646261,-0.110069,-1.161865,0.109955,-0.450818
2025-12-31T15:51:58.855157,10.638489,-2.005185,0.416351,-0.916297,0.206472,-0.436157
2025-12-31T15:51:58.864157,9.485148,-2.038684,0.770488,-0.653625,0.278554,-0.406836
2025-12-31T15:51:58.874157,8.403592,-1.933400,1.081555,-0.403170,0.285884,-0.373849
2025-12-31T15:51:58.884157,7.499106,-1.789831,1.383051,-0.171042,0.228463,-0.340862
2025-12-31T15:51:58.893157,6.776473,-1.636690,1.464407,0.018325,0.118507,-0.294436
2025-12-31T15:51:58.903157,6.618547,-1.464407,1.603191,0.147829,-0.036651,-0.266337
2025-12-31T15:51:58.913157,6.833901,-1.507478,1.579262,0.239459,-0.205250,-0.239459
2025-12-31T15:51:58.922157,7.465606,-1.478764,1.493121,0.321315,-0.328645,-0.215024
2025-12-31T15:51:58.932157,8.197810,-1.387837,1.483550,0.362853,-0.372627,-0.195476
2025-12-31T15:51:58.941157,8.796015,-1.359123,1.540977,0.361632,-0.342084,-0.169820
2025-12-31T15:51:58.951157,9.202795,-1.368694,1.426122,0.338419,-0.271224,-0.142942
2025-12-31T15:51:58.961157,9.504291,-1.440479,1.320838,0.309097,-0.216246,-0.118507
2025-12-31T15:51:58.970157,9.743573,-1.493121,1.215553,0.283441,-0.197920,-0.094073
2025-12-31T15:51:58.980157,10.107282,-1.560120,0.976271,0.273667,-0.217467,-0.069638
2025-12-31T15:51:58.989157,10.600204,-1.483550,0.808774,0.263893,-0.244346,-0.030543
2025-12-31T15:51:58.999157,11.093125,-1.411765,0.780060,0.250454,-0.248011,0.014660
2025-12-31T15:51:59.009157,11.614760,-1.301695,0.832702,0.241902,-0.206472,0.078190
2025-12-31T15:51:59.018157,11.873185,-1.182054,0.856630,0.219911,-0.106290,0.168598
2025-12-31T15:51:59.028157,11.949756,-0.971485,0.837487,0.171042,0.047647,0.279776
2025-12-31T15:51:59.038157,11.542976,-0.693918,0.947557,0.085521,0.230907,0.389731
2025-12-31T15:51:59.047157,10.863414,-0.579063,1.071984,-0.043982,0.399505,0.493579
2025-12-31T15:51:59.057157,9.844072,-0.698704,1.062413,-0.168598,0.499687,0.575434
2025-12-31T15:51:59.066157,8.896514,-0.851844,1.000199,-0.288328,0.521678,0.643851
2025-12-31T15:51:59.076157,8.149953,-1.354337,1.057627,-0.395840,0.466700,0.680503
2025-12-31T15:51:59.086157,7.680960,-2.110469,1.038485,-0.437379,0.344527,0.675616
2025-12-31T15:51:59.095157,7.542176,-2.933600,1.095912,-0.355523,0.167377,0.641408
2025-12-31T15:51:59.105157,7.829315,-3.560520,1.129412,-0.120951,-0.051312,0.569326
2025-12-31T15:51:59.114157,8.537591,-3.785445,1.024128,0.248011,-0.259006,0.489913
2025-12-31T15:51:59.124157,9.346365,-3.273381,0.952343,0.663399,-0.345749,0.432492
2025-12-31T15:51:59.134157,9.805787,-2.397608,0.918843,0.959058,-0.260228,0.410501
2025-12-31T15:51:59.143157,9.590432,-1.689332,0.689132,1.102000,-0.053756,0.426383
2025-12-31T15:51:59.153157,8.762516,-1.306481,0.588634,1.121548,0.167377,0.476474
2025-12-31T15:51:59.163157,7.618747,-1.411765,0.459421,1.093448,0.296880,0.531452
2025-12-31T15:51:59.172157,6.541976,-1.694118,0.311066,1.145982,0.304210,0.558330
2025-12-31T15:51:59.182157,5.776273,-1.852044,0.291924,1.270599,0.238237,0.557108
2025-12-31T15:51:59.191157,5.221138,-1.938186,0.598205,1.431867,0.166155,0.535117
2025-12-31T15:51:59.201157,4.728217,-1.761117,0.851844,1.613905,0.122173,0.516791
2025-12-31T15:51:59.211157,4.211367,-1.363908,0.985842,1.819156,0.128281,0.516791
2025-12-31T15:51:59.220157,3.589233,-0.646062,1.115055,1.973094,0.177150,0.519235
2025-12-31T15:51:59.230157,2.933600,0.028713,1.186840,2.010967,0.260228,0.540004
2025-12-31T15:51:59.239157,2.210968,0.502492,1.225125,1.948659,0.350636,0.583987
2025-12-31T15:51:59.249157,1.445264,0.713061,1.177268,1.821599,0.408057,0.632856
2025-12-31T15:51:59.259157,0.679561,0.598205,0.966700,1.698205,0.425162,0.680503
2025-12-31T15:51:59.268157,-0.014356,0.602991,0.904486,1.605353,0.399505,0.701273
2025-12-31T15:51:59.278157,-0.411565,0.559920,0.803988,1.539380,0.321315,0.690277
2025-12-31T15:51:59.288157,-0.689132,0.473778,0.837487,1.445306,0.195476,0.680503
2025-12-31T15:51:59.297157,-0.559920,0.177068,0.775274,1.343903,0.059864,0.665842
2025-12-31T15:51:59.307157,-0.196211,-0.162711,0.933200,1.264490,-0.074525,0.651182
2025-12-31T15:51:59.316157,0.464207,-0.559920,1.095912,1.227838,-0.174707,0.641408
2025-12-31T15:51:59.326157,1.277767,-0.914058,1.411765,1.237612,-0.212581,0.629191
2025-12-31T15:51:59.336157,2.081755,-1.028913,1.392622,1.296255,-0.179594,0.620638
2025-12-31T15:51:59.345157,2.766102,-1.024128,1.191625,1.382998,-0.083077,0.601091
2025-12-31T15:51:59.355157,3.278166,-1.038485,0.856630,1.483180,0.037873,0.546113
2025-12-31T15:51:59.364157,3.613162,-0.847059,0.631705,1.555262,0.128281,0.508239
2025-12-31T15:51:59.374157,4.086941,-0.899701,0.612562,1.572366,0.161268,0.494800
2025-12-31T15:51:59.384157,4.570291,-0.914058,0.478564,1.539380,0.174707,0.497244
2025-12-31T15:51:59.393157,5.259424,-1.033699,0.272781,1.492954,0.182037,0.516791
2025-12-31T15:51:59.403157,5.757131,-1.071984,0.071784,1.408654,0.171042,0.561995
2025-12-31T15:51:59.413157,6.407978,-0.894915,0.033499,1.292590,0.035430,0.537561
2025-12-31T15:51:59.422157,7.905885,-1.115055,0.713061,1.134987,-0.219911,0.410501
2025-12-31T15:51:59.432157,9.882357,-1.335195,1.095912,0.912632,-0.405614,0.362853
2025-12-31T15:51:59.441157,11.686545,-1.588834,1.421336,0.634077,-0.399505,0.486248
2025-12-31T15:51:59.451157,13.203595,-2.426322,1.875972,0.191811,-0.172263,0.866206
2025-12-31T15:51:59.461157,13.261022,-1.588834,0.267996,-0.128281,-0.018325,1.119104
2025-12-31T15:51:59.470157,14.361721,-1.938186,0.401994,-0.766024,-0.012217,1.260825
2025-12-31T15:51:59.480157,15.170495,-3.311666,-0.354137,-1.353677,0.142942,1.479515
2025-12-31T15:51:59.489157,15.270993,-4.393222,-1.387837,-1.536936,0.450818,1.848477
2025-12-31T15:51:59.499157,14.658431,-5.091926,-2.297109,-1.543045,0.778242,2.139249
2025-12-31T15:51:59.509157,13.768301,-6.116054,-2.493321,-1.500284,1.009149,2.250427
2025-12-31T15:51:59.518157,12.978669,-6.886543,-1.919043,-1.177747,1.110552,2.284635
2025-12-31T15:51:59.528157,12.184252,-6.647261,-1.574477,-0.631634,1.062905,2.334726
2025-12-31T15:51:59.538157,11.715259,-5.723631,-1.674975,-0.151494,0.889419,2.344500
2025-12-31T15:51:59.547157,11.810972,-4.981856,-1.024128,0.157603,0.610865,2.284635
2025-12-31T15:51:59.557157,12.820743,-4.450650,0.043070,0.279776,0.316428,2.273639
2025-12-31T15:51:59.566157,14.136795,-4.096512,0.899701,0.241902,0.095294,2.333504
2025-12-31T15:51:59.576157,15.328421,-4.043870,1.244267,0.086742,0.031764,2.425134
2025-12-31T15:51:59.586157,15.993626,-4.177868,1.172483,-0.173485,0.119729,2.541198
2025-12-31T15:51:59.595157,16.127625,-4.661218,0.813559,-0.452040,0.310319,2.643824
2025-12-31T15:51:59.605157,15.692130,-5.335994,0.344566,-0.603534,0.507018,2.711019
2025-12-31T15:51:59.614157,14.926427,-5.871986,-0.291924,-0.583987,0.608421,2.713462
2025-12-31T15:51:59.624157,14.251651,-6.407978,-0.583848,-0.426383,0.592539,2.664593
2025-12-31T15:51:59.634157,13.907084,-6.829115,-0.430708,-0.184481,0.469144,2.609615
2025-12-31T15:51:59.643157,14.088939,-7.441678,0.531206,0.112399,0.282219,2.544864
2025-12-31T15:51:59.653157,14.739787,-7.929814,1.244267,0.436157,0.094073,2.493551
2025-12-31T15:51:59.663157,15.692130,-7.905885,1.296909,0.784350,-0.031764,2.492329
2025-12-31T15:51:59.672157,16.539188,-7.211967,0.971485,1.039692,-0.058643,2.510655
2025-12-31T15:51:59.682157,17.003397,-6.675975,0.904486,1.091005,0.000000,2.539977
2025-12-31T15:51:59.691157,17.123037,-6.235695,0.741775,1.034805,0.131946,2.548529
2025-12-31T15:51:59.701157,16.893328,-5.934200,0.287138,0.989601,0.285884,2.505768
2025-12-31T15:51:59.711157,16.491333,-5.742774,0.157926,0.888197,0.388510,2.453234
2025-12-31T15:51:59.720157,16.185053,-6.178267,0.497707,0.740368,0.393397,2.390926
2025-12-31T15:51:59.730157,16.256836,-6.872186,0.583848,0.653625,0.284663,2.300518
2025-12-31T15:51:59.739157,16.615761,-7.360322,0.631705,0.704938,0.130725,2.180788
2025-12-31T15:51:59.749157,17.185251,-7.494320,1.000199,0.822224,0.008552,2.035402
2025-12-31T15:51:59.759157,17.668602,-7.211967,0.990628,0.937067,-0.010995,1.881464
2025-12-31T15:51:59.768157,17.716457,-6.742974,0.751346,1.026253,0.037873,1.745852
2025-12-31T15:51:59.778157,17.606388,-6.034698,0.641276,1.040914,0.100181,1.616349
2025-12-31T15:51:59.788157,17.295321,-5.603990,0.698704,0.902858,0.133168,1.464854
2025-12-31T15:51:59.797157,16.893328,-5.766702,0.966700,0.682947,0.122173,1.263269
2025-12-31T15:51:59.807157,16.697117,-6.116054,1.234696,0.548556,0.065973,1.047022
2025-12-31T15:51:59.816157,16.472191,-6.288337,1.258624,0.503352,-0.023212,0.841772
2025-12-31T15:51:59.826157,16.189837,-6.604190,1.325623,0.493579,-0.123394,0.609643
2025-12-31T15:51:59.836157,15.931412,-6.632904,1.569691,0.561995,-0.202807,0.312762
2025-12-31T15:51:59.845157,15.644274,-6.331408,1.751546,0.645073,-0.265115,0.013439
2025-12-31T15:51:59.855157,15.361921,-5.910271,1.526620,0.684168,-0.287106,-0.255341
2025-12-31T15:51:59.864157,14.830714,-5.350351,1.153340,0.685390,-0.249232,-0.522900
2025-12-31T15:51:59.874157,14.189438,-5.029713,1.019342,0.656069,-0.149051,-0.801455
2025-12-31T15:51:59.884157,13.275379,-4.651647,1.205982,0.579100,-0.046425,-1.087339
2025-12-31T15:51:59.893157,12.413963,-4.259224,1.383051,0.434935,-0.014660,-1.343903
2025-12-31T15:51:59.903157,11.715259,-3.814159,1.713260,0.287106,-0.083077,-1.543045
2025-12-31T15:51:59.913157,11.341979,-3.402593,2.239681,0.021991,-0.227241,-1.731191
2025-12-31T15:51:59.922157,11.274980,-3.866801,2.502892,-0.357966,-0.387288,-1.938885
2025-12-31T15:51:59.932157,11.432906,-4.704289,2.373680,-0.593760,-0.505796,-2.112371
2025-12-31T15:51:59.941157,11.700902,-5.326423,2.139183,-0.647517,-0.610865,-2.265087
2025-12-31T15:51:59.951157,12.203395,-5.967699,1.727617,-0.636521,-0.736703,-2.422691
2025-12-31T15:51:59.961157,12.811172,-6.561119,1.354337,-0.505796,-0.817337,-2.571742
2025-12-31T15:51:59.970157,13.289736,-6.757331,0.995414,-0.196698,-0.789237,-2.715906
2025-12-31T15:51:59.980157,13.275379,-6.307480,0.440279,0.185702,-0.681725,-2.856405
2025-12-31T15:51:59.989157,12.959527,-5.369493,-0.047856,0.480139,-0.574213,-2.987130
2025-12-31T15:51:59.999157,12.538390,-4.345365,-0.378065,0.614530,-0.524122,-3.095864
2025-12-31T15:52:00.009157,12.136396,-3.646661,-0.488135,0.602312,-0.538783,-3.152063
2025-12-31T15:52:00.018157,11.777472,-3.153740,-0.502492,0.508239,-0.604756,-3.169168
2025-12-31T15:52:00.028157,11.590832,-2.828316,-0.521635,0.387288,-0.706160,-3.161837
2025-12-31T15:52:00.038157,11.499905,-2.723032,-0.464207,0.272445,-0.839328,-3.153285
2025-12-31T15:52:00.047157,11.629117,-2.761317,-0.406779,0.191811,-0.983492,-3.152063
2025-12-31T15:52:00.057157,11.992826,-2.794816,-0.133998,0.164933,-1.133765,-3.152063
2025-12-31T15:52:00.066157,12.394821,-2.708675,-0.009571,0.194255,-1.282816,-3.133738
2025-12-31T15:52:00.076157,12.959527,-2.584248,0.028713,0.235793,-1.422093,-3.101973
2025-12-31T15:52:00.086157,13.648660,-2.445464,0.105284,0.262671,-1.516167,-3.067764
2025-12-31T15:52:00.095157,14.242080,-2.301895,0.277567,0.270002,-1.545488,-3.018895
2025-12-31T15:52:00.105157,14.758929,-2.268395,0.282353,0.229685,-1.502728,-2.938261
2025-12-31T15:52:00.114157,14.916856,-2.502892,0.177068,0.167377,-1.423315,-2.825862
2025-12-31T15:52:00.124157,14.955141,-2.775674,0.014356,0.123394,-1.352455,-2.703688
2025-12-31T15:52:00.134157,14.888142,-3.014956,-0.196211,0.105068,-1.296255,-2.568076
2025-12-31T15:52:00.143157,14.720644,-3.158525,-0.397208,0.130725,-1.262047,-2.420247
2025-12-31T15:52:00.153157,14.601003,-3.048455,-0.468993,0.180816,-1.243721,-2.276083
2025-12-31T15:52:00.163157,14.443077,-2.852244,-0.449850,0.218689,-1.210734,-2.134362
2025-12-31T15:52:00.172157,14.213366,-2.675175,-0.531206,0.235793,-1.130100,-1.977981
2025-12-31T15:52:00.182157,13.878371,-2.378465,-0.358923,0.270002,-1.015257,-1.815491
2025-12-31T15:52:00.191157,13.418949,-1.804188,-0.311066,0.291993,-0.913854,-1.639561
2025-12-31T15:52:00.201157,13.112667,-1.335195,-0.334995,0.240680,-0.853989,-1.437976
2025-12-31T15:52:00.211157,12.806386,-0.875773,-0.244067,0.098960,-0.824667,-1.219286
2025-12-31T15:52:00.220157,12.619746,-0.617348,-0.215354,-0.097738,-0.803898,-1.015257
2025-12-31T15:52:00.230157,12.323036,-0.215354,-0.100498,-0.313984,-0.764803,-0.857654
2025-12-31T15:52:00.239157,12.155538,0.105284,-0.047856,-0.541226,-0.698829,-0.720820
2025-12-31T15:52:00.249157,11.782258,0.315852,-0.076570,-0.813672,-0.590095,-0.572991
2025-12-31T15:52:00.259157,11.174481,0.540777,-0.052642,-1.114217,-0.439822,-0.430049
2025-12-31T15:52:00.268157,10.451849,0.459421,-0.076570,-1.401324,-0.280997,-0.326201
2025-12-31T15:52:00.278157,9.604789,0.459421,-0.177068,-1.671326,-0.157603,-0.237015
2025-12-31T15:52:00.288157,8.791230,0.382851,-0.105284,-1.915672,-0.075747,-0.169820
2025-12-31T15:52:00.297157,7.987241,0.186640,-0.023928,-2.147801,-0.018325,-0.122173
2025-12-31T15:52:00.307157,7.250252,-0.138783,0.181854,-2.333504,0.028099,-0.095294
2025-12-31T15:52:00.316157,6.518048,-0.507278,0.210568,-2.426356,0.061086,-0.090408
2025-12-31T15:52:00.326157,5.733202,-0.693918,0.311066,-2.420247,0.081855,-0.116064
2025-12-31T15:52:00.336157,5.034498,-0.780060,0.349352,-2.368934,0.086742,-0.150272
2025-12-31T15:52:00.345157,4.378865,-0.808774,0.512064,-2.300518,0.068416,-0.193033
2025-12-31T15:52:00.355157,3.790230,-0.818345,0.669990,-2.241874,0.024434,-0.222354
2025-12-31T15:52:00.364157,3.436093,-0.914058,0.760917,-2.178344,-0.021991,-0.239459
2025-12-31T15:52:00.374157,3.072384,-0.827916,0.684347,-2.096489,-0.046425,-0.265115
2025-12-31T15:52:00.384157,2.770888,-0.942772,0.760917,-2.023185,-0.050090,-0.298102
2025-12-31T15:52:00.393157,2.378465,-1.124626,0.827916,-1.966985,-0.046425,-0.332310
2025-12-31T15:52:00.403157,2.163111,-1.555334,0.947557,-1.890016,-0.056199,-0.370184
2025-12-31T15:52:00.413157,2.062613,-2.000399,1.086341,-1.748295,-0.087964,-0.401949
2025-12-31T15:52:00.422157,2.005185,-2.210968,1.177268,-1.563814,-0.116064,-0.408057
2025-12-31T15:52:00.432157,2.153540,-2.416750,1.301695,-1.364672,-0.120951,-0.403170
2025-12-31T15:52:00.441157,2.100898,-2.416750,1.387837,-1.161865,-0.084299,-0.389731
2025-12-31T15:52:00.451157,2.129612,-2.426322,1.397408,-0.971275,-0.018325,-0.353080
2025-12-31T15:52:00.461157,2.100898,-2.368894,1.359123,-0.814894,0.039095,-0.305432
2025-12-31T15:52:00.470157,2.105683,-2.148754,1.316052,-0.684168,0.054977,-0.249232
2025-12-31T15:52:00.480157,2.263610,-1.808973,1.253839,-0.566882,0.032986,-0.196698
2025-12-31T15:52:00.489157,2.632104,-1.229910,1.225125,-0.478918,-0.002443,-0.155159
2025-12-31T15:52:00.499157,3.053241,-0.741775,1.378265,-0.488692,-0.034208,-0.120951
2025-12-31T15:52:00.509157,3.579662,-0.564706,1.464407,-0.649960,-0.045204,-0.042760
2025-12-31T15:52:00.518157,4.225724,-0.775274,1.450050,-0.860098,-0.014660,0.045204
2025-12-31T15:52:00.528157,4.733003,-0.937986,1.397408,-0.982271,0.058643,0.097738
2025-12-31T15:52:00.538157,4.967499,-0.914058,1.196411,-0.987158,0.131946,0.091629
2025-12-31T15:52:00.547157,5.130211,-0.636490,0.746560,-0.949284,0.147829,0.040317
2025-12-31T15:52:00.557157,5.455635,-0.234496,0.512064,-0.934623,0.091629,-0.032986
2025-12-31T15:52:00.566157,5.924628,-0.004785,0.454636,-0.961501,-0.041538,-0.129503
2025-12-31T15:52:00.576157,6.766902,0.234496,0.363709,-0.998153,-0.216246,-0.210137
2025-12-31T15:52:00.586157,7.910671,0.267996,0.306281,-1.084896,-0.403170,-0.188146
2025-12-31T15:52:00.595157,9.399007,0.248853,-0.028713,-1.204625,-0.593760,-0.119729
2025-12-31T15:52:00.605157,11.241480,0.028713,-0.430708,-1.315803,-0.759916,-0.106290
2025-12-31T15:52:00.614157,13.160524,-0.004785,-1.138983,-1.401324,-0.869871,-0.113620
2025-12-31T15:52:00.624157,14.816357,-0.062213,-1.804188,-1.450193,-0.849102,-0.100181
2025-12-31T15:52:00.634157,15.888342,-0.057427,-2.603390,-1.497841,-0.660956,-0.067195
2025-12-31T15:52:00.643157,16.424334,-0.339780,-2.761317,-1.574810,-0.351858,-0.036651
2025-12-31T15:52:00.653157,16.070196,-0.803988,-2.134397,-1.593136,0.062308,0.003665
2025-12-31T15:52:00.663157,14.447862,-1.488335,-1.153340,-1.562592,0.541226,0.084299
2025-12-31T15:52:00.672157,11.916256,-2.196611,-0.315852,-1.426980,0.949284,0.152716
2025-12-31T15:52:00.682157,9.312865,-2.636890,0.598205,-1.116661,1.177747,0.173485
2025-12-31T15:52:00.691157,6.757331,-2.852244,1.263410,-0.696386,1.182634,0.167377
2025-12-31T15:52:00.701157,4.603790,-2.799602,1.560120,-0.213802,0.948062,0.136833
2025-12-31T15:52:00.711157,3.345165,-2.574677,1.789831,0.317649,0.492357,0.106290
2025-12-31T15:52:00.720157,3.144168,-2.038684,1.741974,0.824667,-0.109955,0.065973
2025-12-31T15:52:00.730157,4.503292,-1.263410,1.493121,1.216843,-0.702494,0.025656
2025-12-31T15:52:00.739157,6.422335,-0.191425,1.698904,1.430646,-1.080009,0.006108
2025-12-31T15:52:00.749157,8.293523,0.559920,1.895115,1.407433,-1.196073,0.029321
2025-12-31T15:52:00.759157,9.796215,1.129412,1.531406,1.279151,-1.078787,0.081855
2025-12-31T15:52:00.768157,10.619346,1.607976,0.947557,1.102000,-0.802676,0.135612
2025-12-31T15:52:00.778157,10.935199,1.861615,0.612562,0.858876,-0.472809,0.163711
2025-12-31T15:52:00.788157,10.939984,1.947757,0.421136,0.604756,-0.191811,0.169820
2025-12-31T15:52:00.797157,10.805986,1.971685,0.287138,0.397062,-0.039095,0.186924
2025-12-31T15:52:00.807157,10.858628,2.076970,-0.033499,0.219911,-0.029321,0.207694
2025-12-31T15:52:00.816157,11.207981,2.234896,-0.277567,0.045204,-0.094073,0.233350
2025-12-31T15:52:00.826157,11.777472,2.411965,-0.440279,-0.146607,-0.152716,0.287106
2025-12-31T15:52:00.836157,12.418749,2.421536,-0.526420,-0.389731,-0.145385,0.371405
2025-12-31T15:52:00.845157,12.763315,2.115255,-0.502492,-0.632856,-0.029321,0.455705
2025-12-31T15:52:00.855157,12.495319,1.564905,-0.555134,-0.785572,0.160046,0.540004
2025-12-31T15:52:00.864157,11.648260,1.038485,-0.454636,-0.821002,0.315206,0.614530
2025-12-31T15:52:00.874157,10.906485,0.564706,-0.014356,-0.806341,0.394618,0.659734
2025-12-31T15:52:00.884157,10.135996,-0.062213,0.703489,-0.731816,0.415388,0.651182
2025-12-31T15:52:00.893157,9.288937,-0.483350,1.095912,-0.538783,0.399505,0.597426
2025-12-31T15:52:00.903157,8.427521,-0.626919,1.234696,-0.254119,0.361632,0.518013
2025-12-31T15:52:00.913157,7.523034,-0.736989,1.100698,0.036651,0.289550,0.416610
2025-12-31T15:52:00.922157,6.939185,-0.918843,1.019342,0.304210,0.155159,0.301767
2025-12-31T15:52:00.932157,6.766902,-1.071984,0.890130,0.612086,-0.089186,0.175929
2025-12-31T15:52:00.941157,7.427321,-0.770488,0.751346,0.968832,-0.377514,0.057421
2025-12-31T15:52:00.951157,8.408378,-0.239282,0.918843,1.236390,-0.553443,-0.032986
2025-12-31T15:52:00.961157,9.183653,0.258424,0.813559,1.341459,-0.531452,-0.089186
2025-12-31T15:52:00.970157,9.523433,0.540777,0.650847,1.386663,-0.345749,-0.125838
2025-12-31T15:52:00.980157,9.145367,0.856630,0.646062,1.351233,-0.074525,-0.139277
2025-12-31T15:52:00.989157,8.097311,0.799202,0.689132,1.222951,0.174707,-0.153938
2025-12-31T15:52:00.999157,6.891329,0.368494,0.631705,1.126435,0.300545,-0.179594
2025-12-31T15:52:01.009157,5.905486,0.047856,0.564706,1.119104,0.282219,-0.215024
2025-12-31T15:52:01.018157,5.197210,-0.100498,0.531206,1.141096,0.172263,-0.266337
2025-12-31T15:52:01.028157,4.924428,-0.105284,0.636490,1.156978,0.015882,-0.320093
2025-12-31T15:52:01.038157,5.034498,-0.196211,0.856630,1.160643,-0.124616,-0.346971
2025-12-31T15:52:01.047157,5.240281,0.004785,1.057627,1.158200,-0.185702,-0.362853
2025-12-31T15:52:01.057157,5.331208,0.138783,1.344766,1.126435,-0.135612,-0.356745
2025-12-31T15:52:01.066157,4.981856,0.258424,1.564905,1.049466,0.009773,-0.321315
2025-12-31T15:52:01.076157,4.283152,0.291924,1.526620,0.972497,0.196698,-0.268780
2025-12-31T15:52:01.086157,3.302095,0.392422,1.488335,0.904080,0.370184,-0.206472
2025-12-31T15:52:01.095157,2.187039,0.516849,1.435693,0.802676,0.482583,-0.147829
2025-12-31T15:52:01.105157,1.172483,0.497707,1.464407,0.680503,0.507018,-0.098960
2025-12-31T15:52:01.114157,0.301495,0.397208,1.473978,0.564439,0.436157,-0.057421
2025-12-31T15:52:01.124157,-0.234496,0.000000,1.368694,0.456927,0.298102,-0.028099
2025-12-31T15:52:01.134157,-0.306281,-0.468993,1.306481,0.393397,0.122173,-0.023212
2025-12-31T15:52:01.143157,-0.033499,-1.143769,1.201196,0.409279,-0.051312,-0.041538
2025-12-31T15:52:01.153157,0.598205,-1.703689,1.172483,0.508239,-0.167377,-0.058643
2025-12-31T15:52:01.163157,1.239482,-2.239681,1.277767,0.679282,-0.202807,-0.076969
2025-12-31T15:52:01.172157,1.909472,-2.488535,1.258624,0.897971,-0.161268,-0.090408
2025-12-31T15:52:01.182157,2.469392,-2.498106,1.158126,1.149648,-0.067195,-0.085521
2025-12-31T15:52:01.191157,2.962314,-2.215753,1.000199,1.385442,0.054977,-0.079412
2025-12-31T15:52:01.201157,3.335594,-1.727617,0.861416,1.523497,0.150272,-0.063529
2025-12-31T15:52:01.211157,3.771088,-1.301695,0.808774,1.528384,0.202807,-0.039095
2025-12-31T15:52:01.220157,4.354937,-1.081555,0.545563,1.442863,0.210137,-0.009773
2025-12-31T15:52:01.230157,5.087140,-1.004985,0.301495,1.314581,0.189368,0.030543
2025-12-31T15:52:01.239157,6.039484,-1.014556,0.009571,1.160643,0.155159,0.064751
2025-12-31T15:52:01.249157,7.025327,-1.158126,-0.086141,1.003040,0.135612,0.108733
2025-12-31T15:52:01.259157,8.020741,-1.454836,-0.105284,0.863763,0.139277,0.150272
2025-12-31T15:52:01.268157,9.064012,-1.679761,-0.028713,0.750142,0.171042,0.197920
2025-12-31T15:52:01.278157,10.030712,-1.761117,0.157926,0.626747,0.227241,0.280997
2025-12-31T15:52:01.288157,10.968698,-1.957328,0.622133,0.471587,0.287106,0.376292
2025-12-31T15:52:01.297157,11.906685,-2.139183,0.966700,0.318871,0.361632,0.509461
2025-12-31T15:52:01.307157,12.748958,-2.139183,1.124626,0.197920,0.483805,0.690277
2025-12-31T15:52:01.316157,13.131810,-1.847259,0.909272,0.048869,0.640186,0.921184
2025-12-31T15:52:01.326157,13.174881,-1.593619,0.579063,-0.183259,0.813672,1.215621
2025-12-31T15:52:01.336157,12.844671,-1.574477,0.162711,-0.460592,0.965166,1.543045
2025-12-31T15:52:01.345157,12.088539,-1.775474,-0.110069,-0.757472,1.108109,1.869247
2025-12-31T15:52:01.355157,11.160124,-2.464607,-0.358923,-0.999375,1.167974,2.189340
2025-12-31T15:52:01.364157,10.356136,-3.306880,-0.339780,-1.097113,1.044579,2.444682
2025-12-31T15:52:01.374157,10.480562,-4.230510,-0.215354,-1.034805,0.735481,2.570520
2025-12-31T15:52:01.384157,11.332407,-4.938785,-0.267996,-0.812450,0.348193,2.615724
2025-12-31T15:52:01.393157,12.859028,-5.249852,0.038285,-0.538783,-0.041538,2.680476
2025-12-31T15:52:01.403157,14.840285,-5.422136,0.990628,-0.371405,-0.322536,2.778214
2025-12-31T15:52:01.413157,16.749758,-5.642275,1.512263,-0.288328,-0.370184,2.867400
2025-12-31T15:52:01.422157,17.888741,-5.742774,0.894915,-0.120951,-0.149051,2.941926
2025-12-31T15:52:01.432157,18.171095,-5.254638,-0.397208,0.109955,0.265115,3.029890
2025-12-31T15:52:01.441157,17.529818,-4.642075,-1.363908,0.200363,0.715933,3.125185
2025-12-31T15:52:01.451157,16.323835,-4.421936,-1.655833,0.113620,1.061683,3.215593
2025-12-31T15:52:01.461157,14.902499,-4.809573,-1.751546,0.007330,1.149648,3.315775
2025-12-31T15:52:01.470157,14.060225,-5.599204,-1.402194,0.023212,0.937067,3.363423
2025-12-31T15:52:01.480157,14.203794,-6.508477,-0.559920,0.184481,0.554665,3.334101
2025-12-31T15:52:01.489157,15.629917,-8.121239,1.138983,0.443488,0.202807,3.326771
2025-12-31T15:52:01.499157,14.443077,-4.398007,-6.551548,0.805120,0.323758,3.776368
2025-12-31T15:52:01.509157,17.046469,-6.345765,1.842473,1.232725,-0.215024,3.315775
2025-12-31T15:52:01.518157,19.812571,-6.991827,2.373680,1.238834,-0.560774,2.868622
2025-12-31T15:52:01.528157,21.458834,-8.762516,2.684746,1.448972,-0.306654,3.110525
2025-12-31T15:52:01.538157,19.137794,-4.378865,-2.866601,2.288300,0.342084,3.439170
2025-12-31T15:52:01.547157,18.510876,-1.569691,-0.784845,1.692096,0.416610,3.295006
2025-12-31T15:52:01.557157,19.094725,-3.622733,-0.464207,0.674395,0.563217,2.900387
2025-12-31T15:52:01.566157,18.348164,-4.618147,-0.856630,0.674395,0.879645,3.006678
2025-12-31T15:52:01.576157,16.807184,-3.627519,-0.349352,0.758694,1.166752,3.180163
2025-12-31T15:52:01.586157,15.409777,-4.307080,-0.636490,0.257785,1.150869,3.088534
2025-12-31T15:52:01.595157,14.763715,-5.943771,-0.957129,0.102625,0.821002,2.907717
2025-12-31T15:52:01.605157,15.146567,-6.384050,-0.009571,0.431270,0.378736,2.722014
2025-12-31T15:52:01.614157,16.031912,-6.211767,0.574277,0.654847,0.014660,2.505768
2025-12-31T15:52:01.624157,16.936398,-6.197410,0.392422,0.833220,-0.182037,2.254092
2025-12-31T15:52:01.634157,17.615959,-5.737988,0.157926,1.130100,-0.263893,2.003637
2025-12-31T15:52:01.643157,18.099310,-4.910071,0.358923,1.345124,-0.306654,1.721417
2025-12-31T15:52:01.653157,18.577873,-4.264009,0.583848,1.392772,-0.315206,1.387885
2025-12-31T15:52:01.663157,18.807585,-3.914657,0.866201,1.370781,-0.260228,1.058018
2025-12-31T15:52:01.672157,18.549160,-3.608376,1.306481,1.331685,-0.114842,0.779463
2025-12-31T15:52:01.682157,17.802601,-3.412165,1.598405,1.246164,0.061086,0.519235
2025-12-31T15:52:01.691157,16.682758,-3.144168,1.607976,1.142317,0.157603,0.240680
2025-12-31T15:52:01.701157,15.548561,-2.861815,1.722832,0.989601,0.103847,-0.052534
2025-12-31T15:52:01.711157,14.873785,-2.790031,1.823330,0.726929,-0.080634,-0.344527
2025-12-31T15:52:01.720157,14.534004,-2.986242,1.694118,0.488692,-0.310319,-0.636521
2025-12-31T15:52:01.730157,14.423934,-2.952743,1.751546,0.324980,-0.482583,-0.943175
2025-12-31T15:52:01.739157,14.390435,-3.067598,1.751546,0.116064,-0.527787,-1.218065
2025-12-31T15:52:01.749157,14.002797,-3.421736,1.909472,-0.085521,-0.485026,-1.445306
2025-12-31T15:52:01.759157,13.500305,-3.125026,2.005185,-0.173485,-0.483805,-1.656666
2025-12-31T15:52:01.768157,13.194023,-2.584248,2.234896,-0.368962,-0.571769,-1.892460
2025-12-31T15:52:01.778157,13.117453,-2.842673,2.273181,-0.786794,-0.667064,-2.100154
2025-12-31T15:52:01.788157,13.155738,-4.192225,2.249253,-1.169195,-0.636521,-2.255313
2025-12-31T15:52:01.797157,12.581461,-5.493920,1.569691,-1.226617,-0.529009,-2.365269
2025-12-31T15:52:01.807157,12.595818,-5.938985,1.210768,-0.954171,-0.685390,-2.560746
2025-12-31T15:52:01.816157,13.064811,-6.125625,1.282552,-0.657290,-0.943175,-2.741562
2025-12-31T15:52:01.826157,13.581661,-6.250052,1.033699,-0.324980,-0.984714,-2.913826
2025-12-31T15:52:01.836157,13.677373,-5.996413,0.358923,0.087964,-0.863763,-3.059212
2025-12-31T15:52:01.845157,13.557732,-5.120640,0.066999,0.453261,-0.799011,-3.166724
2025-12-31T15:52:01.855157,13.371092,-4.268795,-0.181854,0.620638,-0.842993,-3.266906
2025-12-31T15:52:01.864157,13.428520,-3.751945,-0.277567,0.662177,-0.939510,-3.340210
2025-12-31T15:52:01.874157,13.457234,-3.416950,-0.239282,0.692721,-1.043357,-3.387857
