Timestamp,Acceleration_X,Acceleration_Y,Acceleration_Z,Gyro_X,Gyro_Y,Gyro_Z
2026-01-18T19:56:14.318323,9.958927,-0.703489,0.885344,-0.020769,0.019547,0.063529
2026-01-18T19:56:14.328323,9.872786,-0.746560,0.827916,-0.018325,0.021991,0.065973
2026-01-18T19:56:14.337323,9.844072,-0.784845,0.808774,-0.013439,0.012217,0.069638
2026-01-18T19:56:14.347323,9.858429,-0.736989,0.770488,-0.008552,-0.004886,0.067195
2026-01-18T19:56:14.356323,9.868000,-0.794417,0.784845,-0.013439,-0.017104,0.069638
2026-01-18T19:56:14.366323,9.887142,-0.832702,0.794417,-0.010995,-0.029321,0.067195
2026-01-18T19:56:14.376323,9.920642,-0.837487,0.842273,-0.002443,-0.031764,0.063529
2026-01-18T19:56:14.385323,9.997212,-0.837487,0.784845,0.006108,-0.030543,0.061086
2026-01-18T19:56:14.395323,10.011569,-0.856630,0.803988,0.021991,-0.020769,0.053756
2026-01-18T19:56:14.405323,9.963713,-0.732203,0.818345,0.025656,-0.002443,0.051312
2026-01-18T19:56:14.414323,9.915856,-0.665204,0.803988,0.013439,0.015882,0.052534
2026-01-18T19:56:14.424323,9.810572,-0.622133,0.736989,-0.014660,0.017104,0.057421
2026-01-18T19:56:14.433323,9.729216,-0.679561,0.741775,-0.050090,0.002443,0.064751
2026-01-18T19:56:14.443323,9.729216,-0.727418,0.780060,-0.074525,-0.014660,0.070860
2026-01-18T19:56:14.453323,9.753144,-0.765703,0.703489,-0.063529,-0.025656,0.068416
2026-01-18T19:56:14.462323,9.834500,-0.803988,0.837487,-0.020769,-0.023212,0.058643
2026-01-18T19:56:14.472323,9.815358,-0.722632,0.818345,0.015882,-0.019547,0.061086
2026-01-18T19:56:14.481323,9.839286,-0.665204,0.799202,0.024434,-0.024434,0.064751
2026-01-18T19:56:14.491323,10.045069,-0.646062,0.837487,0.008552,-0.036651,0.072082
2026-01-18T19:56:14.501323,10.083354,-0.693918,0.722632,-0.019547,-0.037873,0.081855
2026-01-18T19:56:14.510323,9.982855,-0.789631,0.799202,-0.032986,-0.013439,0.081855
2026-01-18T19:56:14.520323,9.978070,-0.947557,0.799202,-0.020769,0.020769,0.072082
2026-01-18T19:56:14.530323,9.781858,-0.880558,0.736989,-0.002443,0.040317,0.067195
2026-01-18T19:56:14.539323,9.705288,-0.784845,0.827916,0.012217,0.020769,0.063529
2026-01-18T19:56:14.549323,9.671788,-0.813559,0.842273,0.014660,-0.010995,0.058643
2026-01-18T19:56:14.558323,9.829715,-0.669990,0.808774,0.010995,-0.032986,0.056199
2026-01-18T19:56:14.568323,9.944570,-0.665204,0.823130,0.000000,-0.041538,0.053756
2026-01-18T19:56:14.578323,10.025926,-0.708275,0.837487,-0.015882,-0.034208,0.052534
2026-01-18T19:56:14.587323,9.963713,-0.713061,0.799202,-0.031764,-0.020769,0.052534
2026-01-18T19:56:14.597323,10.030712,-0.693918,0.914058,-0.039095,-0.013439,0.052534
2026-01-18T19:56:14.606323,10.054640,-0.760917,0.851844,-0.039095,-0.008552,0.054977
2026-01-18T19:56:14.616323,10.016355,-0.770488,0.775274,-0.021991,-0.007330,0.053756
2026-01-18T19:56:14.626323,10.016355,-0.818345,0.789631,-0.003665,-0.002443,0.052534
2026-01-18T19:56:14.635323,10.030712,-0.751346,0.736989,0.001221,0.004886,0.052534
2026-01-18T19:56:14.645323,9.958927,-0.689132,0.660419,-0.018325,0.012217,0.054977
2026-01-18T19:56:14.655323,9.915856,-0.760917,0.717846,-0.042760,0.008552,0.054977
2026-01-18T19:56:14.664323,9.829715,-0.780060,0.708275,-0.059864,-0.009773,0.058643
2026-01-18T19:56:14.674323,9.901499,-0.799202,0.808774,-0.064751,-0.031764,0.057421
2026-01-18T19:56:14.683323,10.035497,-0.851844,0.875773,-0.061086,-0.037873,0.057421
2026-01-18T19:56:14.693323,10.083354,-0.856630,0.914058,-0.052534,-0.024434,0.058643
2026-01-18T19:56:14.703323,10.035497,-0.813559,0.933200,-0.040317,-0.003665,0.056199
2026-01-18T19:56:14.712323,9.997212,-0.827916,0.942772,-0.023212,0.014660,0.050090
2026-01-18T19:56:14.722323,9.824929,-0.756131,0.957129,-0.018325,0.028099,0.051312
2026-01-18T19:56:14.731323,9.710074,-0.722632,0.851844,-0.031764,0.026878,0.054977
2026-01-18T19:56:14.741323,9.604789,-0.760917,0.914058,-0.059864,0.009773,0.063529
2026-01-18T19:56:14.751323,9.638289,-0.870987,0.928415,-0.080634,-0.021991,0.069638
2026-01-18T19:56:14.760323,9.724431,-1.009771,0.890130,-0.085521,-0.043982,0.073303
2026-01-18T19:56:14.770323,9.805787,-1.134197,0.971485,-0.081855,-0.050090,0.067195
2026-01-18T19:56:14.780323,9.868000,-1.167697,0.961914,-0.056199,-0.043982,0.058643
2026-01-18T19:56:14.789323,9.939785,-1.172483,0.928415,-0.026878,-0.029321,0.050090
2026-01-18T19:56:14.799323,9.863214,-1.172483,0.890130,-0.002443,-0.019547,0.048869
2026-01-18T19:56:14.808323,9.901499,-1.129412,0.952343,0.012217,-0.021991,0.051312
2026-01-18T19:56:14.818323,9.872786,-1.153340,0.918843,0.018325,-0.026878,0.056199
2026-01-18T19:56:14.828323,9.877571,-1.086341,0.947557,0.025656,-0.026878,0.063529
2026-01-18T19:56:14.837323,9.891928,-1.033699,0.961914,0.025656,-0.025656,0.069638
2026-01-18T19:56:14.847323,9.891928,-1.024128,0.933200,0.018325,-0.021991,0.080634
2026-01-18T19:56:14.856323,9.911071,-0.966700,1.009771,0.006108,-0.018325,0.084299
2026-01-18T19:56:14.866323,9.882357,-1.024128,1.014556,-0.006108,-0.013439,0.085521
2026-01-18T19:56:14.876323,9.896714,-1.057627,1.048056,-0.012217,-0.007330,0.084299
2026-01-18T19:56:14.885323,9.868000,-1.182054,1.052841,-0.013439,-0.002443,0.084299
2026-01-18T19:56:14.895323,9.824929,-1.220339,1.014556,-0.009773,-0.002443,0.084299
2026-01-18T19:56:14.905323,9.868000,-1.244267,0.971485,0.004886,-0.012217,0.085521
2026-01-18T19:56:14.914323,9.887142,-1.186840,0.909272,0.014660,-0.020769,0.092851
2026-01-18T19:56:14.924323,9.901499,-1.268195,0.899701,0.023212,-0.032986,0.097738
2026-01-18T19:56:14.933323,9.978070,-1.272981,0.904486,0.036651,-0.039095,0.105068
2026-01-18T19:56:14.943323,10.083354,-1.296909,0.914058,0.054977,-0.032986,0.112399
2026-01-18T19:56:14.953323,10.035497,-1.320838,0.856630,0.075747,-0.020769,0.119729
2026-01-18T19:56:14.962323,9.992427,-1.263410,0.971485,0.107512,-0.002443,0.124616
2026-01-18T19:56:14.972323,9.954142,-1.153340,1.004985,0.135612,0.007330,0.124616
2026-01-18T19:56:14.981323,9.834500,-1.014556,0.928415,0.141720,0.006108,0.130725
2026-01-18T19:56:14.991323,9.887142,-0.976271,0.914058,0.130725,-0.002443,0.131946
2026-01-18T19:56:15.001323,9.911071,-1.024128,0.880558,0.108733,-0.015882,0.138055
2026-01-18T19:56:15.010323,9.992427,-1.043270,0.971485,0.085521,-0.029321,0.140498
2026-01-18T19:56:15.020323,10.078568,-1.105484,0.966700,0.078190,-0.031764,0.144164
2026-01-18T19:56:15.030323,10.145567,-1.095912,0.947557,0.076969,-0.031764,0.147829
2026-01-18T19:56:15.039323,10.217352,-1.095912,0.957129,0.074525,-0.025656,0.150272
2026-01-18T19:56:15.049323,10.289137,-1.062413,0.904486,0.068416,-0.004886,0.155159
2026-01-18T19:56:15.058323,10.155139,-1.000199,0.923629,0.061086,0.034208,0.162490
2026-01-18T19:56:15.068323,9.982855,-0.976271,0.966700,0.048869,0.065973,0.167377
2026-01-18T19:56:15.078323,9.791430,-0.928415,0.909272,0.030543,0.078190,0.174707
2026-01-18T19:56:15.087323,9.686145,-0.914058,0.780060,0.001221,0.063529,0.178372
2026-01-18T19:56:15.097323,9.609575,-0.942772,0.837487,-0.020769,0.032986,0.174707
2026-01-18T19:56:15.106323,9.619146,-0.971485,0.861416,-0.032986,0.012217,0.167377
2026-01-18T19:56:15.116323,9.676574,-0.952343,0.875773,-0.041538,0.002443,0.167377
2026-01-18T19:56:15.126323,9.676574,-1.129412,0.866201,-0.042760,-0.002443,0.161268
2026-01-18T19:56:15.135323,9.695717,-1.229910,0.866201,-0.030543,-0.010995,0.149051
2026-01-18T19:56:15.145323,9.796215,-1.277767,0.904486,-0.007330,-0.015882,0.140498
2026-01-18T19:56:15.155323,9.872786,-1.292124,0.837487,0.028099,-0.029321,0.130725
2026-01-18T19:56:15.164323,9.911071,-1.210768,0.914058,0.062308,-0.026878,0.120951
2026-01-18T19:56:15.174323,9.978070,-1.158126,0.756131,0.086742,-0.015882,0.107512
2026-01-18T19:56:15.183323,9.872786,-1.067198,0.794417,0.092851,0.001221,0.095294
2026-01-18T19:56:15.193323,9.853643,-0.961914,0.803988,0.084299,0.010995,0.085521
2026-01-18T19:56:15.203323,9.695717,-0.952343,0.717846,0.057421,0.006108,0.074525
2026-01-18T19:56:15.212323,9.695717,-1.014556,0.698704,0.029321,-0.017104,0.065973
2026-01-18T19:56:15.222323,9.724431,-1.038485,0.770488,0.018325,-0.047647,0.054977
2026-01-18T19:56:15.231323,9.824929,-1.081555,0.914058,0.010995,-0.064751,0.040317
2026-01-18T19:56:15.241323,9.949356,-1.038485,0.961914,0.003665,-0.059864,0.034208
2026-01-18T19:56:15.251323,9.987641,-1.009771,0.918843,-0.007330,-0.048869,0.028099
2026-01-18T19:56:15.260323,10.006784,-1.076770,0.851844,-0.023212,-0.026878,0.024434
2026-01-18T19:56:15.270323,9.930213,-1.081555,0.885344,-0.034208,-0.006108,0.020769
2026-01-18T19:56:15.280323,9.891928,-1.100698,0.818345,-0.041538,0.003665,0.018325
2026-01-18T19:56:15.289323,9.734002,-1.153340,0.870987,-0.051312,0.000000,0.024434
2026-01-18T19:56:15.299323,9.729216,-1.177268,0.770488,-0.056199,-0.013439,0.024434
2026-01-18T19:56:15.308323,9.724431,-1.158126,0.847059,-0.047647,-0.034208,0.019547
2026-01-18T19:56:15.318323,9.748359,-1.253839,0.847059,-0.034208,-0.047647,0.012217
2026-01-18T19:56:15.328323,9.767501,-1.272981,0.827916,-0.015882,-0.053756,0.000000
2026-01-18T19:56:15.337323,9.796215,-1.229910,0.851844,0.001221,-0.057421,-0.014660
2026-01-18T19:56:15.347323,9.891928,-1.201196,0.928415,0.004886,-0.059864,-0.024434
2026-01-18T19:56:15.356323,9.891928,-1.086341,0.952343,-0.006108,-0.058643,-0.028099
2026-01-18T19:56:15.366323,9.939785,-1.095912,0.952343,-0.030543,-0.053756,-0.030543
2026-01-18T19:56:15.376323,9.901499,-1.158126,0.990628,-0.058643,-0.043982,-0.028099
2026-01-18T19:56:15.385323,9.839286,-1.282552,0.904486,-0.083077,-0.041538,-0.023212
2026-01-18T19:56:15.395323,9.858429,-1.359123,0.899701,-0.096516,-0.041538,-0.012217
2026-01-18T19:56:15.405323,9.824929,-1.478764,0.937986,-0.091629,-0.054977,-0.002443
2026-01-18T19:56:15.414323,9.796215,-1.560120,0.957129,-0.070860,-0.067195,0.006108
2026-01-18T19:56:15.424323,9.891928,-1.550549,0.952343,-0.036651,-0.067195,0.013439
2026-01-18T19:56:15.433323,9.868000,-1.564905,0.995414,0.000000,-0.069638,0.014660
2026-01-18T19:56:15.443323,9.915856,-1.440479,1.052841,0.021991,-0.068416,0.020769
2026-01-18T19:56:15.453323,9.968498,-1.378265,1.095912,0.020769,-0.053756,0.031764
2026-01-18T19:56:15.462323,9.978070,-1.282552,1.071984,0.000000,-0.040317,0.040317
2026-01-18T19:56:15.472323,9.868000,-1.272981,1.038485,-0.026878,-0.026878,0.050090
2026-01-18T19:56:15.481323,9.887142,-1.306481,1.062413,-0.052534,-0.018325,0.057421
2026-01-18T19:56:15.491323,9.786644,-1.392622,0.990628,-0.067195,-0.012217,0.068416
2026-01-18T19:56:15.501323,9.796215,-1.445264,0.990628,-0.063529,-0.013439,0.073303
2026-01-18T19:56:15.510323,9.705288,-1.450050,0.904486,-0.050090,-0.009773,0.074525
2026-01-18T19:56:15.520323,9.676574,-1.435693,0.899701,-0.036651,-0.010995,0.069638
2026-01-18T19:56:15.530323,9.600004,-1.387837,0.942772,-0.024434,-0.024434,0.064751
2026-01-18T19:56:15.539323,9.657432,-1.373480,0.856630,-0.015882,-0.035430,0.059864
2026-01-18T19:56:15.549323,9.700502,-1.344766,0.894915,-0.006108,-0.050090,0.051312
2026-01-18T19:56:15.558323,9.753144,-1.363908,0.885344,0.007330,-0.061086,0.035430
2026-01-18T19:56:15.568323,9.863214,-1.392622,0.966700,0.017104,-0.054977,0.030543
2026-01-18T19:56:15.578323,9.930213,-1.249053,0.966700,0.021991,-0.039095,0.021991
2026-01-18T19:56:15.587323,9.863214,-1.268195,1.014556,0.013439,-0.017104,0.017104
2026-01-18T19:56:15.597323,9.643075,-1.263410,1.000199,0.004886,-0.004886,0.013439
2026-01-18T19:56:15.606323,9.552147,-1.311266,0.995414,0.001221,-0.009773,0.009773
2026-01-18T19:56:15.616323,9.518648,-1.325623,0.909272,0.001221,-0.041538,0.008552
2026-01-18T19:56:15.626323,9.738787,-1.373480,0.851844,0.008552,-0.086742,0.004886
2026-01-18T19:56:15.635323,9.930213,-1.383051,0.861416,0.028099,-0.119729,0.002443
2026-01-18T19:56:15.645323,10.164710,-1.354337,0.904486,0.046425,-0.118507,-0.004886
2026-01-18T19:56:15.655323,10.293922,-1.363908,0.928415,0.061086,-0.094073,-0.012217
2026-01-18T19:56:15.664323,10.231709,-1.263410,0.909272,0.063529,-0.059864,-0.012217
2026-01-18T19:56:15.674323,10.107282,-1.234696,0.909272,0.053756,-0.037873,-0.006108
2026-01-18T19:56:15.683323,10.059426,-1.177268,0.981057,0.035430,-0.037873,0.002443
2026-01-18T19:56:15.693323,10.040283,-1.162911,1.028913,0.014660,-0.043982,0.020769
2026-01-18T19:56:15.703323,10.011569,-1.177268,1.009771,-0.002443,-0.043982,0.039095
2026-01-18T19:56:15.712323,10.049854,-1.100698,1.033699,-0.015882,-0.039095,0.053756
2026-01-18T19:56:15.722323,9.973284,-1.091127,0.961914,-0.034208,-0.024434,0.065973
2026-01-18T19:56:15.731323,9.992427,-1.115055,1.091127,-0.058643,-0.015882,0.079412
2026-01-18T19:56:15.741323,9.848857,-1.095912,1.071984,-0.080634,-0.004886,0.086742
2026-01-18T19:56:15.751323,9.767501,-1.182054,1.033699,-0.094073,0.000000,0.086742
2026-01-18T19:56:15.760323,9.690931,-1.244267,1.009771,-0.098960,0.000000,0.086742
2026-01-18T19:56:15.770323,9.671788,-1.316052,1.024128,-0.092851,-0.010995,0.076969
2026-01-18T19:56:15.780323,9.762716,-1.287338,1.062413,-0.074525,-0.014660,0.063529
2026-01-18T19:56:15.789323,9.762716,-1.296909,1.057627,-0.048869,-0.015882,0.047647
2026-01-18T19:56:15.799323,9.753144,-1.306481,0.981057,-0.026878,-0.018325,0.029321
2026-01-18T19:56:15.808323,9.724431,-1.234696,0.961914,-0.013439,-0.019547,0.017104
2026-01-18T19:56:15.818323,9.738787,-1.201196,1.028913,-0.006108,-0.018325,0.007330
2026-01-18T19:56:15.828323,9.791430,-1.129412,1.009771,-0.010995,-0.023212,0.004886
2026-01-18T19:56:15.837323,9.829715,-1.182054,0.952343,-0.028099,-0.028099,0.003665
2026-01-18T19:56:15.847323,9.805787,-1.229910,0.976271,-0.039095,-0.032986,0.003665
2026-01-18T19:56:15.856323,9.920642,-1.272981,1.009771,-0.045204,-0.032986,0.002443
2026-01-18T19:56:15.866323,9.968498,-1.311266,1.000199,-0.040317,-0.029321,0.001221
2026-01-18T19:56:15.876323,9.915856,-1.316052,1.004985,-0.024434,-0.025656,-0.004886
2026-01-18T19:56:15.885323,9.934999,-1.306481,0.914058,-0.015882,-0.025656,-0.008552
2026-01-18T19:56:15.895323,9.944570,-1.292124,0.933200,-0.014660,-0.020769,-0.012217
2026-01-18T19:56:15.905323,9.944570,-1.239482,0.957129,-0.015882,-0.019547,-0.015882
2026-01-18T19:56:15.914323,9.920642,-1.287338,0.976271,-0.020769,-0.013439,-0.014660
2026-01-18T19:56:15.924323,9.853643,-1.335195,0.937986,-0.020769,-0.007330,-0.013439
2026-01-18T19:56:15.933323,9.858429,-1.330409,0.923629,-0.018325,-0.002443,-0.014660
2026-01-18T19:56:15.943323,9.796215,-1.277767,0.947557,-0.017104,-0.003665,-0.010995
2026-01-18T19:56:15.953323,9.738787,-1.287338,0.918843,-0.018325,-0.010995,-0.004886
2026-01-18T19:56:15.962323,9.791430,-1.220339,0.952343,-0.024434,-0.021991,0.002443
2026-01-18T19:56:15.972323,9.829715,-1.282552,1.000199,-0.032986,-0.039095,0.003665
2026-01-18T19:56:15.981323,9.920642,-1.349551,0.957129,-0.032986,-0.047647,0.004886
2026-01-18T19:56:15.991323,9.968498,-1.397408,0.957129,-0.025656,-0.037873,0.004886
2026-01-18T19:56:16.001323,9.978070,-1.354337,0.928415,-0.018325,-0.020769,0.002443
2026-01-18T19:56:16.010323,9.906285,-1.354337,0.914058,-0.012217,-0.003665,0.002443
2026-01-18T19:56:16.020323,9.839286,-1.311266,0.918843,-0.009773,0.003665,0.006108
2026-01-18T19:56:16.030323,9.757930,-1.344766,0.923629,-0.012217,-0.002443,0.006108
2026-01-18T19:56:16.039323,9.667003,-1.330409,0.875773,-0.012217,-0.014660,0.012217
2026-01-18T19:56:16.049323,9.690931,-1.335195,0.923629,-0.015882,-0.025656,0.015882
2026-01-18T19:56:16.058323,9.772287,-1.301695,0.937986,-0.007330,-0.036651,0.013439
2026-01-18T19:56:16.068323,9.805787,-1.268195,0.914058,0.002443,-0.039095,0.010995
2026-01-18T19:56:16.078323,9.858429,-1.292124,0.990628,0.009773,-0.039095,0.008552
2026-01-18T19:56:16.087323,9.877571,-1.229910,0.914058,0.013439,-0.032986,0.004886
2026-01-18T19:56:16.097323,9.877571,-1.220339,0.928415,0.008552,-0.029321,0.001221
2026-01-18T19:56:16.106323,9.810572,-1.182054,0.894915,-0.008552,-0.030543,-0.001221
2026-01-18T19:56:16.116323,9.863214,-1.244267,0.875773,-0.026878,-0.034208,-0.002443
2026-01-18T19:56:16.126323,9.829715,-1.220339,0.899701,-0.041538,-0.032986,-0.001221
2026-01-18T19:56:16.135323,9.839286,-1.349551,0.899701,-0.052534,-0.039095,0.000000
2026-01-18T19:56:16.145323,9.858429,-1.392622,0.837487,-0.051312,-0.050090,0.000000
2026-01-18T19:56:16.155323,9.887142,-1.426122,0.914058,-0.037873,-0.056199,0.002443
2026-01-18T19:56:16.164323,9.872786,-1.426122,0.861416,-0.014660,-0.053756,-0.002443
2026-01-18T19:56:16.174323,9.868000,-1.383051,0.890130,0.013439,-0.046425,-0.004886
2026-01-18T19:56:16.183323,9.724431,-1.402194,1.009771,0.040317,-0.036651,-0.008552
2026-01-18T19:56:16.193323,9.729216,-1.344766,0.990628,0.059864,-0.042760,-0.012217
2026-01-18T19:56:16.203323,9.738787,-1.306481,0.918843,0.068416,-0.062308,-0.008552
2026-01-18T19:56:16.212323,9.853643,-1.263410,0.923629,0.067195,-0.097738,-0.008552
2026-01-18T19:56:16.222323,10.011569,-1.268195,0.990628,0.062308,-0.112399,-0.009773
2026-01-18T19:56:16.231323,10.164710,-1.201196,0.942772,0.047647,-0.086742,-0.008552
2026-01-18T19:56:16.241323,10.040283,-1.186840,0.923629,0.030543,-0.043982,-0.012217
2026-01-18T19:56:16.251323,9.925428,-1.210768,0.937986,0.007330,-0.009773,-0.007330
2026-01-18T19:56:16.260323,9.767501,-1.311266,0.961914,-0.012217,-0.003665,-0.003665
2026-01-18T19:56:16.270323,9.609575,-1.387837,0.966700,-0.009773,-0.028099,0.002443
2026-01-18T19:56:16.280323,9.743573,-1.406979,1.000199,0.008552,-0.059864,0.008552
2026-01-18T19:56:16.289323,9.805787,-1.373480,1.043270,0.036651,-0.083077,0.006108
2026-01-18T19:56:16.299323,10.016355,-1.287338,1.076770,0.063529,-0.083077,0.007330
2026-01-18T19:56:16.308323,9.997212,-1.172483,1.057627,0.074525,-0.068416,0.002443
2026-01-18T19:56:16.318323,10.040283,-1.153340,1.062413,0.064751,-0.048869,0.000000
2026-01-18T19:56:16.328323,9.963713,-1.119840,1.000199,0.042760,-0.034208,0.002443
2026-01-18T19:56:16.337323,9.896714,-1.138983,1.081555,0.010995,-0.023212,0.006108
2026-01-18T19:56:16.347323,9.829715,-1.182054,1.052841,-0.002443,-0.021991,0.009773
2026-01-18T19:56:16.356323,9.743573,-1.296909,1.052841,-0.004886,-0.024434,0.010995
2026-01-18T19:56:16.366323,9.743573,-1.316052,0.918843,0.004886,-0.031764,0.012217
2026-01-18T19:56:16.376323,9.762716,-1.378265,0.995414,0.029321,-0.045204,0.007330
2026-01-18T19:56:16.385323,9.834500,-1.306481,1.009771,0.058643,-0.056199,0.006108
2026-01-18T19:56:16.395323,9.868000,-1.249053,1.033699,0.078190,-0.047647,0.001221
2026-01-18T19:56:16.405323,9.920642,-1.153340,1.028913,0.085521,-0.030543,0.002443
2026-01-18T19:56:16.414323,9.911071,-1.071984,0.995414,0.078190,-0.014660,0.006108
2026-01-18T19:56:16.424323,9.891928,-1.019342,0.976271,0.047647,-0.012217,0.008552
2026-01-18T19:56:16.433323,9.834500,-1.019342,0.952343,0.008552,-0.009773,0.009773
2026-01-18T19:56:16.443323,9.820143,-1.038485,0.971485,-0.025656,-0.010995,0.009773
2026-01-18T19:56:16.453323,9.810572,-1.177268,0.933200,-0.048869,-0.012217,0.009773
2026-01-18T19:56:16.462323,9.834500,-1.272981,1.019342,-0.050090,-0.014660,0.004886
2026-01-18T19:56:16.472323,9.781858,-1.349551,1.014556,-0.031764,-0.020769,-0.003665
2026-01-18T19:56:16.481323,9.810572,-1.363908,0.971485,0.001221,-0.023212,-0.012217
2026-01-18T19:56:16.491323,9.858429,-1.344766,0.957129,0.040317,-0.026878,-0.017104
2026-01-18T19:56:16.501323,9.848857,-1.258624,0.981057,0.072082,-0.024434,-0.015882
2026-01-18T19:56:16.510323,9.863214,-1.129412,0.985842,0.083077,-0.010995,-0.014660
2026-01-18T19:56:16.520323,9.743573,-0.995414,0.952343,0.070860,-0.001221,-0.009773
2026-01-18T19:56:16.530323,9.743573,-0.985842,0.957129,0.039095,-0.002443,-0.003665
2026-01-18T19:56:16.539323,9.690931,-0.985842,0.885344,0.003665,-0.012217,0.006108
2026-01-18T19:56:16.549323,9.676574,-1.158126,0.909272,-0.023212,-0.019547,0.007330
2026-01-18T19:56:16.558323,9.801001,-1.234696,0.899701,-0.030543,-0.024434,0.002443
2026-01-18T19:56:16.568323,9.815358,-1.263410,0.904486,-0.015882,-0.029321,-0.006108
2026-01-18T19:56:16.578323,9.805787,-1.268195,0.909272,0.003665,-0.034208,-0.014660
2026-01-18T19:56:16.587323,9.901499,-1.316052,0.899701,0.024434,-0.041538,-0.020769
2026-01-18T19:56:16.597323,9.968498,-1.244267,0.918843,0.042760,-0.037873,-0.024434
2026-01-18T19:56:16.606323,9.920642,-1.196411,0.937986,0.045204,-0.026878,-0.024434
2026-01-18T19:56:16.616323,9.868000,-1.143769,0.880558,0.041538,-0.017104,-0.021991
2026-01-18T19:56:16.626323,9.801001,-1.071984,0.847059,0.030543,-0.008552,-0.015882
2026-01-18T19:56:16.635323,9.719645,-1.143769,0.870987,0.018325,-0.009773,-0.007330
2026-01-18T19:56:16.645323,9.724431,-1.158126,0.870987,0.013439,-0.025656,-0.002443
2026-01-18T19:56:16.655323,9.743573,-1.167697,0.813559,0.012217,-0.043982,0.003665
2026-01-18T19:56:16.664323,9.810572,-1.062413,0.756131,0.008552,-0.054977,0.004886
2026-01-18T19:56:16.674323,9.882357,-1.105484,0.928415,0.001221,-0.059864,0.004886
2026-01-18T19:56:16.683323,9.992427,-1.115055,0.875773,-0.013439,-0.052534,0.007330
2026-01-18T19:56:16.693323,9.982855,-1.143769,0.837487,-0.026878,-0.040317,0.007330
2026-01-18T19:56:16.703323,9.949356,-1.134197,0.861416,-0.032986,-0.026878,0.006108
2026-01-18T19:56:16.712323,9.911071,-1.162911,0.880558,-0.029321,-0.020769,0.001221
2026-01-18T19:56:16.722323,9.777073,-1.196411,0.818345,-0.021991,-0.030543,0.000000
2026-01-18T19:56:16.731323,9.824929,-1.177268,0.880558,-0.012217,-0.058643,0.002443
2026-01-18T19:56:16.741323,9.872786,-1.215553,0.918843,-0.002443,-0.085521,0.003665
2026-01-18T19:56:16.751323,9.872786,-1.134197,0.957129,0.008552,-0.091629,0.003665
2026-01-18T19:56:16.760323,9.891928,-1.148554,0.985842,0.017104,-0.080634,0.001221
2026-01-18T19:56:16.770323,9.920642,-1.134197,1.009771,0.023212,-0.069638,-0.001221
2026-01-18T19:56:16.780323,9.891928,-1.067198,0.937986,0.026878,-0.073303,-0.003665
2026-01-18T19:56:16.789323,9.949356,-1.071984,0.914058,0.021991,-0.080634,-0.003665
2026-01-18T19:56:16.799323,9.968498,-1.038485,0.995414,0.014660,-0.078190,-0.003665
2026-01-18T19:56:16.808323,9.973284,-0.990628,0.914058,0.004886,-0.061086,-0.004886
2026-01-18T19:56:16.818323,9.963713,-0.990628,1.071984,-0.010995,-0.040317,-0.008552
2026-01-18T19:56:16.828323,9.887142,-1.028913,0.961914,-0.017104,-0.039095,-0.012217
2026-01-18T19:56:16.837323,9.911071,-1.086341,1.038485,-0.018325,-0.045204,-0.015882
2026-01-18T19:56:16.847323,9.858429,-1.110269,0.971485,-0.010995,-0.053756,-0.018325
2026-01-18T19:56:16.856323,9.896714,-1.081555,1.086341,0.006108,-0.062308,-0.025656
2026-01-18T19:56:16.866323,9.911071,-1.071984,1.067198,0.026878,-0.062308,-0.030543
2026-01-18T19:56:16.876323,9.853643,-0.961914,1.052841,0.032986,-0.054977,-0.034208
2026-01-18T19:56:16.885323,9.901499,-1.004985,1.000199,0.031764,-0.048869,-0.037873
2026-01-18T19:56:16.895323,9.882357,-0.856630,0.966700,0.020769,-0.045204,-0.042760
2026-01-18T19:56:16.905323,9.853643,-0.923629,0.942772,0.002443,-0.040317,-0.045204
2026-01-18T19:56:16.914323,9.863214,-1.000199,0.904486,-0.002443,-0.041538,-0.051312
2026-01-18T19:56:16.924323,9.777073,-1.086341,0.890130,0.012217,-0.045204,-0.064751
2026-01-18T19:56:16.933323,9.791430,-1.110269,0.942772,0.040317,-0.054977,-0.075747
2026-01-18T19:56:16.943323,9.877571,-1.067198,0.947557,0.076969,-0.072082,-0.086742
2026-01-18T19:56:16.953323,9.997212,-0.947557,0.918843,0.111177,-0.084299,-0.100181
2026-01-18T19:56:16.962323,10.073783,-0.827916,0.933200,0.122173,-0.089186,-0.108733
2026-01-18T19:56:16.972323,10.188638,-0.713061,0.952343,0.111177,-0.075747,-0.114842
2026-01-18T19:56:16.981323,10.179067,-0.607776,0.885344,0.079412,-0.054977,-0.120951
2026-01-18T19:56:16.991323,10.159924,-0.579063,0.780060,0.042760,-0.039095,-0.125838
2026-01-18T19:56:17.001323,10.145567,-0.626919,0.866201,0.018325,-0.028099,-0.134390
2026-01-18T19:56:17.010323,10.030712,-0.660419,0.880558,0.010995,-0.029321,-0.142942
2026-01-18T19:56:17.020323,10.054640,-0.622133,0.851844,0.019547,-0.043982,-0.153938
2026-01-18T19:56:17.030323,10.121639,-0.650847,0.923629,0.039095,-0.058643,-0.164933
2026-01-18T19:56:17.039323,10.155139,-0.569491,0.933200,0.062308,-0.067195,-0.171042
2026-01-18T19:56:17.049323,10.212566,-0.531206,0.909272,0.076969,-0.070860,-0.168598
2026-01-18T19:56:17.058323,10.346564,-0.363709,1.014556,0.078190,-0.063529,-0.164933
2026-01-18T19:56:17.068323,10.346564,-0.282353,1.028913,0.078190,-0.047647,-0.161268
2026-01-18T19:56:17.078323,10.423135,-0.172283,1.105484,0.074525,-0.032986,-0.162490
2026-01-18T19:56:17.087323,10.365707,-0.181854,1.129412,0.064751,-0.019547,-0.164933
2026-01-18T19:56:17.097323,10.403992,-0.148355,1.153340,0.057421,-0.013439,-0.166155
2026-01-18T19:56:17.106323,10.370493,-0.253639,1.186840,0.059864,-0.004886,-0.169820
2026-01-18T19:56:17.116323,10.356136,-0.277567,1.215553,0.069638,0.003665,-0.174707
2026-01-18T19:56:17.126323,10.303494,-0.234496,1.177268,0.076969,0.014660,-0.180816
2026-01-18T19:56:17.135323,10.265208,-0.196211,1.268195,0.081855,0.031764,-0.184481
2026-01-18T19:56:17.145323,10.202995,-0.066999,1.354337,0.076969,0.042760,-0.180816
2026-01-18T19:56:17.155323,10.011569,-0.057427,1.339980,0.056199,0.052534,-0.179594
2026-01-18T19:56:17.164323,9.968498,-0.071784,1.363908,0.024434,0.058643,-0.178372
2026-01-18T19:56:17.174323,9.920642,-0.244067,1.392622,-0.006108,0.050090,-0.183259
2026-01-18T19:56:17.183323,9.925428,-0.373280,1.402194,-0.024434,0.034208,-0.188146
2026-01-18T19:56:17.193323,9.920642,-0.693918,1.344766,-0.026878,0.024434,-0.190589
2026-01-18T19:56:17.203323,10.049854,-0.952343,1.349551,0.003665,0.026878,-0.186924
2026-01-18T19:56:17.212323,10.155139,-1.033699,1.354337,0.047647,0.039095,-0.183259
2026-01-18T19:56:17.222323,10.116853,-1.138983,1.387837,0.081855,0.057421,-0.171042
2026-01-18T19:56:17.231323,10.112068,-1.244267,1.292124,0.102625,0.079412,-0.149051
2026-01-18T19:56:17.241323,10.059426,-1.296909,1.435693,0.098960,0.106290,-0.125838
2026-01-18T19:56:17.251323,9.877571,-1.349551,1.344766,0.081855,0.145385,-0.103847
2026-01-18T19:56:17.260323,9.547362,-1.387837,1.540977,0.061086,0.201585,-0.092851
2026-01-18T19:56:17.270323,8.987441,-1.521835,1.670190,0.039095,0.259006,-0.090408
2026-01-18T19:56:17.280323,8.446663,-1.627119,1.564905,0.007330,0.293215,-0.094073
2026-01-18T19:56:17.289323,7.848458,-1.890329,1.406979,-0.017104,0.287106,-0.109955
2026-01-18T19:56:17.299323,7.412964,-2.172682,1.282552,-0.008552,0.243124,-0.128281
2026-01-18T19:56:17.308323,7.159325,-2.589034,1.402194,0.023212,0.155159,-0.141720
2026-01-18T19:56:17.318323,7.125825,-2.976671,1.383051,0.081855,0.058643,-0.146607
2026-01-18T19:56:17.328323,7.125825,-3.340380,1.497906,0.229685,-0.003665,-0.161268
2026-01-18T19:56:17.337323,7.235895,-3.479164,1.588834,0.438601,-0.007330,-0.178372
2026-01-18T19:56:17.347323,7.202396,-3.412165,1.732403,0.638964,0.020769,-0.179594
2026-01-18T19:56:17.356323,7.030112,-3.316452,1.818545,0.802676,0.057421,-0.161268
2026-01-18T19:56:17.366323,6.766902,-2.947957,1.808973,0.922406,0.097738,-0.125838
2026-01-18T19:56:17.376323,6.393621,-2.440679,1.904686,0.968832,0.127059,-0.084299
2026-01-18T19:56:17.385323,5.891129,-1.852044,1.914258,0.918741,0.138055,-0.013439
2026-01-18T19:56:17.395323,5.479563,-1.450050,2.067398,0.785572,0.123394,0.073303
2026-01-18T19:56:17.405323,5.096712,-1.215553,2.258824,0.612086,0.103847,0.162490
2026-01-18T19:56:17.414323,4.785645,-1.316052,2.455035,0.453261,0.100181,0.248011
2026-01-18T19:56:17.424323,4.503292,-1.473978,2.450250,0.354301,0.112399,0.320093
2026-01-18T19:56:17.433323,4.374079,-1.746760,2.459821,0.331088,0.124616,0.388510
2026-01-18T19:56:17.443323,4.259224,-1.962114,2.191825,0.350636,0.134390,0.461814
2026-01-18T19:56:17.453323,4.292723,-2.143969,2.062613,0.404392,0.140498,0.536339
2026-01-18T19:56:17.462323,4.498506,-2.100898,1.804188,0.472809,0.129503,0.634077
2026-01-18T19:56:17.472323,4.833501,-2.005185,1.718046,0.505796,0.113620,0.746477
2026-01-18T19:56:17.481323,5.154139,-1.875972,1.617548,0.493579,0.116064,0.874758
2026-01-18T19:56:17.491323,5.355136,-1.641476,1.550549,0.430049,0.171042,1.007927
2026-01-18T19:56:17.501323,5.359922,-1.450050,1.732403,0.305432,0.270002,1.136209
2026-01-18T19:56:17.510323,5.139782,-1.249053,2.187039,0.156381,0.348193,1.249830
2026-01-18T19:56:17.520323,4.934000,-1.339980,2.469392,-0.051312,0.355523,1.375668
2026-01-18T19:56:17.530323,5.091926,-1.971685,2.512463,-0.241902,0.321315,1.500284
2026-01-18T19:56:17.539323,5.422136,-2.967100,2.009970,-0.283441,0.282219,1.600466
2026-01-18T19:56:17.549323,5.972485,-3.737588,1.660618,-0.168598,0.252898,1.662774
2026-01-18T19:56:17.558323,6.546762,-4.388436,1.100698,0.047647,0.246789,1.716530
2026-01-18T19:56:17.568323,7.015755,-4.512863,0.722632,0.278554,0.265115,1.775174
2026-01-18T19:56:17.578323,7.479963,-4.421936,0.732203,0.412944,0.291993,1.874134
2026-01-18T19:56:17.587323,7.848458,-4.168296,0.976271,0.400727,0.313984,2.021963
2026-01-18T19:56:17.597323,8.202595,-3.895515,1.574477,0.283441,0.329867,2.178344
2026-01-18T19:56:17.606323,8.580661,-3.747160,2.120040,0.102625,0.354301,2.320065
2026-01-18T19:56:17.616323,8.963513,-4.010370,2.273181,-0.078190,0.398284,2.444682
2026-01-18T19:56:17.626323,9.360722,-4.953142,2.163111,-0.161268,0.466700,2.539977
2026-01-18T19:56:17.635323,9.561719,-5.919843,1.751546,-0.062308,0.546113,2.596176
2026-01-18T19:56:17.645323,9.652646,-6.747759,1.469193,0.216246,0.638964,2.613280
2026-01-18T19:56:17.655323,9.528219,-7.226324,1.502692,0.603534,0.718377,2.605950
2026-01-18T19:56:17.664323,9.408578,-7.101897,1.488335,0.985936,0.764803,2.620611
2026-01-18T19:56:17.674323,9.212367,-6.245266,1.134197,1.224173,0.797789,2.689028
2026-01-18T19:56:17.683323,8.901300,-4.948357,0.942772,1.229060,0.827111,2.805092
2026-01-18T19:56:17.693323,8.604590,-3.704089,1.071984,0.932180,0.821002,2.959030
2026-01-18T19:56:17.703323,8.327022,-3.330809,1.584048,0.437379,0.784350,3.121520
2026-01-18T19:56:17.712323,8.145168,-3.933800,2.225325,-0.092851,0.711046,3.268128
2026-01-18T19:56:17.722323,8.255237,-5.551348,2.636890,-0.493579,0.601091,3.369531
2026-01-18T19:56:17.731323,8.666803,-7.743173,2.794816,-0.560774,0.491135,3.404962
2026-01-18T19:56:17.741323,9.188438,-9.647860,2.565105,-0.229685,0.432492,3.371975
2026-01-18T19:56:17.751323,9.671788,-10.844272,2.057827,0.432492,0.453261,3.292562
2026-01-18T19:56:17.760323,9.915856,-10.872985,1.665404,1.227838,0.510683,3.215593
2026-01-18T19:56:17.770323,9.829715,-9.724431,1.899901,1.841147,0.559552,3.191159
2026-01-18T19:56:17.780323,9.561719,-7.944171,2.086541,2.124588,0.615752,3.218037
2026-01-18T19:56:17.789323,9.068797,-6.288337,2.349751,1.998750,0.664621,3.288897
2026-01-18T19:56:17.799323,8.585447,-5.369493,2.770888,1.501506,0.653625,3.391523
2026-01-18T19:56:17.808323,8.341379,-5.637490,3.067598,0.807563,0.572991,3.521026
2026-01-18T19:56:17.818323,8.269594,-7.034898,3.852444,0.195476,0.461814,3.638312
2026-01-18T19:56:17.828323,8.480163,-9.073583,4.010370,-0.142942,0.371405,3.701842
2026-01-18T19:56:17.837323,8.652446,-10.801201,4.589433,-0.139277,0.326201,3.694512
2026-01-18T19:56:17.847323,8.877371,-11.921042,5.541777,0.118507,0.301767,3.637090
2026-01-18T19:56:17.856323,9.245866,-12.174681,5.800201,0.536339,0.311541,3.550348
2026-01-18T19:56:17.866323,9.509077,-11.633903,5.532205,1.033583,0.411723,3.395188
2026-01-18T19:56:17.876323,9.365507,-10.849057,4.957928,1.342681,0.597426,3.251024
2026-01-18T19:56:17.885323,8.796015,-10.212566,4.278366,1.361007,0.791681,3.186272
2026-01-18T19:56:17.895323,7.829315,-9.628718,3.890729,1.251051,0.933401,3.125185
2026-01-18T19:56:17.905323,6.589833,-9.408578,3.665804,0.951727,0.946840,3.081203
2026-01-18T19:56:17.914323,5.647061,-9.858429,4.699503,0.593760,0.759916,3.007899
2026-01-18T19:56:17.924323,5.536991,-10.729416,5.522634,0.421496,0.439822,2.901609
2026-01-18T19:56:17.933323,6.302694,-11.724830,5.795416,0.404392,0.160046,2.762332
2026-01-18T19:56:17.943323,7.475177,-12.485748,6.652046,0.582765,0.047647,2.550972
2026-01-18T19:56:17.953323,8.341379,-12.466605,7.039684,0.893084,0.163711,2.332282
2026-01-18T19:56:17.962323,8.580661,-12.016755,6.967899,1.130100,0.470366,2.112371
2026-01-18T19:56:17.972323,8.073383,-11.504691,6.872186,1.148426,0.790459,1.892460
2026-01-18T19:56:17.981323,7.130611,-11.026126,6.565905,0.995710,0.961501,1.645670
2026-01-18T19:56:17.991323,6.173482,-10.887342,6.326622,0.766024,0.912632,1.358564
2026-01-18T19:56:18.001323,5.886343,-10.810772,6.518048,0.532674,0.640186,1.029918
2026-01-18T19:56:18.010323,6.269195,-10.973484,6.364908,0.379958,0.235793,0.675616
2026-01-18T19:56:18.020323,7.398607,-11.222337,6.202196,0.364075,-0.112399,0.274889
2026-01-18T19:56:18.030323,8.547162,-11.356336,6.130411,0.409279,-0.289550,-0.131946
2026-01-18T19:56:18.039323,9.250652,-11.212766,5.982056,0.467922,-0.273667,-0.530230
2026-01-18T19:56:18.049323,9.355936,-10.916056,6.297909,0.472809,-0.122173,-0.906523
2026-01-18T19:56:18.058323,8.882157,-10.734202,6.857829,0.406836,0.043982,-1.270599
2026-01-18T19:56:18.068323,8.001598,-10.408778,6.551548,0.310319,0.119729,-1.589471
2026-01-18T19:56:18.078323,7.049255,-10.250852,6.183053,0.217467,0.052534,-1.936442
2026-01-18T19:56:18.087323,6.628118,-10.054640,5.828915,0.162490,-0.151494,-2.306626
2026-01-18T19:56:18.097323,6.565905,-9.198010,5.709274,0.285884,-0.445931,-2.689028
2026-01-18T19:56:18.106323,6.987041,-7.690531,5.570491,0.392175,-0.753807,-3.065321
2026-01-18T19:56:18.116323,7.824529,-6.570690,5.201996,0.152716,-1.050687,-3.321884
2026-01-18T19:56:18.126323,8.925228,-5.862415,5.034498,-0.311541,-1.312138,-3.496591
2026-01-18T19:56:18.135323,10.207781,-5.776273,4.704289,-0.922406,-1.492954,-3.607769
2026-01-18T19:56:18.145323,11.547761,-7.020541,4.417150,-1.765400,-1.567479,-3.589443
2026-01-18T19:56:18.155323,12.792029,-9.212367,4.484149,-2.393369,-1.506393,-3.596773
2026-01-18T19:56:18.164323,13.222737,-11.313265,4.192225,-2.484999,-1.258382,-3.652973
2026-01-18T19:56:18.174323,12.605389,-12.485748,3.751945,-2.072054,-0.850324,-3.775146
2026-01-18T19:56:18.183323,10.872985,-12.246466,3.617947,-1.303586,-0.453261,-3.959627
2026-01-18T19:56:18.193323,8.590233,-10.777272,3.546163,-0.511904,-0.295658,-4.163656
2026-01-18T19:56:18.203323,6.719045,-8.590233,3.014956,-0.013439,-0.463035,-4.354246
2026-01-18T19:56:18.212323,5.781059,-6.675975,2.067398,0.123394,-0.906523,-4.515514
2026-01-18T19:56:18.222323,6.039484,-5.254638,1.560120,-0.120951,-1.549153,-4.574157
2026-01-18T19:56:18.231323,7.776673,-4.957928,1.560120,-0.746477,-2.310291,-4.495967
2026-01-18T19:56:18.241323,11.088339,-5.757131,2.407179,-1.402546,-2.976134,-4.418998
2026-01-18T19:56:18.251323,15.031711,-7.288537,3.077169,-1.959655,-3.264463,-4.244290
2026-01-18T19:56:18.260323,18.357735,-9.212367,3.168097,-2.219883,-2.989573,-4.078135
2026-01-18T19:56:18.270323,19.525433,-10.638489,3.120240,-2.020741,-2.157575,-3.952297
2026-01-18T19:56:18.280323,17.826529,-11.002198,2.756531,-1.466076,-1.069013,-3.854558
2026-01-18T19:56:18.289323,14.132010,-10.336993,2.488535,-0.835663,-0.202807,-3.798359
2026-01-18T19:56:18.299323,10.035497,-8.877371,2.091326,-0.210137,0.101403,-3.773924
2026-01-18T19:56:18.308323,6.599404,-6.795616,1.196411,0.324980,-0.145385,-3.789807
2026-01-18T19:56:18.318323,4.733003,-4.890929,1.129412,0.624304,-0.779463,-3.817906
2026-01-18T19:56:18.328323,4.814359,-3.302095,0.875773,0.709825,-1.634675,-3.835011
2026-01-18T19:56:18.337323,6.800401,-2.225325,0.593420,0.636521,-2.483777,-3.806911
2026-01-18T19:56:18.347323,9.839286,-1.507478,0.320638,0.494800,-3.017673,-3.806911
2026-01-18T19:56:18.356323,12.686745,-0.760917,0.602991,0.344527,-3.042108,-3.794694
2026-01-18T19:56:18.366323,14.404792,0.349352,1.488335,0.007330,-2.689028,-3.721390
2026-01-18T19:56:18.376323,14.797214,1.024128,2.325823,-0.590095,-2.194227,-3.595552
2026-01-18T19:56:18.385323,14.136795,0.698704,2.866601,-1.295034,-1.709200,-3.433061
2026-01-18T19:56:18.395323,12.887742,-0.914058,2.249253,-1.933998,-1.328020,-3.253467
2026-01-18T19:56:18.405323,11.562118,-3.072384,1.564905,-2.189340,-1.105665,-3.150842
2026-01-18T19:56:18.414323,10.542776,-4.512863,1.028913,-2.004859,-1.050687,-3.082425
2026-01-18T19:56:18.424323,9.767501,-5.024927,0.435493,-1.541823,-1.109331,-3.061655
2026-01-18T19:56:18.433323,9.466006,-4.656432,-0.019142,-0.974940,-1.235169,-3.059212
2026-01-18T19:56:18.443323,9.710074,-3.742374,-0.354137,-0.492357,-1.408654,-3.011564
2026-01-18T19:56:18.453323,10.260423,-2.684746,-0.502492,-0.206472,-1.505171,-2.919935
2026-01-18T19:56:18.462323,10.734202,-1.780260,-0.516849,-0.131946,-1.439198,-2.791653
2026-01-18T19:56:18.472323,10.691131,-1.205982,-0.311066,-0.211359,-1.225395,-2.637715
2026-01-18T19:56:18.481323,10.068997,-0.942772,0.047856,-0.401949,-0.988379,-2.455677
2026-01-18T19:56:18.491323,9.102297,-0.990628,0.358923,-0.652403,-0.825889,-2.261422
2026-01-18T19:56:18.501323,8.149953,-1.177268,0.674775,-0.888197,-0.773355,-2.063502
2026-01-18T19:56:18.510323,7.470392,-1.426122,1.019342,-1.081231,-0.802676,-1.874134
2026-01-18T19:56:18.520323,7.087540,-1.689332,1.339980,-1.233947,-0.863763,-1.694539
2026-01-18T19:56:18.530323,6.857829,-1.895115,1.526620,-1.341459,-0.900415,-1.525941
2026-01-18T19:56:18.539323,6.862615,-2.067398,1.770688,-1.412320,-0.860098,-1.365894
2026-01-18T19:56:18.549323,6.618547,-2.292324,1.938186,-1.434311,-0.731816,-1.226617
2026-01-18T19:56:18.558323,6.111268,-2.450250,1.952543,-1.415985,-0.537561,-1.092226
2026-01-18T19:56:18.568323,5.407779,-2.598605,1.957328,-1.368337,-0.333532,-0.956614
2026-01-18T19:56:18.578323,4.608576,-2.727817,1.986042,-1.292590,-0.151494,-0.828333
2026-01-18T19:56:18.587323,3.656232,-2.804388,1.971685,-1.198517,-0.003665,-0.703716
2026-01-18T19:56:18.597323,2.742174,-2.876172,1.828116,-1.087339,0.076969,-0.579100
2026-01-18T19:56:18.606323,2.076970,-2.947957,1.775474,-0.974940,0.070860,-0.454483
2026-01-18T19:56:18.616323,1.689332,-2.885744,1.722832,-0.847880,-0.008552,-0.333532
2026-01-18T19:56:18.626323,1.612762,-2.565105,1.837687,-0.706160,-0.135612,-0.226020
2026-01-18T19:56:18.635323,1.856830,-2.153540,2.009970,-0.585208,-0.273667,-0.131946
2026-01-18T19:56:18.645323,2.455035,-1.694118,2.426322,-0.520457,-0.393397,-0.045204
2026-01-18T19:56:18.655323,3.211167,-1.383051,2.421536,-0.524122,-0.472809,0.039095
2026-01-18T19:56:18.664323,4.015156,-1.325623,2.273181,-0.559552,-0.480139,0.109955
2026-01-18T19:56:18.674323,4.771288,-1.435693,2.009970,-0.571769,-0.415388,0.155159
2026-01-18T19:56:18.683323,5.292923,-1.698904,1.765903,-0.553443,-0.327423,0.186924
2026-01-18T19:56:18.693323,5.833701,-2.163111,1.368694,-0.471587,-0.283441,0.210137
2026-01-18T19:56:18.703323,6.503691,-2.737389,1.182054,-0.296880,-0.316428,0.215024
2026-01-18T19:56:18.712323,7.350751,-3.268595,1.177268,-0.029321,-0.397062,0.210137
2026-01-18T19:56:18.722323,8.542376,-3.488735,1.124626,0.301767,-0.458148,0.189368
2026-01-18T19:56:18.731323,9.872786,-3.340380,1.421336,0.664621,-0.432492,0.147829
2026-01-18T19:56:18.741323,10.892128,-2.593819,1.636690,0.974940,-0.282219,0.120951
2026-01-18T19:56:18.751323,11.404192,-1.450050,1.651047,1.098335,-0.035430,0.142942
2026-01-18T19:56:18.760323,11.164910,-0.129212,1.871187,0.995710,0.260228,0.173485
2026-01-18T19:56:18.770323,10.226923,0.794417,2.225325,0.647517,0.543669,0.238237
2026-01-18T19:56:18.780323,8.958727,0.899701,2.234896,0.135612,0.731816,0.342084
2026-01-18T19:56:18.789323,7.532605,0.277567,2.306680,-0.349414,0.814894,0.449596
2026-01-18T19:56:18.799323,6.374479,-0.698704,2.306680,-0.652403,0.785572,0.575434
2026-01-18T19:56:18.808323,5.532205,-1.660618,2.029113,-0.728151,0.664621,0.713490
2026-01-18T19:56:18.818323,5.201996,-2.531606,1.794616,-0.608421,0.570548,0.841772
2026-01-18T19:56:18.828323,4.886143,-3.077169,1.818545,-0.338419,0.571769,0.957836
2026-01-18T19:56:18.837323,4.622933,-3.273381,1.794616,0.017104,0.646295,1.071457
2026-01-18T19:56:18.847323,4.177868,-3.282952,2.014756,0.425162,0.733038,1.186300
2026-01-18T19:56:18.856323,3.809373,-2.766102,2.440679,0.819780,0.774576,1.306029
2026-01-18T19:56:18.866323,3.617947,-2.139183,2.143969,1.099557,0.745255,1.447750
2026-01-18T19:56:18.876323,3.795016,-1.325623,1.942971,1.243721,0.667064,1.576031
2026-01-18T19:56:18.885323,4.378865,-0.665204,1.761117,1.220508,0.548556,1.710422
2026-01-18T19:56:18.895323,5.312066,0.000000,1.272981,0.992044,0.410501,1.879021
2026-01-18T19:56:18.905323,6.503691,0.449850,1.148554,0.621860,0.313984,2.045176
2026-01-18T19:56:18.914323,7.556533,0.588634,0.823130,0.149051,0.331088,2.211331
2026-01-18T19:56:18.924323,8.331808,0.071784,0.574277,-0.367740,0.466700,2.360382
2026-01-18T19:56:18.933323,8.657232,-1.038485,0.794417,-0.788015,0.668286,2.486221
2026-01-18T19:56:18.943323,8.489734,-2.560320,0.679561,-0.968832,0.882089,2.571742
2026-01-18T19:56:18.953323,7.972884,-4.115654,0.507278,-0.893084,1.112996,2.631606
2026-01-18T19:56:18.962323,7.034898,-5.694917,0.358923,-0.488692,1.246164,2.675589
2026-01-18T19:56:18.972323,6.068198,-6.551548,0.492921,0.199142,1.251051,2.701245
2026-01-18T19:56:18.981323,5.369493,-6.288337,0.636490,1.040914,1.131322,2.693915
2026-01-18T19:56:18.991323,5.264209,-4.900500,0.349352,1.776395,0.902858,2.714684
2026-01-18T19:56:19.001323,5.871986,-2.794816,0.153140,2.140471,0.615752,2.774549
2026-01-18T19:56:19.010323,6.987041,-0.937986,0.167497,2.010967,0.389731,2.891835
2026-01-18T19:56:19.020323,8.255237,0.196211,0.325423,1.496619,0.306654,3.040886
2026-01-18T19:56:19.030323,9.317651,0.344566,0.703489,0.748920,0.355523,3.203376
2026-01-18T19:56:19.039323,9.978070,-0.832702,0.631705,-0.021991,0.478918,3.370753
2026-01-18T19:56:19.049323,10.212566,-3.153740,0.521635,-0.553443,0.626747,3.483152
2026-01-18T19:56:19.058323,10.040283,-5.843272,0.698704,-0.646295,0.783129,3.541795
2026-01-18T19:56:19.068323,9.700502,-8.025527,0.708275,-0.229685,0.852767,3.551569
2026-01-18T19:56:19.078323,9.466006,-9.212367,0.847059,0.587652,0.821002,3.508809
2026-01-18T19:56:19.087323,9.513862,-8.796015,0.923629,1.629788,0.720820,3.453831
2026-01-18T19:56:19.097323,9.829715,-6.604190,0.957129,2.580294,0.586430,3.424509
2026-01-18T19:56:19.106323,10.537990,-3.680161,1.028913,2.995682,0.476474,3.450166
2026-01-18T19:56:19.116323,11.461620,-1.473978,0.995414,2.695136,0.444709,3.561343
2026-01-18T19:56:19.126323,12.198609,-0.492921,0.870987,1.909564,0.513126,3.698177
2026-01-18T19:56:19.135323,12.562318,-0.933200,0.794417,0.935845,0.654847,3.837454
2026-01-18T19:56:19.145323,12.390035,-2.837887,0.746560,0.042760,0.817337,3.940079
2026-01-18T19:56:19.155323,11.734402,-5.651846,0.866201,-0.538783,0.962723,3.986505
2026-01-18T19:56:19.164323,10.887342,-8.724231,0.914058,-0.548556,1.015257,3.963292
2026-01-18T19:56:19.174323,10.159924,-10.939984,0.856630,-0.023212,0.895528,3.907093
2026-01-18T19:56:19.183323,9.930213,-11.973684,1.507478,0.884532,0.627969,3.766594
2026-01-18T19:56:19.193323,10.375278,-11.385049,2.297109,1.936442,0.315206,3.600438
2026-01-18T19:56:19.203323,11.313265,-9.767501,2.455035,2.616946,0.068416,3.519804
2026-01-18T19:56:19.212323,12.500105,-8.116454,2.737389,2.792875,-0.017104,3.502700
2026-01-18T19:56:19.222323,13.653445,-7.125825,2.909672,2.423912,0.079412,3.618764
2026-01-18T19:56:19.231323,14.337793,-7.604390,2.665604,1.566258,0.320093,3.846006
2026-01-18T19:56:19.241323,14.380863,-9.327222,2.110469,0.739146,0.627969,4.029266
2026-01-18T19:56:19.251323,13.730016,-11.073982,2.292324,0.403170,0.961501,4.063474
2026-01-18T19:56:19.260323,12.413963,-12.284751,2.608176,0.516791,1.211956,4.035374
2026-01-18T19:56:19.270323,11.088339,-13.026526,2.445464,0.868650,1.313359,4.015827
2026-01-18T19:56:19.280323,9.724431,-12.595818,3.067598,1.455080,1.257160,3.920532
2026-01-18T19:56:19.289323,8.575876,-10.782058,4.139583,2.219883,1.126435,3.665190
2026-01-18T19:56:19.299323,7.795816,-8.365307,4.800002,2.581515,0.955393,3.457496
2026-01-18T19:56:19.308323,7.503891,-6.795616,5.020141,2.376265,0.769690,3.323106
2026-01-18T19:56:19.318323,7.513462,-5.862415,5.144568,1.918116,0.610865,3.172833
2026-01-18T19:56:19.328323,7.781459,-5.733202,5.350351,1.214399,0.520457,3.035999
2026-01-18T19:56:19.337323,7.896314,-6.958328,5.469992,0.434935,0.529009,2.911383
2026-01-18T19:56:19.347323,7.867600,-9.097511,5.230710,-0.135612,0.627969,2.764775
2026-01-18T19:56:19.356323,7.298108,-11.705688,4.843072,-0.421496,0.762359,2.608394
2026-01-18T19:56:19.366323,6.541976,-14.347364,4.981856,-0.392175,0.852767,2.425134
2026-01-18T19:56:19.376323,5.728417,-16.022341,5.498706,0.040317,0.917519,2.177123
2026-01-18T19:56:19.385323,4.613361,-16.252050,6.010770,0.763581,0.973718,1.887573
2026-01-18T19:56:19.395323,3.354737,-14.907284,6.340979,1.390328,0.983492,1.638340
2026-01-18T19:56:19.405323,2.469392,-12.729816,6.551548,1.740965,0.872315,1.412320
2026-01-18T19:56:19.414323,2.225325,-10.049854,6.436692,1.798386,0.667064,1.149648
2026-01-18T19:56:19.424323,2.478964,-7.599604,6.685546,1.455080,0.425162,0.877202
2026-01-18T19:56:19.433323,3.282952,-6.144768,7.135396,0.795346,0.221133,0.599869
2026-01-18T19:56:19.443323,4.484149,-5.982056,6.719045,0.061086,0.146607,0.309097
2026-01-18T19:56:19.453323,5.690132,-7.135396,5.843272,-0.646295,0.277332,-0.039095
2026-01-18T19:56:19.462323,6.049055,-9.748359,5.106283,-1.088561,0.594982,-0.476474
2026-01-18T19:56:19.472323,5.532205,-12.299108,4.321437,-0.937067,0.928514,-0.939510
2026-01-18T19:56:19.481323,4.063012,-13.481162,4.465006,-0.279776,1.120326,-1.467297
2026-01-18T19:56:19.491323,2.316252,-12.973884,4.996213,0.470366,1.026253,-1.946216
2026-01-18T19:56:19.501323,1.234696,-10.954341,5.345565,1.144761,0.619417,-2.415360
2026-01-18T19:56:19.510323,1.301695,-7.781459,5.565705,1.532049,-0.030543,-2.893057
2026-01-18T19:56:19.520323,2.665604,-4.934000,5.929414,1.514945,-0.777020,-3.349984
2026-01-18T19:56:19.530323,5.063212,-2.885744,6.474977,1.077566,-1.436754,-3.717725
2026-01-18T19:56:19.539323,8.049455,-2.277967,6.374479,0.144164,-1.927890,-3.864332
2026-01-18T19:56:19.549323,11.140982,-3.182454,5.407779,-0.839328,-2.133140,-4.006053
2026-01-18T19:56:19.558323,13.495519,-5.527420,4.230510,-1.629788,-1.957211,-4.217412
2026-01-18T19:56:19.568323,14.806786,-9.303294,3.881158,-2.289522,-1.563814,-4.312707
2026-01-18T19:56:19.578323,14.859428,-12.720244,3.349951,-2.240653,-1.165530,-4.394563
2026-01-18T19:56:19.587323,13.830514,-14.017154,3.488735,-1.352455,-0.783129,-4.552166
2026-01-18T19:56:19.597323,12.102896,-13.643874,4.938785,-0.522900,-0.590095,-4.575379
2026-01-18T19:56:19.606323,10.566704,-12.825529,5.685346,-0.068416,-0.731816,-4.473976
2026-01-18T19:56:19.616323,9.810572,-11.456834,5.546562,0.312762,-1.099557,-4.420219
2026-01-18T19:56:19.626323,9.829715,-9.796215,5.374279,0.526565,-1.479515,-4.401893
2026-01-18T19:56:19.635323,10.116853,-8.331808,5.048855,0.574213,-1.743409,-4.365242
2026-01-18T19:56:19.645323,10.341779,-6.972685,4.996213,0.596204,-1.894903,-4.316372
2026-01-18T19:56:19.655323,10.370493,-5.029713,5.187639,0.598647,-1.996307,-4.302933
2026-01-18T19:56:19.664323,10.217352,-2.804388,5.331208,0.480139,-2.084271,-4.310264
2026-01-18T19:56:19.674323,9.829715,-0.282353,4.694717,0.108733,-2.164905,-4.335920
2026-01-18T19:56:19.683323,9.418149,1.153340,2.852244,-0.638964,-2.269974,-4.278499
2026-01-18T19:56:19.693323,9.466006,0.784845,1.660618,-1.642005,-2.494773,-4.130669
2026-01-18T19:56:19.703323,10.336993,-1.698904,1.770688,-2.550972,-2.856405,-3.954740
2026-01-18T19:56:19.712323,12.299108,-5.436492,2.277967,-3.005456,-3.189937,-3.800802
2026-01-18T19:56:19.722323,14.581860,-8.920442,2.115255,-2.748893,-3.254689,-3.760485
2026-01-18T19:56:19.731323,16.285549,-10.992627,2.321037,-1.838703,-2.970026,-3.815463
2026-01-18T19:56:19.741323,16.558332,-11.107482,2.526820,-0.609643,-2.458121,-3.865554
2026-01-18T19:56:19.751323,15.242279,-8.977870,2.555534,0.568104,-1.909564,-3.887545
2026-01-18T19:56:19.760323,12.926027,-5.651846,2.708675,1.337794,-1.544267,-3.877771
2026-01-18T19:56:19.770323,10.705488,-2.579462,2.498106,1.502728,-1.488067,-3.809354
2026-01-18T19:56:19.780323,8.906085,-0.081355,1.493121,1.210734,-1.677435,-3.704286
2026-01-18T19:56:19.789323,7.628318,1.808973,-0.459421,0.662177,-1.987755,-3.597995
2026-01-18T19:56:19.799323,7.173682,2.675175,-0.378065,-0.164933,-2.412917,-3.446500
2026-01-18T19:56:19.808323,8.116454,1.761117,0.148355,-1.169195,-2.938261,-3.230254
2026-01-18T19:56:19.818323,10.198209,-0.540777,0.148355,-1.920559,-3.301115,-3.028669
2026-01-18T19:56:19.828323,12.567104,-3.000599,0.713061,-2.152688,-3.301115,-2.979800
2026-01-18T19:56:19.837323,14.400006,-4.962714,1.574477,-1.935220,-2.951700,-2.994460
2026-01-18T19:56:19.847323,15.323635,-6.230910,1.612762,-1.353677,-2.348165,-3.015230
2026-01-18T19:56:19.856323,14.763715,-6.206981,1.627119,-0.568104,-1.604131,-3.035999
2026-01-18T19:56:19.866323,13.055240,-4.857429,1.665404,0.128281,-0.938288,-3.025004
2026-01-18T19:56:19.876323,10.925627,-2.947957,1.617548,0.492357,-0.582765,-2.963917
2026-01-18T19:56:19.885323,9.121439,-1.148554,1.478764,0.474031,-0.565661,-2.872287
2026-01-18T19:56:19.895323,8.154739,0.100498,0.957129,0.140498,-0.808785,-2.725680
2026-01-18T19:56:19.905323,7.968099,0.713061,0.014356,-0.379958,-1.169195,-2.527759
2026-01-18T19:56:19.914323,8.542376,0.679561,-0.770488,-0.956614,-1.467297,-2.309070
2026-01-18T19:56:19.924323,9.293722,0.181854,-0.808774,-1.480737,-1.582140,-2.096489
2026-01-18T19:56:19.933323,9.757930,-0.669990,-0.918843,-1.853364,-1.491732,-1.894903
2026-01-18T19:56:19.943323,9.561719,-1.703689,-0.598205,-2.058615,-1.237612,-1.695761
2026-01-18T19:56:19.953323,8.743373,-2.785245,0.263210,-2.090380,-0.913854,-1.502728
2026-01-18T19:56:19.962323,7.441678,-3.637090,1.048056,-1.948659,-0.602312,-1.291368
2026-01-18T19:56:19.972323,5.795416,-3.967299,1.837687,-1.679879,-0.357966,-1.087339
2026-01-18T19:56:19.981323,4.158725,-3.890729,2.445464,-1.320690,-0.219911,-0.905302
2026-01-18T19:56:19.991323,2.732603,-3.431307,2.512463,-0.893084,-0.211359,-0.755029
2026-01-18T19:56:20.001323,1.885544,-2.660818,2.603390,-0.458148,-0.315206,-0.662177
2026-01-18T19:56:20.010323,1.804188,-1.828116,2.450250,-0.138055,-0.513126,-0.574213
2026-01-18T19:56:20.020323,2.397608,-1.091127,1.785045,0.051312,-0.724486,-0.475253
2026-01-18T19:56:20.030323,3.235096,-0.301495,1.512263,0.109955,-0.842993,-0.392175
2026-01-18T19:56:20.039323,4.010370,0.382851,1.497906,0.031764,-0.817337,-0.315206
2026-01-18T19:56:20.049323,4.551148,0.823130,1.536192,-0.138055,-0.690277,-0.255341
2026-01-18T19:56:20.058323,4.675575,0.947557,1.674975,-0.353080,-0.522900,-0.202807
2026-01-18T19:56:20.068323,4.646861,0.569491,2.057827,-0.540004,-0.377514,-0.157603
2026-01-18T19:56:20.078323,4.627718,-0.081355,2.043470,-0.599869,-0.302989,-0.112399
2026-01-18T19:56:20.087323,4.694717,-0.535992,2.033899,-0.502131,-0.300545,-0.073303
2026-01-18T19:56:20.097323,5.106283,-0.535992,1.904686,-0.324980,-0.339641,-0.037873
2026-01-18T19:56:20.106323,5.709274,-0.066999,1.574477,-0.164933,-0.356745,-0.004886
2026-01-18T19:56:20.116323,6.254838,0.708275,1.167697,-0.131946,-0.332310,0.032986
2026-01-18T19:56:20.126323,6.876972,1.191625,0.746560,-0.306654,-0.293215,0.100181
2026-01-18T19:56:20.135323,7.336394,1.234696,0.669990,-0.583987,-0.260228,0.188146
2026-01-18T19:56:20.145323,7.848458,0.856630,0.971485,-0.845437,-0.243124,0.271224
2026-01-18T19:56:20.155323,8.437092,0.162711,1.330409,-1.014036,-0.249232,0.354301
2026-01-18T19:56:20.164323,9.135796,-0.521635,1.445264,-1.036027,-0.255341,0.419053
2026-01-18T19:56:20.174323,9.882357,-1.225125,1.411765,-0.930958,-0.208915,0.466700
2026-01-18T19:56:20.183323,10.332207,-1.406979,1.167697,-0.741590,-0.090408,0.510683
2026-01-18T19:56:20.193323,10.399207,-1.469193,1.316052,-0.522900,0.105068,0.546113
2026-01-18T19:56:20.203323,9.949356,-1.521835,1.564905,-0.328645,0.338419,0.577878
2026-01-18T19:56:20.212323,9.111868,-1.694118,1.785045,-0.169820,0.532674,0.624304
2026-01-18T19:56:20.222323,8.145168,-1.976471,1.665404,0.000000,0.631634,0.680503
2026-01-18T19:56:20.231323,7.432106,-2.282752,1.607976,0.223576,0.640186,0.737925
2026-01-18T19:56:20.241323,6.991827,-2.258824,1.234696,0.491135,0.583987,0.790459
2026-01-18T19:56:20.251323,6.920042,-1.751546,1.191625,0.755029,0.509461,0.827111
2026-01-18T19:56:20.260323,7.135396,-1.028913,1.478764,0.905302,0.483805,0.868650
2026-01-18T19:56:20.270323,7.207181,-0.224925,1.426122,0.874758,0.558330,0.929736
2026-01-18T19:56:20.280323,7.202396,0.387637,1.497906,0.708603,0.731816,1.000597
2026-01-18T19:56:20.289323,6.795616,0.794417,1.627119,0.443488,0.900415,1.109331
2026-01-18T19:56:20.299323,6.403193,0.732203,1.622333,0.074525,0.989601,1.265712
2026-01-18T19:56:20.308323,5.943771,0.081355,1.555334,-0.278554,1.017701,1.434311
2026-01-18T19:56:20.318323,5.560919,-0.842273,1.263410,-0.487470,0.990823,1.605353
2026-01-18T19:56:20.328323,5.369493,-1.545763,1.143769,-0.511904,0.917519,1.740965
2026-01-18T19:56:20.337323,5.369493,-1.995614,1.196411,-0.373849,0.814894,1.850921
2026-01-18T19:56:20.347323,5.675775,-1.995614,1.296909,-0.134390,0.730594,1.926668
2026-01-18T19:56:20.356323,6.087340,-2.167897,0.981057,0.091629,0.741590,1.993863
2026-01-18T19:56:20.366323,6.293123,-2.220539,0.832702,0.334754,0.868650,2.048841
2026-01-18T19:56:20.376323,6.331408,-2.014756,0.818345,0.593760,1.053131,2.100154
2026-01-18T19:56:20.385323,6.168696,-1.426122,1.239482,0.823446,1.240056,2.164905
2026-01-18T19:56:20.395323,5.982056,-0.492921,1.703689,0.890641,1.336572,2.263866
2026-01-18T19:56:20.405323,6.015556,-0.200997,1.488335,0.708603,1.321912,2.425134
2026-01-18T19:56:20.414323,6.551548,-0.626919,1.191625,0.450818,1.251051,2.579072
2026-01-18T19:56:20.424323,7.264609,-1.253839,0.789631,0.293215,1.174082,2.719571
2026-01-18T19:56:20.433323,7.925028,-1.746760,0.401994,0.237015,1.153313,2.827083
2026-01-18T19:56:20.443323,8.403592,-1.923829,0.464207,0.270002,1.178969,2.897944
2026-01-18T19:56:20.453323,8.729016,-1.923829,0.770488,0.332310,1.235169,2.945591
2026-01-18T19:56:20.462323,8.910871,-2.009970,0.736989,0.329867,1.295034,2.995682
2026-01-18T19:56:20.472323,9.049655,-2.478964,0.354137,0.239459,1.351233,3.075094
2026-01-18T19:56:20.481323,9.217152,-3.259024,-0.373280,0.151494,1.396437,3.191159
2026-01-18T19:56:20.491323,9.509077,-4.484149,-1.009771,0.156381,1.392772,3.346319
2026-01-18T19:56:20.501323,10.083354,-6.125625,0.119641,0.354301,1.353677,3.466048
2026-01-18T19:56:20.510323,10.925627,-7.690531,1.373480,0.751364,1.216843,3.637090
2026-01-18T19:56:20.520323,12.165110,-9.073583,1.086341,1.291368,1.147204,3.814241
2026-01-18T19:56:20.530323,13.213166,-9.576076,-0.076570,1.985311,1.306029,3.938858
2026-01-18T19:56:20.539323,13.261022,-8.427521,-0.454636,2.717128,1.589471,3.999944
2026-01-18T19:56:20.549323,12.701102,-6.350551,-0.492921,3.125185,1.809382,4.050035
2026-01-18T19:56:20.558323,11.825329,-4.005585,0.076570,3.112968,1.916894,4.087909
2026-01-18T19:56:20.568323,11.102696,-1.871187,0.282353,2.746449,1.941329,4.128226
2026-01-18T19:56:20.578323,10.456634,-0.473778,0.334995,1.988976,1.882686,4.218634
2026-01-18T19:56:20.587323,10.045069,-0.401994,0.445065,0.982271,1.715309,4.370129
2026-01-18T19:56:20.597323,10.006784,-1.464407,0.780060,0.045204,1.488067,4.504519
2026-01-18T19:56:20.606323,10.356136,-3.895515,0.512064,-0.696386,1.304807,4.604701
2026-01-18T19:56:20.616323,10.695917,-6.872186,1.517049,-0.839328,1.227838,4.548501
2026-01-18T19:56:20.626323,11.016555,-9.020941,2.746960,-0.332310,1.182634,4.431215
2026-01-18T19:56:20.635323,11.246266,-10.021141,3.397808,0.540004,1.193630,4.289494
2026-01-18T19:56:20.645323,11.078768,-9.657432,3.225524,1.444085,1.229060,4.140443
2026-01-18T19:56:20.655323,10.734202,-8.178667,3.115455,2.085493,1.220508,4.023157
2026-01-18T19:56:20.664323,10.418349,-6.451049,3.881158,2.278526,1.132543,3.911980
2026-01-18T19:56:20.674323,10.341779,-5.101497,4.369294,1.985311,1.017701,3.866776
2026-01-18T19:56:20.683323,10.059426,-4.508077,4.326223,1.359785,0.941954,3.872884
2026-01-18T19:56:20.693323,9.791430,-4.560719,4.311866,0.631634,0.935845,3.902206
2026-01-18T19:56:20.703323,9.025726,-5.077569,4.005585,0.040317,0.999375,3.893654
2026-01-18T19:56:20.712323,8.049455,-5.742774,3.235096,-0.301767,1.080009,3.837454
2026-01-18T19:56:20.722323,6.905686,-6.666403,3.455235,-0.410501,1.104444,3.679851
2026-01-18T19:56:20.731323,6.044269,-7.872386,4.407579,-0.544891,0.968832,3.562565
2026-01-18T19:56:20.741323,5.733202,-9.695717,5.465206,-0.706160,0.690277,3.505144
2026-01-18T19:56:20.751323,6.149554,-11.428120,6.690331,-0.764803,0.343306,3.398853
2026-01-18T19:56:20.760323,7.020541,-12.567104,7.369893,-0.616973,0.079412,3.189937
2026-01-18T19:56:20.770323,8.082954,-13.174881,7.465606,-0.260228,0.008552,3.001791
2026-01-18T19:56:20.780323,8.647660,-13.136596,7.350751,0.141720,0.139277,2.849074
2026-01-18T19:56:20.789323,8.508877,-12.251251,6.570690,0.447153,0.394618,2.724458
2026-01-18T19:56:20.799323,7.743173,-11.380264,6.039484,0.521678,0.691499,2.616946
2026-01-18T19:56:20.808323,6.470192,-11.236694,5.781059,0.323758,0.923628,2.552194
2026-01-18T19:56:20.818323,5.101497,-11.600403,5.474778,0.216246,1.050687,2.452012
2026-01-18T19:56:20.828323,3.967299,-12.423534,5.422136,0.117286,1.055574,2.365269
2026-01-18T19:56:20.837323,3.326023,-14.122438,5.761916,0.127059,0.937067,2.194227
2026-01-18T19:56:20.847323,3.091526,-15.199209,6.264409,0.587652,0.781907,1.824043
2026-01-18T19:56:20.856323,3.048455,-15.031711,7.063612,1.314581,0.621860,1.365894
2026-01-18T19:56:20.866323,3.192025,-13.481162,7.470392,1.916894,0.482583,0.961501
2026-01-18T19:56:20.876323,3.369094,-11.064411,6.929614,2.227214,0.428827,0.579100
2026-01-18T19:56:20.885323,3.172882,-8.461020,6.637689,2.064724,0.471587,0.193033
2026-01-18T19:56:20.895323,2.641676,-6.522834,7.039684,1.419650,0.549778,-0.185702
2026-01-18T19:56:20.905323,1.799402,-5.091926,7.087540,0.509461,0.597426,-0.529009
2026-01-18T19:56:20.914323,0.885344,-4.618147,6.364908,-0.629191,0.561995,-0.836885
2026-01-18T19:56:20.924323,0.124426,-5.852844,5.723631,-1.887573,0.376292,-1.133765
2026-01-18T19:56:20.933323,0.143569,-9.016155,5.599204,-2.797762,0.018325,-1.463632
2026-01-18T19:56:20.943323,1.000199,-12.547961,5.723631,-3.027447,-0.514348,-1.794721
2026-01-18T19:56:20.953323,2.813959,-15.251851,5.795416,-2.493551,-1.056796,-2.223549
2026-01-18T19:56:20.962323,4.838287,-15.964912,6.001199,-1.220508,-1.382998,-2.786766
2026-01-18T19:56:20.972323,6.436692,-13.940584,6.436692,0.349414,-1.439198,-3.369531
2026-01-18T19:56:20.981323,7.269395,-10.265208,6.364908,1.464854,-1.362229,-3.832567
2026-01-18T19:56:20.991323,7.575676,-7.207181,6.154339,1.794721,-1.266934,-4.148995
2026-01-18T19:56:21.001323,7.680960,-5.067998,6.163911,1.393994,-1.254716,-4.298046
2026-01-18T19:56:21.010323,7.963313,-4.201796,6.163911,0.301767,-1.417207,-4.194199
2026-01-18T19:56:21.020323,8.743373,-4.742574,4.919643,-0.845437,-1.642005,-4.144108
2026-01-18T19:56:21.030323,9.461220,-6.072983,4.340580,-1.654222,-1.725083,-4.208860
2026-01-18T19:56:21.039323,10.279565,-8.011170,4.024727,-2.232101,-1.711644,-4.188091
2026-01-18T19:56:21.049323,10.834700,-10.121639,3.144168,-2.411695,-1.626122,-4.167321
2026-01-18T19:56:21.058323,11.040483,-11.552547,2.938386,-2.186897,-1.455080,-4.212525
2026-01-18T19:56:21.068323,10.681560,-12.074182,3.230310,-1.738522,-1.258382,-4.306599
2026-01-18T19:56:21.078323,10.097711,-11.490334,4.134797,-1.089783,-1.125213,-4.480084
2026-01-18T19:56:21.087323,9.523433,-9.580861,4.541577,-0.546113,-1.117883,-4.613253
2026-01-18T19:56:21.097323,9.418149,-8.059026,3.278166,-0.393397,-1.292590,-4.616918
2026-01-18T19:56:21.106323,10.025926,-7.264609,2.091326,-0.443488,-1.580918,-4.521623
2026-01-18T19:56:21.116323,11.279765,-6.943971,2.416750,-0.525343,-1.838703,-4.404337
2026-01-18T19:56:21.126323,12.634103,-7.336394,2.048256,-0.692721,-1.908342,-4.232073
2026-01-18T19:56:21.135323,13.351950,-7.920242,1.799402,-0.852767,-1.753182,-4.008496
2026-01-18T19:56:21.145323,13.246665,-7.934599,2.263610,-0.915075,-1.446528,-3.799580
2026-01-18T19:56:21.155323,11.988041,-7.374679,1.952543,-0.896749,-1.108109,-3.622430
2026-01-18T19:56:21.164323,10.255637,-6.479763,1.899901,-0.889419,-0.911410,-3.517361
2026-01-18T19:56:21.174323,8.729016,-5.446064,1.593619,-0.874758,-0.943175,-3.479487
2026-01-18T19:56:21.183323,7.757530,-4.335794,0.971485,-0.862541,-1.178969,-3.506365
2026-01-18T19:56:21.193323,7.886743,-3.517449,0.622133,-0.913854,-1.547932,-3.554013
2026-01-18T19:56:21.203323,8.882157,-2.861815,0.669990,-1.004262,-1.924225,-3.613877
2026-01-18T19:56:21.212323,10.447063,-2.100898,0.430708,-1.060461,-2.161240,-3.705507
2026-01-18T19:56:21.222323,12.136396,-1.378265,1.277767,-1.220508,-2.246761,-3.732385
2026-01-18T19:56:21.231323,14.002797,-1.646261,1.536192,-1.588249,-2.185675,-3.657860
2026-01-18T19:56:21.241323,15.237494,-2.761317,1.363908,-1.883908,-1.898568,-3.566230
2026-01-18T19:56:21.251323,15.414563,-3.847658,1.454836,-1.927890,-1.413541,-3.518583
2026-01-18T19:56:21.260323,14.323436,-4.488935,1.004985,-1.798386,-0.897971,-3.490483
2026-01-18T19:56:21.270323,12.366107,-4.790430,0.526420,-1.501506,-0.548556,-3.488039
2026-01-18T19:56:21.280323,10.671988,-4.522434,0.875773,-1.136209,-0.508239,-3.490483
2026-01-18T19:56:21.289323,9.738787,-4.225724,0.818345,-0.840550,-0.755029,-3.450166
2026-01-18T19:56:21.299323,9.834500,-3.972085,0.425922,-0.579100,-1.120326,-3.379305
2026-01-18T19:56:21.308323,10.624132,-3.383451,0.607776,-0.334754,-1.401324,-3.320662
2026-01-18T19:56:21.318323,11.643474,-2.651247,0.765703,-0.201585,-1.494176,-3.215593
2026-01-18T19:56:21.328323,12.399606,-1.655833,1.349551,-0.206472,-1.401324,-3.072651
2026-01-18T19:56:21.337323,12.571889,-0.837487,1.828116,-0.384845,-1.155756,-2.889391
2026-01-18T19:56:21.347323,12.078968,-0.445065,1.919043,-0.719599,-0.839328,-2.684141
2026-01-18T19:56:21.356323,11.021340,-0.746560,1.674975,-1.123991,-0.546113,-2.455677
2026-01-18T19:56:21.366323,9.657432,-1.497906,1.076770,-1.406211,-0.329867,-2.234544
2026-01-18T19:56:21.376323,8.202595,-2.359323,1.076770,-1.525941,-0.204028,-2.017076
2026-01-18T19:56:21.385323,7.044469,-3.091526,1.091127,-1.488067,-0.162490,-1.811825
2026-01-18T19:56:21.395323,6.053841,-3.713660,1.004985,-1.290147,-0.162490,-1.613905
2026-01-18T19:56:21.405323,5.312066,-4.067798,1.110269,-0.994488,-0.177150,-1.446528
2026-01-18T19:56:21.414323,4.771288,-3.919443,1.191625,-0.668286,-0.184481,-1.275486
2026-01-18T19:56:21.424323,4.350151,-3.407379,1.234696,-0.368962,-0.178372,-1.119104
2026-01-18T19:56:21.433323,3.914657,-2.579462,1.316052,-0.146607,-0.166155,-0.972497
2026-01-18T19:56:21.443323,3.603590,-1.765903,1.507478,-0.054977,-0.152716,-0.835663
2026-01-18T19:56:21.453323,3.268595,-1.033699,1.540977,-0.087964,-0.131946,-0.713490
2026-01-18T19:56:21.462323,2.900100,-0.564706,1.631905,-0.195476,-0.124616,-0.607199
2026-01-18T19:56:21.472323,2.627319,-0.545563,1.684547,-0.360410,-0.161268,-0.497244
2026-01-18T19:56:21.481323,2.703889,-0.827916,1.584048,-0.503352,-0.265115,-0.390953
2026-01-18T19:56:21.491323,3.014956,-1.162911,1.378265,-0.577878,-0.382401,-0.293215
2026-01-18T19:56:21.501323,3.330809,-1.512263,0.842273,-0.559552,-0.428827,-0.227241
2026-01-18T19:56:21.510323,3.445664,-1.761117,0.612562,-0.459370,-0.395840,-0.207694
2026-01-18T19:56:21.520323,3.632304,-1.990828,0.669990,-0.318871,-0.346971,-0.199142
2026-01-18T19:56:21.530323,3.670589,-2.282752,0.909272,-0.123394,-0.335975,-0.186924
2026-01-18T19:56:21.539323,3.948157,-2.431107,1.191625,0.157603,-0.373849,-0.179594
2026-01-18T19:56:21.549323,4.479363,-2.359323,1.287338,0.478918,-0.447153,-0.178372
2026-01-18T19:56:21.558323,5.259424,-1.947757,1.387837,0.803898,-0.511904,-0.179594
2026-01-18T19:56:21.568323,6.178267,-1.253839,1.373480,1.061683,-0.546113,-0.173485
2026-01-18T19:56:21.578323,7.121040,-0.358923,1.172483,1.161865,-0.558330,-0.156381
2026-01-18T19:56:21.587323,8.106882,0.406779,1.048056,1.071457,-0.552222,-0.133168
2026-01-18T19:56:21.597323,9.054440,1.081555,0.669990,0.825889,-0.529009,-0.094073
2026-01-18T19:56:21.606323,9.944570,1.598405,0.440279,0.449596,-0.477696,-0.053756
2026-01-18T19:56:21.616323,10.671988,1.517049,0.631705,-0.002443,-0.393397,-0.014660
2026-01-18T19:56:21.626323,11.227123,0.918843,0.784845,-0.434935,-0.268780,0.030543
2026-01-18T19:56:21.635323,11.380264,0.090927,0.684347,-0.759916,-0.114842,0.079412
2026-01-18T19:56:21.645323,11.188838,-1.004985,0.837487,-0.893084,0.075747,0.107512
2026-01-18T19:56:21.655323,10.590632,-1.957328,1.138983,-0.817337,0.276111,0.129503
2026-01-18T19:56:21.664323,9.657432,-2.445464,1.526620,-0.560774,0.467922,0.141720
2026-01-18T19:56:21.674323,8.489734,-2.522035,1.947757,-0.218689,0.624304,0.178372
2026-01-18T19:56:21.683323,7.326822,-2.306680,2.287538,0.097738,0.718377,0.241902
2026-01-18T19:56:21.693323,6.307480,-1.947757,2.354537,0.333532,0.752585,0.339641
2026-01-18T19:56:21.703323,5.469992,-1.512263,2.282752,0.480139,0.733038,0.466700
2026-01-18T19:56:21.712323,4.838287,-0.981057,2.416750,0.498465,0.667064,0.618195
2026-01-18T19:56:21.722323,4.627718,-0.545563,2.383251,0.412944,0.570548,0.777020
2026-01-18T19:56:21.731323,4.747360,-0.373280,2.057827,0.256563,0.472809,0.940732
2026-01-18T19:56:21.741323,5.173282,-0.468993,1.861615,0.075747,0.401949,1.097113
2026-01-18T19:56:21.751323,5.718846,-0.760917,1.488335,-0.065973,0.383623,1.241277
2026-01-18T19:56:21.760323,6.077769,-1.172483,1.158126,-0.145385,0.439822,1.373224
2026-01-18T19:56:21.770323,6.297909,-1.483550,1.320838,-0.153938,0.560774,1.485623
2026-01-18T19:56:21.780323,6.202196,-1.694118,1.694118,-0.079412,0.711046,1.578475
2026-01-18T19:56:21.789323,5.881557,-1.890329,1.813759,0.002443,0.835663,1.674992
2026-01-18T19:56:21.799323,5.484349,-2.201396,1.550549,0.076969,0.883310,1.786169
2026-01-18T19:56:21.808323,5.192425,-2.435893,1.201196,0.189368,0.847880,1.883908
2026-01-18T19:56:21.818323,5.130211,-2.435893,1.062413,0.309097,0.762359,1.992641
2026-01-18T19:56:21.828323,5.331208,-2.263610,0.851844,0.394618,0.623082,2.087936
2026-01-18T19:56:21.837323,6.053841,-2.191825,0.559920,0.408057,0.445931,2.202779
2026-01-18T19:56:21.847323,7.125825,-2.301895,0.411565,0.359188,0.307876,2.327396
2026-01-18T19:56:21.856323,8.202595,-2.703889,0.311066,0.333532,0.315206,2.438573
2026-01-18T19:56:21.866323,8.977870,-3.077169,0.014356,0.420275,0.518013,2.509433
2026-01-18T19:56:21.876323,8.997012,-3.211167,0.521635,0.619417,0.825889,2.547307
2026-01-18T19:56:21.885323,8.609375,-3.311666,0.832702,0.797789,1.087339,2.620611
2026-01-18T19:56:21.895323,7.972884,-3.445664,0.765703,0.930958,1.233947,2.718349
2026-01-18T19:56:21.905323,7.470392,-3.349951,0.708275,1.009149,1.259603,2.830748
2026-01-18T19:56:21.914323,7.197610,-3.005385,0.368494,0.985936,1.175304,2.983465
2026-01-18T19:56:21.924323,7.183253,-2.459821,0.282353,0.862541,1.005483,3.137403
2026-01-18T19:56:21.933323,7.733602,-2.057827,0.071784,0.634077,0.783129,3.284010
2026-01-18T19:56:21.943323,8.633303,-2.120040,0.043070,0.342084,0.577878,3.418401
2026-01-18T19:56:21.953323,9.801001,-2.943171,0.143569,0.081855,0.478918,3.525913
2026-01-18T19:56:21.962323,10.719845,-4.412364,0.397208,-0.019547,0.563217,3.617543
2026-01-18T19:56:21.972323,11.112268,-6.278766,0.756131,0.248011,0.814894,3.662747
2026-01-18T19:56:21.981323,10.801201,-7.570890,0.387637,0.873537,1.156978,3.733607
2026-01-18T19:56:21.991323,9.647860,-7.537391,-0.177068,1.688431,1.453858,3.854558
2026-01-18T19:56:22.001323,8.350950,-6.058626,-0.244067,2.283413,1.470963,4.031709
2026-01-18T19:56:22.010323,7.834101,-4.369294,-0.057427,2.354274,1.116661,4.287051
2026-01-18T19:56:22.020323,8.724231,-3.335594,0.339780,1.965763,0.518013,4.527732
2026-01-18T19:56:22.030323,10.944770,-3.412165,0.373280,1.350011,-0.056199,4.695108
2026-01-18T19:56:22.039323,13.572089,-4.369294,-0.239282,0.847880,-0.328645,4.704882
2026-01-18T19:56:22.049323,15.639488,-6.063412,-0.861416,0.596204,-0.175929,4.544836
2026-01-18T19:56:22.058323,16.352549,-8.145168,-0.655633,0.651182,0.340862,4.258951
2026-01-18T19:56:22.068323,15.347564,-10.049854,-0.215354,1.022588,1.022588,4.001166
2026-01-18T19:56:22.078323,12.926027,-10.868200,0.200997,1.448972,1.566258,3.910758
2026-01-18T19:56:22.087323,9.997212,-10.427920,1.196411,1.781282,1.722639,3.971844
2026-01-18T19:56:22.097323,7.795816,-8.920442,2.751745,2.024406,1.458745,4.053700
2026-01-18T19:56:22.106323,6.929614,-7.154539,3.684946,2.064724,0.960279,4.159991
2026-01-18T19:56:22.116323,7.360322,-5.891129,3.967299,1.868025,0.474031,4.288273
2026-01-18T19:56:22.126323,8.719445,-5.469992,4.393222,1.468519,0.149051,4.379902
2026-01-18T19:56:22.135323,10.475777,-6.321837,4.718646,0.836885,-0.017104,4.525288
2026-01-18T19:56:22.145323,11.911470,-8.006384,3.967299,0.356745,0.024434,4.605922
2026-01-18T19:56:22.155323,12.691531,-9.767501,3.795016,0.266337,0.288328,4.570492
2026-01-18T19:56:22.164323,12.524033,-11.050054,4.168296,0.441044,0.646295,4.471532
2026-01-18T19:56:22.174323,11.791829,-11.638689,4.546362,0.777020,0.971275,4.350581
2026-01-18T19:56:22.183323,10.671988,-11.576475,4.331008,1.099557,1.218065,4.232073
2026-01-18T19:56:22.193323,9.116654,-10.987841,4.709074,1.420872,1.372003,4.052479
2026-01-18T19:56:22.203323,7.542176,-9.820143,5.513063,1.695761,1.422093,3.832567
2026-01-18T19:56:22.212323,6.235695,-8.743373,6.273980,1.689652,1.351233,3.638312
2026-01-18T19:56:22.222323,5.465206,-8.303094,6.321837,1.434311,1.142317,3.479487
2026-01-18T19:56:22.231323,5.556134,-7.872386,6.068198,1.198517,0.875980,3.258354
2026-01-18T19:56:22.241323,5.948556,-7.700103,6.034698,0.795346,0.643851,3.098307
2026-01-18T19:56:22.251323,6.422335,-7.594818,5.388636,0.448374,0.559552,2.923600
2026-01-18T19:56:22.260323,6.326622,-6.967899,4.924428,0.227241,0.669508,2.669480
2026-01-18T19:56:22.270323,5.603990,-7.159325,4.910071,-0.169820,0.849102,2.394591
2026-01-18T19:56:22.280323,4.646861,-8.781658,4.938785,-0.572991,1.011592,2.114815
2026-01-18T19:56:22.289323,3.316452,-10.590632,5.517848,-0.627969,1.215621,1.756848
2026-01-18T19:56:22.299323,1.598405,-11.825329,6.159125,-0.426383,1.359785,1.347568
2026-01-18T19:56:22.308323,-0.334995,-12.189038,6.317051,-0.002443,1.354898,0.886976
2026-01-18T19:56:22.318323,-1.947757,-11.361121,6.704688,0.536339,1.186300,0.375071
2026-01-18T19:56:22.328323,-2.857030,-10.054640,6.585047,0.908967,0.835663,-0.098960
2026-01-18T19:56:22.337323,-2.560320,-8.772087,6.647261,0.967610,0.367740,-0.514348
2026-01-18T19:56:22.347323,-1.306481,-7.791030,6.719045,0.751364,-0.117286,-0.893084
2026-01-18T19:56:22.356323,0.440279,-7.389036,6.364908,0.291993,-0.469144,-1.230282
2026-01-18T19:56:22.366323,2.062613,-7.709674,5.795416,-0.410501,-0.634077,-1.496619
2026-01-18T19:56:22.376323,3.378665,-8.920442,5.350351,-1.094670,-0.651182,-1.791056
2026-01-18T19:56:22.385323,4.292723,-11.021340,4.752145,-1.731191,-0.586430,-2.058615
2026-01-18T19:56:22.395323,4.761716,-13.390235,4.622933,-2.070832,-0.453261,-2.370156
2026-01-18T19:56:22.405323,4.776073,-15.055639,4.551148,-1.846034,-0.329867,-2.762332
2026-01-18T19:56:22.414323,4.584648,-15.175280,4.436293,-1.248608,-0.295658,-3.144733
2026-01-18T19:56:22.424323,4.311866,-14.036297,4.656432,-0.514348,-0.379958,-3.527135
2026-01-18T19:56:22.433323,4.273581,-12.303893,5.201996,0.089186,-0.607199,-3.865554
2026-01-18T19:56:22.443323,4.934000,-10.925627,5.651846,0.112399,-1.021366,-4.020714
2026-01-18T19:56:22.453323,6.518048,-10.255637,5.541777,-0.129503,-1.472184,-4.134335
2026-01-18T19:56:22.462323,8.537591,-9.901499,4.546362,-0.547335,-1.806938,-4.178317
2026-01-18T19:56:22.472323,10.480562,-9.868000,3.455235,-1.080009,-1.943772,-4.164878
2026-01-18T19:56:22.481323,11.968898,-9.652646,2.407179,-1.352455,-1.832595,-4.218634
2026-01-18T19:56:22.491323,12.418749,-8.982656,2.287538,-1.431867,-1.499062,-4.333477
2026-01-18T19:56:22.501323,12.026326,-8.408378,2.531606,-1.505171,-1.071457,-4.444654
2026-01-18T19:56:22.510323,10.963913,-7.905885,3.029313,-1.534493,-0.690277,-4.558275
2026-01-18T19:56:22.520323,9.604789,-7.901100,3.177668,-1.580918,-0.492357,-4.692666
2026-01-18T19:56:22.530323,8.882157,-9.006584,3.345165,-1.786169,-0.596204,-4.776965
2026-01-18T19:56:22.539323,9.360722,-11.217552,2.871387,-1.996307,-1.010370,-4.728095
2026-01-18T19:56:22.549323,10.901699,-13.127024,1.598405,-1.808160,-1.463632,-4.768412
2026-01-18T19:56:22.558323,12.634103,-13.624731,0.665204,-1.208291,-1.684765,-4.840495
2026-01-18T19:56:22.568323,13.883156,-12.356535,1.057627,-0.471587,-1.685987,-4.858821
2026-01-18T19:56:22.578323,14.581860,-9.734002,1.282552,0.059864,-1.584584,-4.750087
2026-01-18T19:56:22.587323,14.601003,-7.408178,1.210768,0.089186,-1.444085,-4.520401
2026-01-18T19:56:22.597323,14.175081,-5.943771,1.593619,-0.302989,-1.266934,-4.260173
2026-01-18T19:56:22.606323,13.280165,-5.498706,1.713260,-0.905302,-1.087339,-3.971844
2026-01-18T19:56:22.616323,12.002398,-5.771488,1.469193,-1.500284,-0.973718,-3.725055
2026-01-18T19:56:22.626323,10.863414,-6.340979,1.383051,-1.803273,-0.984714,-3.604104
2026-01-18T19:56:22.635323,10.107282,-6.513263,1.890329,-1.745852,-1.155756,-3.604104
2026-01-18T19:56:22.645323,10.140782,-5.919843,2.550748,-1.433089,-1.419650,-3.701842
2026-01-18T19:56:22.655323,10.710273,-4.847858,1.483550,-1.089783,-1.615127,-3.810576
2026-01-18T19:56:22.664323,11.169695,-3.795016,-0.191425,-0.811228,-1.616349,-3.916867
2026-01-18T19:56:22.674323,11.150553,-2.679961,-0.957129,-0.637743,-1.495397,-4.028044
2026-01-18T19:56:22.683323,10.963913,-2.163111,-0.674775,-0.697607,-1.430646,-4.034153
2026-01-18T19:56:22.693323,11.021340,-2.794816,-0.110069,-0.901636,-1.475850,-3.958405
2026-01-18T19:56:22.703323,11.389835,-3.972085,0.669990,-1.006705,-1.530827,-3.827680
2026-01-18T19:56:22.712323,11.892328,-4.886143,1.115055,-0.921184,-1.519832,-3.695733
2026-01-18T19:56:22.722323,12.011969,-5.125426,0.981057,-0.680503,-1.418428,-3.560121
2026-01-18T19:56:22.731323,11.815757,-4.412364,0.880558,-0.370184,-1.263269,-3.440392
2026-01-18T19:56:22.741323,11.341979,-3.048455,1.631905,-0.160046,-1.125213,-3.336545
2026-01-18T19:56:22.751323,10.887342,-1.885544,1.904686,-0.197920,-1.071457,-3.189937
2026-01-18T19:56:22.760323,10.648060,-1.397408,1.593619,-0.438601,-1.072679,-3.016451
2026-01-18T19:56:22.770323,10.523633,-1.459621,1.134197,-0.670729,-1.028696,-2.858848
2026-01-18T19:56:22.780323,10.298708,-1.655833,0.708275,-0.783129,-0.924849,-2.729345
2026-01-18T19:56:22.789323,9.987641,-1.785045,-0.076570,-0.810007,-0.813672,-2.621833
2026-01-18T19:56:22.799323,9.700502,-2.129612,-0.315852,-0.803898,-0.718377,-2.495994
2026-01-18T19:56:22.808323,9.422935,-2.545963,-0.066999,-0.772133,-0.632856,-2.344500
2026-01-18T19:56:22.818323,9.135796,-2.895315,0.301495,-0.712268,-0.518013,-2.151466
2026-01-18T19:56:22.828323,8.714659,-3.115455,0.555134,-0.619417,-0.368962,-1.943772
2026-01-18T19:56:22.837323,8.097311,-3.148954,0.799202,-0.504574,-0.219911,-1.739743
2026-01-18T19:56:22.847323,7.312465,-2.780459,0.775274,-0.373849,-0.116064,-1.535714
2026-01-18T19:56:22.856323,6.565905,-2.301895,0.981057,-0.256563,-0.076969,-1.354898
2026-01-18T19:56:22.866323,5.948556,-1.722832,1.196411,-0.217467,-0.102625,-1.177747
2026-01-18T19:56:22.876323,5.436492,-1.249053,1.201196,-0.263893,-0.172263,-0.993266
2026-01-18T19:56:22.885323,5.134997,-0.933200,1.392622,-0.357966,-0.260228,-0.823446
2026-01-18T19:56:22.895323,5.058426,-0.914058,1.555334,-0.500909,-0.323758,-0.652403
2026-01-18T19:56:22.905323,5.024927,-1.201196,1.301695,-0.626747,-0.339641,-0.498465
2026-01-18T19:56:22.914323,4.843072,-1.593619,0.641276,-0.638964,-0.284663,-0.377514
2026-01-18T19:56:22.924323,4.460221,-1.837687,0.516849,-0.571769,-0.177150,-0.289550
2026-01-18T19:56:22.933323,3.981656,-2.134397,0.631705,-0.449596,-0.086742,-0.216246
2026-01-18T19:56:22.943323,3.503092,-2.325823,0.794417,-0.285884,-0.032986,-0.133168
2026-01-18T19:56:22.953323,3.134597,-2.321037,0.981057,-0.111177,-0.008552,-0.064751
2026-01-18T19:56:22.962323,2.914457,-2.086541,0.966700,0.047647,0.003665,0.001221
2026-01-18T19:56:22.972323,2.651247,-1.718046,1.201196,0.191811,0.007330,0.048869
2026-01-18T19:56:22.981323,2.440679,-1.186840,1.402194,0.288328,-0.006108,0.090408
2026-01-18T19:56:22.991323,2.402393,-0.483350,1.718046,0.328645,-0.039095,0.108733
2026-01-18T19:56:23.001323,2.579462,0.086141,1.756331,0.288328,-0.125838,0.123394
2026-01-18T19:56:23.010323,3.158525,0.416351,1.588834,0.133168,-0.249232,0.151494
2026-01-18T19:56:23.020323,3.967299,0.459421,1.564905,-0.096516,-0.361632,0.180816
2026-01-18T19:56:23.030323,4.962714,0.114855,1.249053,-0.316428,-0.430049,0.206472
2026-01-18T19:56:23.039323,5.996413,-0.373280,0.837487,-0.480139,-0.450818,0.224798
2026-01-18T19:56:23.049323,7.030112,-1.148554,0.799202,-0.592539,-0.453261,0.238237
2026-01-18T19:56:23.058323,7.996813,-1.866401,0.799202,-0.581543,-0.467922,0.239459
2026-01-18T19:56:23.068323,9.068797,-2.536391,0.866201,-0.431270,-0.497244,0.223576
2026-01-18T19:56:23.078323,10.327422,-3.010170,0.961914,-0.168598,-0.530230,0.179594
2026-01-18T19:56:23.087323,11.485548,-3.115455,0.665204,0.177150,-0.494800,0.130725
2026-01-18T19:56:23.097323,12.332607,-2.780459,0.492921,0.553443,-0.326201,0.072082
2026-01-18T19:56:23.106323,12.547961,-1.847259,0.574277,0.838106,-0.036651,0.039095
2026-01-18T19:56:23.116323,11.959327,-0.736989,0.445065,0.939510,0.313984,0.039095
2026-01-18T19:56:23.126323,10.657631,0.004785,0.933200,0.796568,0.623082,0.089186
2026-01-18T19:56:23.135323,9.006584,0.172283,1.560120,0.496022,0.800233,0.197920
2026-01-18T19:56:23.145323,7.465606,-0.258424,1.722832,0.194255,0.812450,0.370184
2026-01-18T19:56:23.155323,6.259623,-1.081555,2.038684,0.003665,0.708603,0.529009
2026-01-18T19:56:23.164323,5.632704,-1.871187,2.048256,-0.023212,0.574213,0.685390
2026-01-18T19:56:23.174323,5.441278,-2.402393,1.861615,0.119729,0.492357,0.799011
2026-01-18T19:56:23.183323,5.221138,-2.364108,1.962114,0.384845,0.488692,0.851545
2026-01-18T19:56:23.193323,5.058426,-1.871187,1.885544,0.640186,0.518013,0.896749
2026-01-18T19:56:23.203323,5.010570,-1.024128,1.962114,0.786794,0.521678,0.943175
2026-01-18T19:56:23.212323,5.259424,-0.411565,1.818545,0.780685,0.485026,1.020144
2026-01-18T19:56:23.222323,5.723631,-0.124426,1.349551,0.667064,0.458148,1.116661
2026-01-18T19:56:23.231323,6.264409,-0.406779,1.129412,0.499687,0.487470,1.210734
2026-01-18T19:56:23.241323,6.441478,-0.885344,0.985842,0.378736,0.580321,1.313359
2026-01-18T19:56:23.251323,6.374479,-1.397408,0.756131,0.339641,0.707381,1.437976
2026-01-18T19:56:23.260323,5.962913,-1.770688,0.784845,0.344527,0.808785,1.584584
2026-01-18T19:56:23.270323,5.493920,-2.014756,1.105484,0.390953,0.840550,1.738522
2026-01-18T19:56:23.280323,5.158925,-1.952543,1.569691,0.476474,0.800233,1.876577
2026-01-18T19:56:23.289323,5.230710,-1.818545,1.440479,0.547335,0.707381,2.026850
2026-01-18T19:56:23.299323,5.781059,-1.655833,1.268195,0.591317,0.630412,2.162462
2026-01-18T19:56:23.308323,6.474977,-1.550549,1.014556,0.618195,0.624304,2.300518
2026-01-18T19:56:23.318323,7.173682,-1.335195,0.746560,0.640186,0.722042,2.420247
2026-01-18T19:56:23.328323,7.642675,-1.603191,0.650847,0.638964,0.938288,2.515542
2026-01-18T19:56:23.337323,7.628318,-2.301895,0.612562,0.662177,1.169195,2.613280
2026-01-18T19:56:23.347323,7.489534,-3.153740,0.421136,0.772133,1.295034,2.718349
2026-01-18T19:56:23.356323,7.446463,-3.670589,0.526420,0.935845,1.275486,2.809979
2026-01-18T19:56:23.366323,7.810172,-3.699303,0.483350,1.102000,1.111774,2.904052
2026-01-18T19:56:23.376323,8.791230,-3.311666,0.646062,1.170417,0.871093,2.995682
2026-01-18T19:56:23.385323,10.159924,-2.780459,0.636490,1.097113,0.668286,3.090977
2026-01-18T19:56:23.395323,11.609975,-2.158325,0.751346,0.885754,0.596204,3.208263
2026-01-18T19:56:23.405323,12.801600,-1.746760,0.693918,0.597426,0.680503,3.314554
2026-01-18T19:56:23.414323,13.323236,-1.856830,0.875773,0.274889,0.910189,3.419622
2026-01-18T19:56:23.424323,13.304093,-2.981456,0.574277,-0.035430,1.231504,3.525913
2026-01-18T19:56:23.433323,12.815957,-5.225924,0.081355,-0.166155,1.574810,3.602882
2026-01-18T19:56:23.443323,11.763115,-7.341179,-0.258424,0.083077,1.881464,3.651751
2026-01-18T19:56:23.453323,10.552347,-8.542376,-0.167497,0.696386,2.002415,3.689625
2026-01-18T19:56:23.462323,9.695717,-8.748159,-0.086141,1.426980,1.905899,3.683516
2026-01-18T19:56:23.472323,9.188438,-7.757530,-0.028713,2.052506,1.648114,3.690847
2026-01-18T19:56:23.481323,9.470791,-5.800201,0.751346,2.327396,1.290147,3.740937
2026-01-18T19:56:23.491323,10.284351,-3.895515,1.172483,2.096489,0.939510,3.833789
2026-01-18T19:56:23.501323,11.475977,-2.943171,1.153340,1.506393,0.747698,3.957184
2026-01-18T19:56:23.510323,12.399606,-3.235096,1.167697,0.805120,0.777020,4.056144
2026-01-18T19:56:23.520323,12.868599,-5.541777,0.842273,0.221133,1.034805,4.098904
2026-01-18T19:56:23.530323,12.390035,-9.011369,0.311066,-0.015882,1.387885,4.188091
2026-01-18T19:56:23.539323,11.437692,-12.653245,0.114855,0.324980,1.644448,4.230851
2026-01-18T19:56:23.549323,10.341779,-15.347564,0.038285,1.273042,1.742187,4.223521
2026-01-18T19:56:23.558323,9.552147,-16.132408,0.502492,2.618167,1.601688,4.208860
2026-01-18T19:56:23.568323,9.475577,-14.385649,1.249053,4.036596,1.244943,4.111122
2026-01-18T19:56:23.578323,10.289137,-10.490134,1.584048,5.082397,0.889419,3.926640
2026-01-18T19:56:23.587323,11.399406,-6.025127,2.143969,5.293757,0.763581,3.815463
2026-01-18T19:56:23.597323,12.074182,-2.110469,2.991028,4.797734,0.930958,3.703064
2026-01-18T19:56:23.606323,11.930613,0.899701,3.680161,3.855780,1.357342,3.574782
2026-01-18T19:56:23.616323,10.671988,2.766102,4.455435,2.598620,1.909564,3.523469
2026-01-18T19:56:23.626323,8.269594,3.105883,4.737788,1.062905,2.337169,3.637090
2026-01-18T19:56:23.635323,5.637490,1.651047,4.804787,-0.496022,2.422691,3.778811
2026-01-18T19:56:23.645323,3.684946,-1.148554,4.752145,-1.791056,2.120923,3.916867
2026-01-18T19:56:23.655323,2.847458,-4.776073,4.130011,-2.480112,1.615127,3.962071
2026-01-18T19:56:23.664323,2.981456,-8.379664,3.933800,-2.494773,1.136209,3.820350
2026-01-18T19:56:23.674323,3.450450,-11.839686,4.943571,-1.925446,0.737925,3.517361
2026-01-18T19:56:23.683323,4.182653,-14.165509,5.498706,-0.725707,0.458148,3.103194
2026-01-18T19:56:23.693323,4.661218,-13.820943,6.015556,0.801455,0.398284,2.572963
2026-01-18T19:56:23.703323,4.622933,-11.212766,6.891329,1.877799,0.459370,2.087936
2026-01-18T19:56:23.712323,4.134797,-8.154739,7.537391,2.078163,0.494800,1.736078
2026-01-18T19:56:23.722323,3.718446,-5.828915,8.743373,1.510058,0.442266,1.477071
2026-01-18T19:56:23.731323,3.728017,-4.627718,9.791430,0.508239,0.323758,1.297477
2026-01-18T19:56:23.741323,4.067798,-4.747360,9.178867,-0.690277,0.246789,1.235169
2026-01-18T19:56:23.751323,4.546362,-7.283751,7.915457,-1.894903,0.290771,1.236390
2026-01-18T19:56:23.760323,4.756931,-11.332407,6.594619,-2.591289,0.442266,1.158200
2026-01-18T19:56:23.770323,4.469792,-15.151352,5.670989,-2.466673,0.634077,1.010370
2026-01-18T19:56:23.780323,3.517449,-17.749958,5.225924,-1.670105,0.767246,0.735481
2026-01-18T19:56:23.789323,2.206182,-18.573090,5.737988,-0.370184,0.791681,0.335975
2026-01-18T19:56:23.799323,0.870987,-16.917255,6.321837,1.136209,0.690277,-0.135612
2026-01-18T19:56:23.808323,-0.047856,-13.395020,6.939185,2.254092,0.460592,-0.610865
2026-01-18T19:56:23.818323,-0.057427,-10.021141,7.652246,2.575407,0.144164,-1.039692
2026-01-18T19:56:23.828323,0.703489,-7.781459,8.408378,2.064724,-0.212581,-1.362229
2026-01-18T19:56:23.837323,2.230110,-6.920042,9.915856,0.998153,-0.609643,-1.583362
2026-01-18T19:56:23.847323,4.608576,-7.274180,9.743573,-0.200363,-0.941954,-1.740965
2026-01-18T19:56:23.856323,6.896114,-8.451449,7.915457,-1.277929,-1.020144,-1.883908
2026-01-18T19:56:23.866323,8.279166,-10.442277,6.154339,-1.988976,-0.823446,-2.100154
2026-01-18T19:56:23.876323,8.451449,-12.069397,5.484349,-2.065945,-0.483805,-2.370156
2026-01-18T19:56:23.885323,7.604390,-12.815957,5.493920,-1.615127,-0.157603,-2.700023
2026-01-18T19:56:23.895323,6.049055,-13.174881,5.771488,-1.133765,0.000000,-2.987130
2026-01-18T19:56:23.905323,4.766502,-13.557732,6.364908,-0.810007,-0.140498,-3.153285
2026-01-18T19:56:23.914323,4.144368,-13.457234,6.321837,-0.387288,-0.518013,-3.365866
2026-01-18T19:56:23.924323,4.661218,-12.964312,6.896114,-0.200363,-1.048244,-3.486818
2026-01-18T19:56:23.933323,6.226124,-12.394821,6.943971,-0.144164,-1.569923,-3.544239
2026-01-18T19:56:23.943323,8.130811,-10.992627,5.967699,0.043982,-1.832595,-3.624873
2026-01-18T19:56:23.953323,9.485148,-8.700302,5.039284,0.180816,-1.737300,-3.714059
2026-01-18T19:56:23.962323,9.815358,-6.551548,4.469792,0.037873,-1.403768,-3.740937
2026-01-18T19:56:23.972323,9.202795,-5.087140,3.771088,-0.346971,-1.029918,-3.750711
2026-01-18T19:56:23.981323,7.963313,-4.488935,3.598805,-0.891863,-0.792902,-3.787363
2026-01-18T19:56:23.991323,6.833901,-5.058426,3.627519,-1.446528,-0.811228,-3.847228
2026-01-18T19:56:24.001323,6.202196,-6.364908,3.479164,-1.770287,-1.062905,-3.943745
2026-01-18T19:56:24.010323,6.580262,-7.872386,3.450450,-1.847256,-1.461189,-4.043927
2026-01-18T19:56:24.020323,7.915457,-8.939585,4.287938,-1.688431,-1.964542,-4.106235
2026-01-18T19:56:24.030323,10.183852,-8.681160,4.996213,-1.265712,-2.397034,-4.186869
2026-01-18T19:56:24.039323,12.538390,-7.403393,4.570291,-0.871093,-2.471560,-4.206417
2026-01-18T19:56:24.049323,14.002797,-6.120840,3.646661,-0.761137,-2.119701,-4.134335
2026-01-18T19:56:24.058323,14.151152,-5.259424,3.359522,-0.962723,-1.555262,-3.970623
2026-01-18T19:56:24.068323,13.045668,-5.029713,3.005385,-1.412320,-1.015257,-3.772702
2026-01-18T19:56:24.078323,11.231909,-5.623133,2.287538,-1.826486,-0.641408,-3.635869
2026-01-18T19:56:24.087323,9.370293,-6.273980,2.234896,-1.976759,-0.564439,-3.604104
2026-01-18T19:56:24.097323,8.059026,-6.288337,1.622333,-1.850921,-0.801455,-3.668855
2026-01-18T19:56:24.106323,7.575676,-5.766702,0.311066,-1.506393,-1.199739,-3.770259
2026-01-18T19:56:24.116323,7.939385,-4.622933,-0.535992,-1.073900,-1.606575,-3.908314
2026-01-18T19:56:24.126323,8.910871,-3.589233,-0.334995,-0.799011,-1.987755,-3.965736
2026-01-18T19:56:24.135323,10.624132,-3.043670,0.488135,-0.675616,-2.262644,-4.010940
2026-01-18T19:56:24.145323,12.524033,-2.813959,1.751546,-0.641408,-2.334726,-4.050035
2026-01-18T19:56:24.155323,14.510076,-3.206382,3.038884,-0.728151,-2.179566,-4.046370
2026-01-18T19:56:24.164323,15.821343,-4.369294,3.115455,-0.816115,-1.846034,-3.947410
2026-01-18T19:56:24.174323,16.027124,-5.685346,2.545963,-0.637743,-1.334129,-3.833789
2026-01-18T19:56:24.183323,14.792429,-6.235695,2.268395,-0.233350,-0.805120,-3.751933
2026-01-18T19:56:24.193323,12.815957,-5.742774,1.617548,0.226020,-0.494800,-3.674964
2026-01-18T19:56:24.203323,10.748559,-4.374079,0.914058,0.593760,-0.489913,-3.586999
2026-01-18T19:56:24.212323,9.260223,-2.641676,0.866201,0.695164,-0.742811,-3.452609
2026-01-18T19:56:24.222323,8.662017,-1.426122,0.363709,0.526565,-1.154535,-3.285232
2026-01-18T19:56:24.231323,9.083154,-0.842273,0.177068,0.227241,-1.596801,-3.073873
2026-01-18T19:56:24.241323,10.332207,-0.746560,0.607776,-0.089186,-1.924225,-2.878396
2026-01-18T19:56:24.251323,11.681759,-0.923629,0.641276,-0.343306,-1.981646,-2.692693
2026-01-18T19:56:24.260323,12.457034,-1.205982,0.684347,-0.537561,-1.733635,-2.536311
2026-01-18T19:56:24.270323,12.452248,-1.593619,1.110269,-0.735481,-1.319468,-2.370156
2026-01-18T19:56:24.280323,11.653046,-1.818545,1.182054,-0.863763,-0.882089,-2.194227
2026-01-18T19:56:24.289323,10.322636,-1.718046,1.263410,-0.929736,-0.515570,-2.009746
2026-01-18T19:56:24.299323,8.752945,-1.220339,1.584048,-1.017701,-0.262671,-1.838703
2026-01-18T19:56:24.308323,7.264609,-0.713061,1.741974,-1.191186,-0.122173,-1.645670
2026-01-18T19:56:24.318323,5.982056,-0.110069,1.785045,-1.431867,-0.062308,-1.457524
2026-01-18T19:56:24.328323,5.015356,-0.004785,1.392622,-1.781282,-0.072082,-1.244943
2026-01-18T19:56:24.337323,4.273581,-0.526420,0.789631,-2.122145,-0.122173,-1.039692
2026-01-18T19:56:24.347323,3.780659,-1.368694,0.373280,-2.279748,-0.188146,-0.879645
2026-01-18T19:56:24.356323,3.469592,-2.206182,0.253639,-2.224770,-0.273667,-0.763581
2026-01-18T19:56:24.366323,3.349951,-2.718246,0.181854,-1.980424,-0.362853,-0.687834
2026-01-18T19:56:24.376323,3.225524,-2.866601,0.210568,-1.595579,-0.438601,-0.643851
2026-01-18T19:56:24.385323,3.177668,-2.584248,0.253639,-1.165530,-0.498465,-0.621860
2026-01-18T19:56:24.395323,3.196810,-2.100898,0.277567,-0.790459,-0.544891,-0.599869
2026-01-18T19:56:24.405323,3.302095,-1.842473,0.296710,-0.467922,-0.586430,-0.579100
2026-01-18T19:56:24.414323,3.464807,-1.698904,0.445065,-0.182037,-0.616973,-0.566882
2026-01-18T19:56:24.424323,3.689732,-1.550549,0.703489,0.091629,-0.643851,-0.558330
2026-01-18T19:56:24.433323,4.024727,-1.392622,0.842273,0.360410,-0.676838,-0.568104
2026-01-18T19:56:24.443323,4.551148,-1.272981,0.866201,0.597426,-0.703716,-0.587652
2026-01-18T19:56:24.453323,5.139782,-1.100698,0.789631,0.801455,-0.711046,-0.581543
2026-01-18T19:56:24.462323,5.647061,-0.732203,0.736989,0.970053,-0.678060,-0.564439
2026-01-18T19:56:24.472323,6.111268,-0.239282,0.612562,1.086118,-0.599869,-0.543669
2026-01-18T19:56:24.481323,6.369693,0.473778,0.646062,1.112996,-0.500909,-0.513126
2026-01-18T19:56:24.491323,6.527620,1.119840,0.655633,1.026253,-0.408057,-0.459370
2026-01-18T19:56:24.501323,6.642475,1.579262,0.689132,0.829554,-0.360410,-0.401949
2026-01-18T19:56:24.510323,6.915257,1.856830,0.622133,0.540004,-0.367740,-0.338419
2026-01-18T19:56:24.520323,7.345965,1.919043,0.598205,0.163711,-0.417831,-0.256563
2026-01-18T19:56:24.530323,7.891528,1.737189,0.435493,-0.241902,-0.466700,-0.171042
2026-01-18T19:56:24.539323,8.422735,1.464407,0.741775,-0.615752,-0.482583,-0.097738
2026-01-18T19:56:24.549323,8.953942,0.985842,1.234696,-0.935845,-0.456927,-0.032986
2026-01-18T19:56:24.558323,9.370293,0.291924,1.349551,-1.161865,-0.389731,0.019547
2026-01-18T19:56:24.568323,9.566504,-0.579063,1.622333,-1.271821,-0.285884,0.062308
2026-01-18T19:56:24.578323,9.590432,-1.325623,1.698904,-1.237612,-0.177150,0.094073
2026-01-18T19:56:24.587323,9.437292,-2.287538,1.866401,-1.048244,-0.072082,0.127059
2026-01-18T19:56:24.597323,9.169296,-3.177668,2.081755,-0.725707,0.012217,0.160046
2026-01-18T19:56:24.606323,8.944370,-3.885943,1.981257,-0.261450,0.087964,0.208915
2026-01-18T19:56:24.616323,8.575876,-3.962514,2.297109,0.316428,0.167377,0.257785
2026-01-18T19:56:24.626323,8.226524,-3.278166,2.311466,0.882089,0.251676,0.313984
2026-01-18T19:56:24.635323,7.948956,-2.019542,2.124826,1.265712,0.353080,0.412944
2026-01-18T19:56:24.645323,7.417750,-0.784845,1.933400,1.397659,0.483805,0.535117
2026-01-18T19:56:24.655323,6.795616,0.224925,1.813759,1.296255,0.627969,0.685390
2026-01-18T19:56:24.664323,6.034698,0.937986,2.191825,1.040914,0.750142,0.822224
2026-01-18T19:56:24.674323,5.312066,1.033699,2.268395,0.682947,0.791681,0.994488
2026-01-18T19:56:24.683323,4.943571,0.512064,1.966900,0.331088,0.758694,1.169195
2026-01-18T19:56:24.693323,4.800002,-0.416351,1.813759,0.135612,0.670729,1.330464
2026-01-18T19:56:24.703323,5.235495,-1.282552,1.837687,0.125838,0.518013,1.494176
2026-01-18T19:56:24.712323,6.187839,-1.909472,1.531406,0.234572,0.375071,1.655444
2026-01-18T19:56:24.722323,7.259823,-2.033899,1.110269,0.416610,0.340862,1.814269
2026-01-18T19:56:24.731323,8.102097,-1.856830,1.091127,0.546113,0.437379,1.973094
2026-01-18T19:56:24.741323,8.700302,-1.612762,1.167697,0.558330,0.627969,2.157575
2026-01-18T19:56:24.751323,8.676374,-1.469193,1.210768,0.548556,0.862541,2.301739
2026-01-18T19:56:24.760323,8.269594,-1.167697,1.330409,0.530230,1.103222,2.414138
2026-01-18T19:56:24.770323,7.666603,-1.205982,0.966700,0.475253,1.284038,2.520429
2026-01-18T19:56:24.780323,6.991827,-1.698904,0.607776,0.452040,1.369559,2.615724
2026-01-18T19:56:24.789323,6.642475,-2.249253,0.224925,0.499687,1.346346,2.717128
2026-01-18T19:56:24.799323,6.503691,-2.756531,0.071784,0.597426,1.292590,2.812422
2026-01-18T19:56:24.808323,6.608976,-2.991028,0.028713,0.711046,1.254716,2.935817
2026-01-18T19:56:24.818323,6.766902,-2.900100,0.401994,0.726929,1.188743,3.104416
2026-01-18T19:56:24.828323,7.235895,-2.952743,0.497707,0.527787,1.102000,3.331658
2026-01-18T19:56:24.837323,7.728816,-3.268595,0.416351,0.277332,1.051909,3.556456
2026-01-18T19:56:24.847323,8.039883,-3.483949,0.220139,0.064751,1.053131,3.728720
2026-01-18T19:56:24.856323,8.193024,-3.909872,0.234496,-0.072082,1.054353,3.825237
2026-01-18T19:56:24.866323,8.422735,-4.584648,0.545563,-0.067195,1.007927,3.857002
2026-01-18T19:56:24.876323,8.695517,-5.268995,1.081555,0.089186,0.956614,3.828902
2026-01-18T19:56:24.885323,9.083154,-5.982056,0.660419,0.421496,0.956614,3.748268
2026-01-18T19:56:24.895323,9.494720,-6.551548,0.224925,0.841772,1.054353,3.684738
2026-01-18T19:56:24.905323,9.509077,-6.733402,-0.550349,1.361007,1.149648,3.649308
2026-01-18T19:56:24.914323,9.327222,-6.092126,-1.220339,1.886351,1.253495,3.648086
2026-01-18T19:56:24.924323,8.958727,-4.771288,-1.014556,2.190562,1.329242,3.700620
2026-01-18T19:56:24.933323,8.542376,-3.306880,-0.406779,2.134362,1.308473,3.824015
2026-01-18T19:56:24.943323,8.374879,-2.254038,0.244067,1.700648,1.166752,3.973066
2026-01-18T19:56:24.953323,8.547162,-2.191825,0.775274,1.077566,0.945619,4.086687
2026-01-18T19:56:24.962323,9.006584,-3.158525,1.402194,0.454483,0.707381,4.136778
2026-01-18T19:56:24.972323,9.513862,-4.804787,1.713260,0.030543,0.496022,4.105013
2026-01-18T19:56:24.981323,10.140782,-6.728617,1.990828,-0.014660,0.370184,3.977953
2026-01-18T19:56:24.991323,10.705488,-8.231309,2.196611,0.322536,0.356745,3.804467
2026-01-18T19:56:25.001323,10.973484,-9.116654,2.153540,0.941954,0.475253,3.602882
2026-01-18T19:56:25.010323,10.844272,-8.930013,2.124826,1.598023,0.626747,3.480709
2026-01-18T19:56:25.020323,10.662417,-8.030312,2.019542,1.991420,0.711046,3.508809
2026-01-18T19:56:25.030323,10.384850,-6.920042,2.297109,2.015854,0.740368,3.584556
2026-01-18T19:56:25.039323,10.188638,-5.910271,3.120240,1.720196,0.748920,3.688403
2026-01-18T19:56:25.049323,9.939785,-5.407779,3.507877,1.275486,0.780685,3.775146
2026-01-18T19:56:25.058323,9.600004,-5.848058,3.914657,0.784350,0.872315,3.813020
2026-01-18T19:56:25.068323,9.068797,-7.503891,4.206582,0.361632,0.976162,3.836232
2026-01-18T19:56:25.078323,8.743373,-9.657432,4.273581,0.169820,1.009149,3.842341
2026-01-18T19:56:25.087323,8.551947,-11.542976,4.125226,0.333532,0.957836,3.805689
2026-01-18T19:56:25.097323,8.623732,-12.461820,3.747160,0.752585,0.867428,3.759263
2026-01-18T19:56:25.106323,8.705088,-12.088539,3.259024,1.365894,0.816115,3.645642
2026-01-18T19:56:25.116323,8.796015,-10.667203,3.268595,1.832595,0.799011,3.540574
2026-01-18T19:56:25.126323,8.772087,-9.097511,3.249453,1.896125,0.792902,3.502700
2026-01-18T19:56:25.135323,8.757730,-8.106882,3.574876,1.624901,0.827111,3.469713
2026-01-18T19:56:25.145323,8.604590,-8.020741,4.560719,1.000597,0.885754,3.483152
2026-01-18T19:56:25.155323,8.379664,-8.987441,4.809573,0.400727,0.956614,3.461161
2026-01-18T19:56:25.164323,8.039883,-10.384850,4.785645,0.131946,1.064127,3.310888
2026-01-18T19:56:25.174323,7.508677,-11.815757,5.541777,0.069638,1.126435,3.127629
2026-01-18T19:56:25.183323,6.872186,-12.801600,5.982056,0.377514,1.167974,2.852740
2026-01-18T19:56:25.193323,6.087340,-12.629317,6.422335,0.860098,1.219286,2.574185
2026-01-18T19:56:25.203323,5.154139,-11.911470,6.350551,1.181413,1.244943,2.301739
2026-01-18T19:56:25.212323,4.211367,-10.959127,6.699903,1.281595,1.196073,2.069610
2026-01-18T19:56:25.222323,3.474378,-9.623932,7.121040,1.290147,1.050687,1.805717
2026-01-18T19:56:25.231323,3.067598,-8.264809,6.790830,1.141096,0.855211,1.543045
2026-01-18T19:56:25.241323,2.742174,-7.039684,6.293123,0.884532,0.682947,1.264490
2026-01-18T19:56:25.251323,2.478964,-6.321837,6.173482,0.532674,0.572991,0.962723
2026-01-18T19:56:25.260323,2.086541,-6.565905,6.264409,0.089186,0.508239,0.669508
2026-01-18T19:56:25.270323,1.837687,-7.733602,6.139982,-0.232128,0.492357,0.337197
2026-01-18T19:56:25.280323,1.397408,-9.078368,7.068397,-0.222354,0.542448,-0.140498
2026-01-18T19:56:25.289323,0.813559,-10.480562,7.613961,0.046425,0.522900,-0.625525
2026-01-18T19:56:25.299323,0.425922,-11.160124,7.676174,0.403170,0.354301,-1.037248
2026-01-18T19:56:25.308323,0.564706,-11.413763,7.905885,0.675616,0.035430,-1.459967
2026-01-18T19:56:25.318323,1.526620,-11.069197,8.178667,0.750142,-0.373849,-1.825264
2026-01-18T19:56:25.328323,2.890529,-9.968498,7.891528,0.770911,-0.723264,-2.214996
2026-01-18T19:56:25.337323,4.182653,-8.298308,6.685546,0.609643,-0.928514,-2.553416
2026-01-18T19:56:25.347323,4.957928,-6.680760,5.469992,0.213802,-0.987158,-2.882061
2026-01-18T19:56:25.356323,5.245067,-5.599204,4.551148,-0.357966,-0.985936,-3.198489
2026-01-18T19:56:25.366323,5.379065,-5.632704,4.465006,-1.137430,-1.033583,-3.459939
2026-01-18T19:56:25.376323,5.737988,-7.216752,4.398007,-2.031737,-1.198517,-3.616321
2026-01-18T19:56:25.385323,6.661618,-9.915856,4.311866,-2.751336,-1.470963,-3.721390
2026-01-18T19:56:25.395323,8.145168,-13.016954,5.024927,-3.141068,-1.808160,-3.843563
2026-01-18T19:56:25.405323,10.226923,-15.696916,5.469992,-2.988352,-2.117258,-3.996279
2026-01-18T19:56:25.414323,12.346964,-16.333406,5.498706,-2.096489,-2.139249,-4.238182
2026-01-18T19:56:25.424323,13.337593,-14.495719,4.646861,-0.954171,-1.799608,-4.406780
2026-01-18T19:56:25.433323,12.897313,-11.437692,3.704089,-0.215024,-1.281595,-4.461758
2026-01-18T19:56:25.443323,11.341979,-8.451449,3.766302,0.097738,-0.858876,-4.568049
2026-01-18T19:56:25.453323,9.595218,-6.283552,4.086941,0.008552,-0.729372,-4.678005
2026-01-18T19:56:25.462323,8.341379,-5.297709,3.354737,-0.486248,-0.928514,-4.662122
2026-01-18T19:56:25.472323,7.915457,-5.666203,2.043470,-1.111774,-1.351233,-4.592483
2026-01-18T19:56:25.481323,8.714659,-7.604390,1.167697,-1.819156,-1.870468,-4.513071
2026-01-18T19:56:25.491323,10.729416,-11.140982,0.454636,-2.552194,-2.395812,-4.321259
2026-01-18T19:56:25.501323,13.442877,-14.026726,0.966700,-2.497216,-2.769662,-4.359133
2026-01-18T19:56:25.510323,16.151552,-14.184652,2.282752,-1.535714,-2.750114,-4.532619
2026-01-18T19:56:25.520323,17.659031,-12.050254,2.785245,-0.481361,-2.244318,-4.536284
2026-01-18T19:56:25.530323,17.280964,-9.217152,2.986242,0.085521,-1.463632,-4.426328
2026-01-18T19:56:25.539323,15.457633,-6.857829,3.225524,-0.052534,-0.827111,-4.189312
2026-01-18T19:56:25.549323,13.088739,-5.977270,3.172882,-0.605978,-0.548556,-3.943745
2026-01-18T19:56:25.558323,10.978270,-5.876772,3.402593,-0.983492,-0.594982,-3.828902
2026-01-18T19:56:25.568323,9.432506,-5.393422,2.761317,-1.072679,-0.849102,-3.791028
2026-01-18T19:56:25.578323,8.595018,-4.613361,0.516849,-0.976162,-1.198517,-3.846006
2026-01-18T19:56:25.587323,8.403592,-3.603590,-0.899701,-0.775798,-1.551597,-3.970623
2026-01-18T19:56:25.597323,9.011369,-3.129811,-0.665204,-0.673173,-1.925446,-4.034153
2026-01-18T19:56:25.606323,10.461420,-3.474378,-0.186640,-0.658512,-2.256535,-4.067139
2026-01-18T19:56:25.616323,12.624532,-4.130011,1.861615,-0.609643,-2.432464,-4.085465
2026-01-18T19:56:25.626323,14.883356,-4.747360,3.316452,-0.653625,-2.375043,-3.931527
2026-01-18T19:56:25.635323,16.433905,-5.417350,2.837887,-0.693942,-2.028072,-3.671299
2026-01-18T19:56:25.645323,16.682758,-5.733202,2.316252,-0.601091,-1.473406,-3.429396
2026-01-18T19:56:25.655323,15.342778,-5.426921,2.464607,-0.449596,-0.884532,-3.208263
2026-01-18T19:56:25.664323,13.337593,-4.771288,2.483749,-0.312762,-0.518013,-3.020117
2026-01-18T19:56:25.674323,11.619546,-3.775874,2.421536,-0.221133,-0.483805,-2.853961
2026-01-18T19:56:25.683323,10.581061,-2.703889,1.536192,-0.273667,-0.662177,-2.671923
2026-01-18T19:56:25.693323,10.222138,-1.947757,0.454636,-0.441044,-0.878424,-2.503325
2026-01-18T19:56:25.703323,10.327422,-1.363908,-0.090927,-0.660956,-1.004262,-2.355495
2026-01-18T19:56:25.712323,10.595418,-1.000199,-0.033499,-0.921184,-0.995710,-2.211331
2026-01-18T19:56:25.722323,10.566704,-1.067198,-0.066999,-1.207069,-0.866206,-2.052506
2026-01-18T19:56:25.731323,10.188638,-1.301695,0.038285,-1.419650,-0.668286,-1.919338
2026-01-18T19:56:25.741323,9.542576,-1.421336,0.301495,-1.523497,-0.481361,-1.809382
2026-01-18T19:56:25.751323,8.815158,-1.459621,0.574277,-1.576031,-0.382401,-1.710422
2026-01-18T19:56:25.760323,8.307880,-1.320838,0.574277,-1.551597,-0.370184,-1.632231
2026-01-18T19:56:25.770323,7.910671,-1.110269,0.593420,-1.478293,-0.393397,-1.572366
2026-01-18T19:56:25.780323,7.623532,-0.593420,0.411565,-1.424537,-0.403170,-1.534493
2026-01-18T19:56:25.789323,7.192824,-0.291924,0.196211,-1.418428,-0.373849,-1.500284
2026-01-18T19:56:25.799323,6.714260,-0.143569,0.325423,-1.461189,-0.322536,-1.450193
2026-01-18T19:56:25.808323,6.230910,-0.306281,0.521635,-1.539380,-0.283441,-1.353677
2026-01-18T19:56:25.818323,5.761916,-0.827916,0.660419,-1.580918,-0.259006,-1.231504
2026-01-18T19:56:25.828323,5.331208,-1.464407,0.655633,-1.538158,-0.229685,-1.100778
2026-01-18T19:56:25.837323,4.867001,-1.957328,1.028913,-1.376889,-0.160046,-0.999375
2026-01-18T19:56:25.847323,4.421936,-2.277967,1.225125,-1.116661,-0.057421,-0.904080
2026-01-18T19:56:25.856323,3.718446,-2.321037,1.177268,-0.784350,0.039095,-0.818559
2026-01-18T19:56:25.866323,2.871387,-1.866401,1.172483,-0.408057,0.095294,-0.772133
2026-01-18T19:56:25.876323,2.254038,-1.119840,1.033699,-0.131946,0.062308,-0.713490
2026-01-18T19:56:25.885323,1.899901,-0.392422,0.933200,-0.018325,-0.054977,-0.637743
2026-01-18T19:56:25.895323,1.856830,0.138783,1.138983,-0.036651,-0.191811,-0.563217
2026-01-18T19:56:25.905323,1.966900,0.200997,1.014556,-0.168598,-0.295658,-0.472809
2026-01-18T19:56:25.914323,2.239681,-0.081355,0.669990,-0.317649,-0.368962,-0.390953
2026-01-18T19:56:25.924323,2.622533,-0.655633,0.736989,-0.423940,-0.412944,-0.313984
2026-01-18T19:56:25.933323,3.029313,-1.483550,1.014556,-0.421496,-0.444709,-0.255341
2026-01-18T19:56:25.943323,3.603590,-2.163111,1.201196,-0.271224,-0.463035,-0.195476
2026-01-18T19:56:25.953323,4.163511,-2.388036,1.574477,-0.020769,-0.464257,-0.150272
2026-01-18T19:56:25.962323,4.780859,-2.258824,1.674975,0.235793,-0.436157,-0.109955
2026-01-18T19:56:25.972323,5.426921,-1.813759,1.478764,0.442266,-0.383623,-0.076969
2026-01-18T19:56:25.981323,6.087340,-1.110269,1.158126,0.547335,-0.351858,-0.042760
2026-01-18T19:56:25.991323,6.886543,-0.559920,0.923629,0.500909,-0.365297,-0.009773
2026-01-18T19:56:26.001323,7.719245,-0.157926,0.751346,0.327423,-0.408057,0.009773
2026-01-18T19:56:26.010323,8.748159,-0.066999,0.421136,0.095294,-0.455705,0.009773
2026-01-18T19:56:26.020323,9.786644,-0.502492,0.449850,-0.142942,-0.486248,-0.009773
2026-01-18T19:56:26.030323,10.834700,-1.167697,0.430708,-0.317649,-0.475253,-0.024434
2026-01-18T19:56:26.039323,11.657831,-1.832902,0.512064,-0.362853,-0.361632,-0.026878
2026-01-18T19:56:26.049323,11.992826,-2.464607,1.004985,-0.315206,-0.124616,-0.015882
2026-01-18T19:56:26.058323,11.667402,-2.756531,1.507478,-0.208915,0.191811,0.040317
2026-01-18T19:56:26.068323,10.724630,-2.670390,1.871187,-0.094073,0.516791,0.128281
2026-01-18T19:56:26.078323,9.279366,-2.411965,2.249253,-0.042760,0.736703,0.273667
2026-01-18T19:56:26.087323,7.786244,-2.282752,2.143969,-0.015882,0.792902,0.455705
2026-01-18T19:56:26.097323,6.652046,-2.134397,2.383251,0.029321,0.715933,0.656069
2026-01-18T19:56:26.106323,5.891129,-2.139183,2.378465,0.101403,0.576656,0.842993
2026-01-18T19:56:26.116323,5.637490,-2.239681,2.249253,0.227241,0.445931,1.001818
2026-01-18T19:56:26.126323,5.637490,-2.277967,2.076970,0.392175,0.366519,1.120326
2026-01-18T19:56:26.135323,5.809773,-2.158325,1.938186,0.546113,0.342084,1.224173
2026-01-18T19:56:26.145323,6.020341,-1.971685,1.914258,0.673173,0.361632,1.308473
2026-01-18T19:56:26.155323,6.197410,-1.689332,1.799402,0.755029,0.421496,1.404989
2026-01-18T19:56:26.164323,6.202196,-1.373480,1.923829,0.791681,0.508239,1.489289
2026-01-18T19:56:26.174323,6.106483,-1.110269,2.153540,0.756251,0.597426,1.584584
2026-01-18T19:56:26.183323,6.015556,-1.119840,2.330609,0.667064,0.660956,1.679879
2026-01-18T19:56:26.193323,5.962913,-1.493121,1.971685,0.601091,0.686612,1.784947
2026-01-18T19:56:26.203323,6.120840,-2.019542,1.622333,0.594982,0.685390,1.877799
2026-01-18T19:56:26.212323,6.250052,-2.550748,1.483550,0.689055,0.706160,1.951103
2026-01-18T19:56:26.222323,6.479763,-2.837887,1.129412,0.863763,0.757472,2.013411
2026-01-18T19:56:26.231323,6.580262,-2.651247,0.291924,0.977384,0.807563,2.116036
2026-01-18T19:56:26.241323,6.608976,-2.397608,-0.066999,0.987158,0.840550,2.243096
2026-01-18T19:56:26.251323,6.580262,-2.321037,0.023928,0.929736,0.872315,2.384817
2026-01-18T19:56:26.260323,6.551548,-2.488535,-0.047856,0.833220,0.907745,2.536311
2026-01-18T19:56:26.270323,6.484549,-3.081955,0.076570,0.817337,0.949284,2.632828
2026-01-18T19:56:26.280323,6.321837,-3.493520,0.406779,0.937067,0.963945,2.692693
2026-01-18T19:56:26.289323,6.350551,-3.416950,0.626919,1.159421,0.923628,2.747671
2026-01-18T19:56:26.299323,6.628118,-2.756531,0.732203,1.412320,0.849102,2.795318
2026-01-18T19:56:26.308323,7.020541,-1.579262,1.024128,1.530827,0.780685,2.842966
2026-01-18T19:56:26.318323,7.451249,-0.588634,0.837487,1.340238,0.752585,2.952921
2026-01-18T19:56:26.328323,7.814958,-0.258424,0.363709,0.908967,0.759916,3.078760
2026-01-18T19:56:26.337323,7.968099,-0.531206,-0.023928,0.376292,0.761137,3.210707
2026-01-18T19:56:26.347323,7.977670,-1.531406,-0.449850,-0.096516,0.720820,3.340210
2026-01-18T19:56:26.356323,8.216952,-2.962314,-0.200997,-0.430049,0.619417,3.456274
2026-01-18T19:56:26.366323,8.662017,-4.962714,0.071784,-0.605978,0.458148,3.561343
2026-01-18T19:56:26.376323,9.499505,-7.015755,0.086141,-0.594982,0.287106,3.663968
2026-01-18T19:56:26.385323,10.604989,-8.738588,0.483350,-0.329867,0.184481,3.733607
2026-01-18T19:56:26.395323,11.533404,-9.791430,0.464207,0.213802,0.177150,3.776368
2026-01-18T19:56:26.405323,12.131610,-9.690931,0.148355,0.869871,0.299323,3.828902
2026-01-18T19:56:26.414323,12.107682,-8.575876,0.110069,1.492954,0.519235,3.880215
2026-01-18T19:56:26.424323,11.566904,-6.728617,0.263210,1.912007,0.735481,3.935193
2026-01-18T19:56:26.433323,10.705488,-4.943571,0.971485,2.028072,0.840550,3.996279
2026-01-18T19:56:26.443323,10.164710,-3.527020,1.627119,1.848477,0.773355,4.119674
2026-01-18T19:56:26.453323,10.231709,-3.158525,1.823330,1.309694,0.572991,4.329811
2026-01-18T19:56:26.462323,11.083554,-4.460221,1.210768,0.620638,0.348193,4.539949
2026-01-18T19:56:26.472323,12.078968,-6.853043,1.009771,0.040317,0.290771,4.695108
2026-01-18T19:56:26.481323,12.739387,-9.494720,0.708275,-0.140498,0.359188,4.779408
2026-01-18T19:56:26.491323,12.868599,-11.600403,0.727418,0.267558,0.586430,4.730539
2026-01-18T19:56:26.501323,12.136396,-12.150753,1.081555,1.115439,0.911410,4.607144
2026-01-18T19:56:26.510323,10.868200,-11.050054,1.488335,2.037846,1.215621,4.487415
2026-01-18T19:56:26.520323,9.121439,-9.001798,2.000399,2.621833,1.342681,4.393341
2026-01-18T19:56:26.530323,7.805387,-6.752545,2.574677,2.692693,1.230282,4.345694
2026-01-18T19:56:26.539323,7.087540,-5.130211,3.058027,2.243096,0.919962,4.370129
2026-01-18T19:56:26.549323,7.178467,-4.570291,3.598805,1.507615,0.543669,4.418998
2026-01-18T19:56:26.558323,8.063812,-5.063212,3.876372,0.775798,0.256563,4.403115
2026-01-18T19:56:26.568323,9.102297,-6.594619,3.349951,0.288328,0.207694,4.298046
2026-01-18T19:56:26.578323,9.695717,-8.628518,2.885744,0.200363,0.434935,4.112343
2026-01-18T19:56:26.587323,9.274580,-10.743773,2.402393,0.340862,0.752585,3.996279
2026-01-18T19:56:26.597323,8.303094,-11.997612,2.043470,0.828333,1.047022,3.877771
2026-01-18T19:56:26.606323,6.647261,-11.772687,1.899901,1.419650,1.254716,3.747046
2026-01-18T19:56:26.616323,4.723431,-10.849057,2.526820,1.780060,1.253495,3.634647
2026-01-18T19:56:26.626323,3.220739,-9.360722,3.512663,1.988976,1.039692,3.472157
2026-01-18T19:56:26.635323,2.469392,-8.001598,4.914857,1.825264,0.671951,3.314554
2026-01-18T19:56:26.645323,2.732603,-7.197610,5.900700,1.323133,0.273667,3.183828
2026-01-18T19:56:26.655323,3.641875,-7.025327,6.235695,0.726929,-0.003665,3.066542
2026-01-18T19:56:26.664323,4.800002,-7.417750,6.254838,0.113620,-0.072082,2.926043
2026-01-18T19:56:26.674323,5.575276,-8.719445,5.517848,-0.411723,0.062308,2.805092
2026-01-18T19:56:26.683323,5.594419,-10.504491,4.780859,-0.564439,0.386066,2.602285
2026-01-18T19:56:26.693323,4.737788,-11.782258,4.488935,-0.394618,0.756251,2.381152
2026-01-18T19:56:26.703323,3.148954,-12.715459,4.733003,0.059864,1.016479,2.144136
2026-01-18T19:56:26.712323,1.272981,-12.418749,5.560919,0.747698,1.091005,1.855808
2026-01-18T19:56:26.722323,-0.248853,-11.193624,6.355336,1.302364,0.921184,1.573588
2026-01-18T19:56:26.731323,-1.076770,-9.595218,6.800401,1.642005,0.581543,1.225395
2026-01-18T19:56:26.741323,-0.909272,-8.059026,7.436892,1.784947,0.195476,0.775798
2026-01-18T19:56:26.751323,0.000000,-6.833901,7.666603,1.611462,-0.109955,0.344527
2026-01-18T19:56:26.760323,0.918843,-6.139982,7.479963,1.247386,-0.204028,-0.085521
2026-01-18T19:56:26.770323,1.593619,-6.005984,7.159325,0.714712,-0.102625,-0.527787
2026-01-18T19:56:26.780323,1.746760,-6.690331,6.623332,0.080634,0.048869,-0.950506
2026-01-18T19:56:26.789323,1.694118,-8.331808,6.431907,-0.526565,0.107512,-1.330464
2026-01-18T19:56:26.799323,1.689332,-10.600204,6.795616,-1.102000,0.003665,-1.618792
2026-01-18T19:56:26.808323,2.153540,-12.686745,6.867400,-1.263269,-0.156381,-1.954768
2026-01-18T19:56:26.818323,2.746960,-13.442877,6.943971,-0.896749,-0.280997,-2.408030
2026-01-18T19:56:26.828323,3.421736,-13.040883,6.446264,-0.378736,-0.387288,-2.856405
2026-01-18T19:56:26.837323,4.168296,-12.246466,5.766702,0.001221,-0.466700,-3.210707
2026-01-18T19:56:26.847323,4.838287,-11.633903,5.254638,0.036651,-0.533896,-3.461161
2026-01-18T19:56:26.856323,5.465206,-11.691331,5.000999,-0.240680,-0.610865,-3.618764
2026-01-18T19:56:26.866323,6.005984,-12.265608,4.713860,-0.570548,-0.679282,-3.765372
2026-01-18T19:56:26.876323,6.427121,-12.978669,5.120640,-0.839328,-0.728151,-3.914423
2026-01-18T19:56:26.885323,6.709474,-12.811172,5.493920,-0.833220,-0.766024,-4.062252
2026-01-18T19:56:26.895323,6.733402,-11.734402,5.651846,-0.660956,-0.839328,-4.212525
2026-01-18T19:56:26.905323,6.838686,-10.088140,5.570491,-0.508239,-0.954171,-4.370129
2026-01-18T19:56:26.914323,6.843472,-8.221738,5.063212,-0.366519,-1.065348,-4.546058
2026-01-18T19:56:26.924323,7.168896,-6.675975,4.718646,-0.529009,-1.221730,-4.651126
2026-01-18T19:56:26.933323,7.767102,-6.245266,4.264009,-1.047022,-1.461189,-4.685335
2026-01-18T19:56:26.943323,8.834301,-7.106683,3.287738,-1.692096,-1.726304,-4.648683
2026-01-18T19:56:26.953323,10.394421,-9.322436,2.426322,-2.502103,-1.952324,-4.503297
2026-01-18T19:56:26.962323,12.112468,-12.591032,1.502692,-2.967582,-2.029293,-4.453206
2026-01-18T19:56:26.972323,13.332807,-14.806786,1.076770,-2.537533,-1.852143,-4.564384
2026-01-18T19:56:26.981323,13.634303,-15.237494,1.536192,-1.567479,-1.496619,-4.668231
2026-01-18T19:56:26.991323,13.131810,-13.998012,2.493321,-0.498465,-1.181413,-4.712213
2026-01-18T19:56:27.001323,12.131610,-10.987841,3.637090,0.419053,-0.998153,-4.791625
2026-01-18T19:56:27.010323,11.188838,-7.752745,3.790230,0.723264,-0.995710,-4.786739
2026-01-18T19:56:27.020323,10.633703,-5.632704,3.680161,0.466700,-1.177747,-4.743978
2026-01-18T19:56:27.030323,10.724630,-4.302295,3.598805,-0.037873,-1.481958,-4.679226
2026-01-18T19:56:27.039323,11.102696,-3.574876,2.091326,-0.624304,-1.709200,-4.580266
2026-01-18T19:56:27.049323,11.586047,-3.565305,0.641276,-1.127656,-1.788613,-4.547279
2026-01-18T19:56:27.058323,11.844471,-3.857230,0.588634,-1.466076,-1.816712,-4.575379
2026-01-18T19:56:27.068323,12.409178,-5.331208,0.258424,-1.692096,-1.899790,-4.541171
2026-01-18T19:56:27.078323,13.686945,-7.365107,1.220339,-1.820378,-2.095267,-4.420219
2026-01-18T19:56:27.087323,15.893127,-9.279366,2.349751,-1.721417,-2.331061,-4.202751
2026-01-18T19:56:27.097323,18.199808,-10.595418,2.718246,-1.237612,-2.316400,-3.966958
2026-01-18T19:56:27.106323,19.736000,-10.638489,3.043670,-0.513126,-1.831373,-3.743381
2026-01-18T19:56:27.116323,19.113867,-9.844072,2.900100,0.153938,-1.001818,-3.474600
2026-01-18T19:56:27.126323,16.572689,-8.638089,2.139183,0.603534,-0.211359,-3.215593
2026-01-18T19:56:27.135323,13.107882,-7.082754,1.837687,0.934623,0.204028,-3.016451
2026-01-18T19:56:27.145323,9.877571,-4.977071,1.325623,1.182634,0.210137,-2.908939
2026-01-18T19:56:27.155323,7.451249,-3.158525,1.162911,1.252273,-0.116064,-2.852740
2026-01-18T19:56:27.164323,6.187839,-1.799402,1.143769,1.165530,-0.680503,-2.823418
2026-01-18T19:56:27.174323,6.427121,-0.751346,0.535992,0.972497,-1.319468,-2.763553
2026-01-18T19:56:27.183323,7.881957,-0.143569,0.382851,0.665842,-1.825264,-2.712241
2026-01-18T19:56:27.193323,9.891928,0.057427,0.856630,0.304210,-2.024406,-2.673145
2026-01-18T19:56:27.203323,11.499905,0.133998,1.210768,-0.052534,-1.844812,-2.607172
2026-01-18T19:56:27.212323,12.093325,0.062213,1.660618,-0.419053,-1.389107,-2.488664
2026-01-18T19:56:27.222323,11.475977,-0.229710,1.684547,-0.803898,-0.844215,-2.338391
2026-01-18T19:56:27.231323,10.001998,-0.799202,1.263410,-1.127656,-0.405614,-2.204001
2026-01-18T19:56:27.241323,8.188238,-1.229910,1.129412,-1.295034,-0.207694,-2.113593
2026-01-18T19:56:27.251323,6.742974,-1.378265,1.076770,-1.332907,-0.271224,-2.052506
2026-01-18T19:56:27.260323,5.982056,-1.354337,0.813559,-1.328020,-0.538783,-1.987755
2026-01-18T19:56:27.270323,6.178267,-1.201196,0.454636,-1.296255,-0.904080,-1.920559
2026-01-18T19:56:27.280323,7.030112,-1.110269,0.229710,-1.273042,-1.216843,-1.839925
2026-01-18T19:56:27.289323,8.221738,-1.244267,0.363709,-1.247386,-1.358564,-1.750739
2026-01-18T19:56:27.299323,9.265009,-1.531406,0.282353,-1.164308,-1.270599,-1.646892
2026-01-18T19:56:27.308323,9.542576,-1.804188,0.473778,-1.011592,-0.973718,-1.544267
2026-01-18T19:56:27.318323,8.824729,-1.914258,0.535992,-0.801455,-0.563217,-1.437976
2026-01-18T19:56:27.328323,7.389036,-1.813759,0.607776,-0.549778,-0.197920,-1.336572
2026-01-18T19:56:27.337323,5.733202,-1.440479,0.732203,-0.315206,0.002443,-1.235169
2026-01-18T19:56:27.347323,4.182653,-0.990628,0.708275,-0.147829,0.025656,-1.119104
2026-01-18T19:56:27.356323,2.928814,-0.492921,0.870987,-0.064751,-0.065973,-1.029918
2026-01-18T19:56:27.366323,2.067398,-0.066999,1.253839,-0.062308,-0.219911,-0.952949
2026-01-18T19:56:27.376323,1.741974,0.325423,1.344766,-0.133168,-0.425162,-0.868650
2026-01-18T19:56:27.385323,1.909472,0.435493,1.196411,-0.279776,-0.638964,-0.773355
2026-01-18T19:56:27.395323,2.349751,0.425922,1.100698,-0.414166,-0.778242,-0.680503
2026-01-18T19:56:27.405323,2.790031,0.478564,1.277767,-0.529009,-0.790459,-0.592539
2026-01-18T19:56:27.414323,2.943171,0.086141,1.234696,-0.656069,-0.682947,-0.509461
2026-01-18T19:56:27.424323,2.842673,-0.478564,1.057627,-0.703716,-0.518013,-0.452040
2026-01-18T19:56:27.433323,2.407179,-1.076770,1.148554,-0.631634,-0.400727,-0.406836
2026-01-18T19:56:27.443323,2.100898,-1.584048,1.330409,-0.461814,-0.404392,-0.365297
2026-01-18T19:56:27.453323,2.230110,-1.818545,1.450050,-0.206472,-0.499687,-0.327423
2026-01-18T19:56:27.462323,2.790031,-1.593619,1.732403,0.085521,-0.652403,-0.310319
2026-01-18T19:56:27.472323,3.929014,-1.067198,1.966900,0.305432,-0.812450,-0.273667
2026-01-18T19:56:27.481323,5.307280,-0.454636,1.861615,0.379958,-0.906523,-0.215024
2026-01-18T19:56:27.491323,6.604190,0.000000,1.684547,0.334754,-0.862541,-0.160046
2026-01-18T19:56:27.501323,7.580461,0.459421,1.545763,0.171042,-0.714712,-0.114842
2026-01-18T19:56:27.510323,8.322237,0.564706,1.272981,-0.092851,-0.551000,-0.057421
2026-01-18T19:56:27.520323,9.035298,0.205782,1.220339,-0.357966,-0.431270,-0.017104
2026-01-18T19:56:27.530323,9.824929,-0.445065,1.473978,-0.563217,-0.367740,0.037873
2026-01-18T19:56:27.539323,10.643274,-1.210768,1.373480,-0.618195,-0.350636,0.107512
2026-01-18T19:56:27.549323,11.485548,-1.488335,1.024128,-0.521678,-0.310319,0.186924
2026-01-18T19:56:27.558323,12.189038,-1.497906,0.966700,-0.351858,-0.183259,0.267558
2026-01-18T19:56:27.568323,12.323036,-1.000199,1.014556,-0.197920,0.021991,0.390953
2026-01-18T19:56:27.578323,11.992826,-0.344566,1.138983,-0.179594,0.280997,0.540004
2026-01-18T19:56:27.587323,10.992627,-0.023928,1.478764,-0.276111,0.542448,0.692721
2026-01-18T19:56:27.597323,9.705288,-0.062213,1.478764,-0.395840,0.729372,0.845437
2026-01-18T19:56:27.606323,8.480163,-0.430708,1.564905,-0.452040,0.807563,0.970053
2026-01-18T19:56:27.616323,7.350751,-0.784845,1.679761,-0.365297,0.789237,1.042135
2026-01-18T19:56:27.626323,6.628118,-1.172483,1.966900,-0.169820,0.723264,1.067792
2026-01-18T19:56:27.635323,6.278766,-1.459621,2.120040,0.081855,0.634077,1.073900
2026-01-18T19:56:27.645323,6.111268,-1.268195,2.033899,0.366519,0.558330,1.072679
2026-01-18T19:56:27.655323,6.139982,-0.526420,1.986042,0.548556,0.503352,1.091005
2026-01-18T19:56:27.664323,6.216553,0.387637,1.852044,0.504574,0.477696,1.137430
2026-01-18T19:56:27.674323,6.293123,0.961914,1.799402,0.254119,0.488692,1.208291
2026-01-18T19:56:27.683323,6.312266,0.971485,1.832902,-0.147829,0.529009,1.315803
2026-01-18T19:56:27.693323,6.240481,0.148355,1.598405,-0.530230,0.582765,1.426980
2026-01-18T19:56:27.703323,6.116054,-1.009771,1.655833,-0.725707,0.660956,1.497841
2026-01-18T19:56:27.712323,5.991627,-2.172682,1.674975,-0.695164,0.731816,1.539380
2026-01-18T19:56:27.722323,5.867201,-3.148954,1.909472,-0.445931,0.799011,1.561371
2026-01-18T19:56:27.731323,5.694917,-3.641875,1.813759,-0.032986,0.844215,1.583362
2026-01-18T19:56:27.741323,5.613561,-3.364308,1.488335,0.389731,0.905302,1.604131
2026-01-18T19:56:27.751323,5.484349,-2.373680,1.263410,0.718377,0.961501,1.629788
2026-01-18T19:56:27.760323,5.426921,-0.856630,1.234696,0.842993,0.998153,1.692096
2026-01-18T19:56:27.770323,5.431707,0.291924,1.296909,0.659734,1.018923,1.804495
2026-01-18T19:56:27.780323,5.560919,0.579063,1.205982,0.271224,1.058018,1.951103
2026-01-18T19:56:27.789323,5.618347,0.143569,1.076770,-0.119729,1.132543,2.068389
2026-01-18T19:56:27.799323,5.737988,-0.765703,0.861416,-0.421496,1.191186,2.171014
2026-01-18T19:56:27.808323,5.848058,-2.014756,0.823130,-0.524122,1.183856,2.249205
2026-01-18T19:56:27.818323,6.178267,-2.991028,0.569491,-0.394618,1.116661,2.321287
2026-01-18T19:56:27.828323,6.661618,-3.469592,0.148355,-0.175929,1.006705,2.393369
2026-01-18T19:56:27.837323,7.403393,-3.823730,0.267996,0.028099,0.858876,2.482555
2026-01-18T19:56:27.847323,8.389236,-3.991228,0.129212,0.171042,0.673173,2.630385
2026-01-18T19:56:27.856323,9.638289,-4.173082,-0.071784,0.293215,0.526565,2.768440
2026-01-18T19:56:27.866323,10.762916,-4.426721,-0.248853,0.426383,0.511904,2.894278
2026-01-18T19:56:27.876323,11.485548,-5.020141,-0.430708,0.536339,0.561995,3.033556
2026-01-18T19:56:27.885323,11.830114,-5.541777,-0.473778,0.657290,0.604756,3.165503
2026-01-18T19:56:27.895323,12.059825,-5.876772,-0.038285,0.813672,0.638964,3.265684
