Timestamp,Acceleration_X,Acceleration_Y,Acceleration_Z,Gyro_X,Gyro_Y,Gyro_Z
2026-01-04T13:57:22.832953,9.336793,-1.115055,1.402194,-0.059864,0.081855,0.128281
2026-01-04T13:57:22.842953,9.198010,-1.076770,1.435693,-0.013439,0.034208,0.140498
2026-01-04T13:57:22.851953,9.365507,-1.052841,1.416550,0.019547,-0.036651,0.127059
2026-01-04T13:57:22.861953,9.614361,-0.899701,1.454836,0.034208,-0.098960,0.094073
2026-01-04T13:57:22.870953,9.872786,-0.780060,1.378265,0.009773,-0.120951,0.091629
2026-01-04T13:57:22.880953,10.159924,-0.655633,1.344766,-0.032986,-0.087964,0.103847
2026-01-04T13:57:22.890953,10.112068,-0.650847,1.387837,-0.085521,-0.024434,0.116064
2026-01-04T13:57:22.899953,9.958927,-0.818345,1.306481,-0.139277,0.028099,0.130725
2026-01-04T13:57:22.909953,9.705288,-0.904486,1.277767,-0.162490,0.051312,0.128281
2026-01-04T13:57:22.919953,9.513862,-1.009771,1.359123,-0.146607,0.042760,0.114842
2026-01-04T13:57:22.928953,9.446863,-1.115055,1.397408,-0.106290,0.002443,0.102625
2026-01-04T13:57:22.938953,9.432506,-1.110269,1.368694,-0.057421,-0.047647,0.092851
2026-01-04T13:57:22.947953,9.623932,-1.024128,1.373480,-0.010995,-0.086742,0.084299
2026-01-04T13:57:22.957953,9.824929,-0.971485,1.339980,0.021991,-0.112399,0.073303
2026-01-04T13:57:22.967953,10.045069,-0.856630,1.282552,0.031764,-0.109955,0.072082
2026-01-04T13:57:22.976953,10.073783,-0.780060,1.268195,0.025656,-0.072082,0.078190
2026-01-04T13:57:22.986953,10.001998,-0.746560,1.316052,0.013439,-0.012217,0.084299
2026-01-04T13:57:22.995953,9.791430,-0.713061,1.306481,-0.004886,0.031764,0.085521
2026-01-04T13:57:23.005953,9.528219,-0.655633,1.249053,-0.021991,0.036651,0.076969
2026-01-04T13:57:23.015953,9.461220,-0.679561,1.253839,-0.041538,-0.007330,0.064751
2026-01-04T13:57:23.024953,9.523433,-0.631705,1.359123,-0.056199,-0.069638,0.056199
2026-01-04T13:57:23.034953,9.714859,-0.756131,1.368694,-0.072082,-0.124616,0.048869
2026-01-04T13:57:23.044953,9.963713,-0.813559,1.445264,-0.089186,-0.138055,0.043982
2026-01-04T13:57:23.053953,10.112068,-0.933200,1.430907,-0.083077,-0.119729,0.046425
2026-01-04T13:57:23.063953,10.159924,-0.981057,1.416550,-0.059864,-0.076969,0.054977
2026-01-04T13:57:23.072953,10.064211,-1.033699,1.421336,-0.024434,-0.032986,0.059864
2026-01-04T13:57:23.082953,9.810572,-0.971485,1.387837,0.026878,-0.008552,0.061086
2026-01-04T13:57:23.092953,9.623932,-0.866201,1.368694,0.073303,-0.010995,0.051312
2026-01-04T13:57:23.101953,9.566504,-0.803988,1.416550,0.107512,-0.035430,0.041538
2026-01-04T13:57:23.111953,9.528219,-0.708275,1.483550,0.124616,-0.073303,0.030543
2026-01-04T13:57:23.120953,9.647860,-0.531206,1.488335,0.109955,-0.102625,0.012217
2026-01-04T13:57:23.130953,9.858429,-0.473778,1.435693,0.070860,-0.120951,0.003665
2026-01-04T13:57:23.140953,10.021141,-0.507278,1.430907,0.014660,-0.114842,0.003665
2026-01-04T13:57:23.149953,10.174281,-0.535992,1.445264,-0.041538,-0.086742,0.007330
2026-01-04T13:57:23.159953,10.150353,-0.665204,1.406979,-0.089186,-0.036651,0.017104
2026-01-04T13:57:23.169953,10.035497,-0.713061,1.368694,-0.120951,0.012217,0.028099
2026-01-04T13:57:23.178953,9.753144,-0.803988,1.373480,-0.142942,0.037873,0.032986
2026-01-04T13:57:23.188953,9.590432,-0.899701,1.339980,-0.153938,0.025656,0.032986
2026-01-04T13:57:23.197953,9.628718,-1.038485,1.421336,-0.149051,-0.014660,0.028099
2026-01-04T13:57:23.207953,9.585647,-1.076770,1.435693,-0.116064,-0.058643,0.019547
2026-01-04T13:57:23.217953,9.714859,-1.182054,1.402194,-0.072082,-0.085521,0.006108
2026-01-04T13:57:23.226953,9.877571,-1.148554,1.387837,-0.018325,-0.089186,-0.008552
2026-01-04T13:57:23.236953,9.911071,-1.052841,1.359123,0.029321,-0.070860,-0.012217
2026-01-04T13:57:23.245953,9.863214,-1.004985,1.320838,0.058643,-0.040317,-0.013439
2026-01-04T13:57:23.255953,9.820143,-0.861416,1.277767,0.059864,-0.009773,-0.024434
2026-01-04T13:57:23.265953,9.700502,-0.756131,1.311266,0.031764,0.003665,-0.019547
2026-01-04T13:57:23.274953,9.600004,-0.736989,1.306481,-0.018325,-0.002443,-0.017104
2026-01-04T13:57:23.284953,9.556933,-0.760917,1.292124,-0.074525,-0.019547,-0.010995
2026-01-04T13:57:23.294953,9.619146,-0.937986,1.316052,-0.117286,-0.046425,-0.001221
2026-01-04T13:57:23.303953,9.772287,-1.009771,1.402194,-0.139277,-0.074525,0.000000
2026-01-04T13:57:23.313953,9.887142,-1.158126,1.330409,-0.145385,-0.090408,0.004886
2026-01-04T13:57:23.322953,10.059426,-1.225125,1.272981,-0.123394,-0.076969,0.024434
2026-01-04T13:57:23.332953,10.064211,-1.263410,1.225125,-0.086742,-0.040317,0.020769
2026-01-04T13:57:23.342953,9.944570,-1.277767,1.349551,-0.046425,0.001221,0.019547
2026-01-04T13:57:23.351953,9.700502,-1.191625,1.287338,-0.010995,0.024434,0.018325
2026-01-04T13:57:23.361953,9.513862,-1.134197,1.229910,0.012217,0.014660,0.015882
2026-01-04T13:57:23.370953,9.389435,-1.095912,1.330409,0.020769,-0.023212,0.009773
2026-01-04T13:57:23.380953,9.556933,-1.014556,1.335195,0.018325,-0.070860,0.004886
2026-01-04T13:57:23.390953,9.724431,-0.985842,1.320838,0.007330,-0.112399,0.003665
2026-01-04T13:57:23.399953,9.887142,-0.928415,1.306481,-0.010995,-0.133168,0.006108
2026-01-04T13:57:23.409953,10.164710,-1.057627,1.306481,-0.024434,-0.122173,0.017104
2026-01-04T13:57:23.419953,10.159924,-1.009771,1.330409,-0.030543,-0.081855,0.035430
2026-01-04T13:57:23.428953,10.155139,-0.985842,1.411765,-0.039095,-0.028099,0.052534
2026-01-04T13:57:23.438953,9.973284,-1.086341,1.378265,-0.046425,0.018325,0.062308
2026-01-04T13:57:23.447953,9.700502,-1.057627,1.344766,-0.043982,0.036651,0.069638
2026-01-04T13:57:23.457953,9.504291,-1.076770,1.306481,-0.028099,0.019547,0.069638
2026-01-04T13:57:23.467953,9.389435,-1.071984,1.335195,0.001221,-0.019547,0.056199
2026-01-04T13:57:23.476953,9.499505,-1.052841,1.392622,0.030543,-0.070860,0.037873
2026-01-04T13:57:23.486953,9.638289,-0.976271,1.339980,0.043982,-0.111177,0.017104
2026-01-04T13:57:23.495953,9.820143,-0.957129,1.406979,0.051312,-0.127059,0.009773
2026-01-04T13:57:23.505953,10.006784,-0.890130,1.416550,0.048869,-0.118507,0.007330
2026-01-04T13:57:23.515953,10.045069,-0.885344,1.421336,0.031764,-0.075747,0.020769
2026-01-04T13:57:23.524953,9.906285,-0.847059,1.387837,0.013439,-0.024434,0.036651
2026-01-04T13:57:23.534953,9.743573,-0.928415,1.373480,0.003665,0.004886,0.043982
2026-01-04T13:57:23.544953,9.609575,-0.918843,1.344766,-0.004886,0.000000,0.046425
2026-01-04T13:57:23.553953,9.585647,-0.952343,1.349551,-0.012217,-0.031764,0.041538
2026-01-04T13:57:23.563953,9.571290,-0.990628,1.416550,-0.006108,-0.064751,0.028099
2026-01-04T13:57:23.572953,9.705288,-1.004985,1.325623,0.004886,-0.075747,0.017104
2026-01-04T13:57:23.582953,9.762716,-1.062413,1.416550,0.020769,-0.076969,0.007330
2026-01-04T13:57:23.592953,9.901499,-0.918843,1.402194,0.031764,-0.072082,0.002443
2026-01-04T13:57:23.601953,9.992427,-0.899701,1.363908,0.026878,-0.059864,0.007330
2026-01-04T13:57:23.611953,9.987641,-0.904486,1.330409,0.008552,-0.040317,0.013439
2026-01-04T13:57:23.620953,9.896714,-0.885344,1.402194,-0.015882,-0.013439,0.029321
2026-01-04T13:57:23.630953,9.834500,-0.890130,1.325623,-0.041538,0.004886,0.040317
2026-01-04T13:57:23.640953,9.662217,-0.923629,1.320838,-0.050090,0.002443,0.046425
2026-01-04T13:57:23.649953,9.614361,-1.057627,1.359123,-0.048869,-0.009773,0.052534
2026-01-04T13:57:23.659953,9.671788,-1.086341,1.335195,-0.037873,-0.035430,0.048869
2026-01-04T13:57:23.669953,9.686145,-1.143769,1.411765,-0.004886,-0.052534,0.037873
2026-01-04T13:57:23.678953,9.824929,-1.019342,1.469193,0.030543,-0.053756,0.034208
2026-01-04T13:57:23.688953,9.958927,-1.028913,1.344766,0.051312,-0.040317,0.030543
2026-01-04T13:57:23.697953,9.868000,-0.904486,1.316052,0.067195,-0.014660,0.026878
2026-01-04T13:57:23.707953,9.834500,-0.703489,1.320838,0.062308,0.009773,0.029321
2026-01-04T13:57:23.717953,9.753144,-0.646062,1.335195,0.023212,0.025656,0.036651
2026-01-04T13:57:23.726953,9.724431,-0.655633,1.330409,-0.035430,0.019547,0.039095
2026-01-04T13:57:23.736953,9.667003,-0.780060,1.292124,-0.086742,-0.003665,0.039095
2026-01-04T13:57:23.745953,9.710074,-0.894915,1.316052,-0.116064,-0.032986,0.036651
2026-01-04T13:57:23.755953,9.791430,-1.105484,1.301695,-0.118507,-0.050090,0.032986
2026-01-04T13:57:23.765953,9.944570,-1.167697,1.354337,-0.103847,-0.053756,0.029321
2026-01-04T13:57:23.774953,10.088140,-1.167697,1.272981,-0.074525,-0.053756,0.021991
2026-01-04T13:57:23.784953,10.155139,-1.239482,1.253839,-0.031764,-0.040317,0.019547
2026-01-04T13:57:23.794953,10.126425,-1.138983,1.234696,0.013439,0.001221,0.017104
2026-01-04T13:57:23.803953,9.997212,-1.009771,1.249053,0.046425,0.046425,0.013439
2026-01-04T13:57:23.813953,9.738787,-0.899701,1.239482,0.051312,0.072082,0.018325
2026-01-04T13:57:23.822953,9.475577,-0.823130,1.158126,0.030543,0.063529,0.021991
2026-01-04T13:57:23.832953,9.379864,-0.832702,1.292124,0.001221,0.026878,0.023212
2026-01-04T13:57:23.842953,9.446863,-0.770488,1.272981,-0.036651,-0.017104,0.025656
2026-01-04T13:57:23.851953,9.585647,-0.856630,1.292124,-0.073303,-0.054977,0.024434
2026-01-04T13:57:23.861953,9.762716,-1.019342,1.349551,-0.097738,-0.078190,0.025656
2026-01-04T13:57:23.870953,9.949356,-1.124626,1.339980,-0.097738,-0.075747,0.023212
2026-01-04T13:57:23.880953,10.006784,-1.158126,1.263410,-0.075747,-0.050090,0.020769
2026-01-04T13:57:23.890953,10.049854,-1.177268,1.263410,-0.045204,-0.012217,0.018325
2026-01-04T13:57:23.899953,9.934999,-1.134197,1.167697,-0.008552,0.014660,0.013439
2026-01-04T13:57:23.909953,9.777073,-0.976271,1.182054,0.019547,0.029321,0.012217
2026-01-04T13:57:23.919953,9.700502,-0.880558,1.196411,0.028099,0.018325,0.007330
2026-01-04T13:57:23.928953,9.652646,-0.899701,1.225125,0.024434,-0.008552,0.000000
2026-01-04T13:57:23.938953,9.700502,-0.808774,1.335195,0.002443,-0.026878,-0.004886
2026-01-04T13:57:23.947953,9.729216,-0.842273,1.249053,-0.026878,-0.032986,-0.003665
2026-01-04T13:57:23.957953,9.667003,-0.923629,1.292124,-0.050090,-0.026878,-0.006108
2026-01-04T13:57:23.967953,9.652646,-0.966700,1.225125,-0.057421,-0.020769,-0.006108
2026-01-04T13:57:23.976953,9.686145,-1.071984,1.272981,-0.048869,-0.023212,-0.007330
2026-01-04T13:57:23.986953,9.647860,-1.095912,1.158126,-0.030543,-0.029321,-0.008552
2026-01-04T13:57:23.995953,9.676574,-1.081555,1.138983,-0.013439,-0.039095,-0.003665
2026-01-04T13:57:24.005953,9.753144,-1.110269,1.244267,-0.003665,-0.058643,-0.003665
2026-01-04T13:57:24.015953,9.824929,-1.028913,1.277767,0.001221,-0.068416,0.000000
2026-01-04T13:57:24.024953,9.872786,-0.976271,1.277767,0.000000,-0.062308,0.003665
2026-01-04T13:57:24.034953,9.934999,-0.942772,1.335195,-0.010995,-0.047647,0.003665
2026-01-04T13:57:24.044953,9.877571,-0.937986,1.359123,-0.023212,-0.026878,0.007330
2026-01-04T13:57:24.053953,9.796215,-1.004985,1.402194,-0.030543,-0.015882,0.009773
2026-01-04T13:57:24.063953,9.700502,-1.024128,1.316052,-0.029321,-0.024434,0.003665
2026-01-04T13:57:24.072953,9.714859,-1.004985,1.335195,-0.014660,-0.037873,-0.001221
2026-01-04T13:57:24.082953,9.628718,-0.952343,1.359123,-0.002443,-0.052534,-0.006108
2026-01-04T13:57:24.092953,9.762716,-0.952343,1.392622,0.003665,-0.054977,0.002443
2026-01-04T13:57:24.101953,9.734002,-0.904486,1.392622,0.001221,-0.050090,0.006108
2026-01-04T13:57:24.111953,9.781858,-0.823130,1.311266,-0.006108,-0.048869,0.014660
2026-01-04T13:57:24.120953,9.810572,-0.837487,1.201196,-0.019547,-0.061086,0.010995
2026-01-04T13:57:24.130953,9.915856,-0.918843,1.277767,-0.029321,-0.073303,0.007330
2026-01-04T13:57:24.140953,10.011569,-1.009771,1.306481,-0.029321,-0.075747,0.001221
2026-01-04T13:57:24.149953,10.116853,-1.091127,1.430907,-0.015882,-0.059864,-0.012217
2026-01-04T13:57:24.159953,10.083354,-1.100698,1.402194,0.010995,-0.039095,-0.014660
2026-01-04T13:57:24.169953,10.021141,-1.014556,1.454836,0.034208,-0.034208,-0.020769
2026-01-04T13:57:24.178953,9.887142,-1.024128,1.464407,0.046425,-0.028099,-0.021991
2026-01-04T13:57:24.188953,9.824929,-0.947557,1.416550,0.051312,-0.023212,-0.012217
2026-01-04T13:57:24.197953,9.724431,-0.914058,1.378265,0.047647,-0.013439,-0.004886
2026-01-04T13:57:24.207953,9.671788,-0.894915,1.359123,0.036651,-0.007330,0.003665
2026-01-04T13:57:24.217953,9.576076,-0.851844,1.430907,0.013439,-0.009773,0.013439
2026-01-04T13:57:24.226953,9.542576,-0.923629,1.402194,-0.007330,-0.024434,0.009773
2026-01-04T13:57:24.236953,9.662217,-0.894915,1.406979,-0.021991,-0.048869,0.002443
2026-01-04T13:57:24.245953,9.829715,-1.028913,1.383051,-0.021991,-0.063529,-0.002443
2026-01-04T13:57:24.255953,9.915856,-0.937986,1.430907,-0.013439,-0.054977,-0.003665
2026-01-04T13:57:24.265953,10.001998,-0.990628,1.378265,-0.008552,-0.032986,-0.008552
2026-01-04T13:57:24.274953,9.949356,-0.928415,1.373480,-0.014660,-0.007330,-0.006108
2026-01-04T13:57:24.284953,9.992427,-0.976271,1.359123,-0.014660,0.008552,-0.004886
2026-01-04T13:57:24.294953,9.839286,-0.966700,1.325623,-0.007330,0.013439,-0.006108
2026-01-04T13:57:24.303953,9.738787,-1.014556,1.249053,-0.001221,0.004886,-0.004886
2026-01-04T13:57:24.313953,9.753144,-0.985842,1.258624,0.013439,-0.012217,-0.002443
2026-01-04T13:57:24.322953,9.810572,-0.981057,1.301695,0.021991,-0.029321,0.000000
2026-01-04T13:57:24.332953,9.882357,-0.966700,1.316052,0.026878,-0.029321,0.004886
2026-01-04T13:57:24.342953,9.930213,-0.909272,1.330409,0.029321,-0.015882,0.007330
2026-01-04T13:57:24.351953,9.877571,-0.957129,1.335195,0.026878,0.001221,0.006108
2026-01-04T13:57:24.361953,9.791430,-0.909272,1.311266,0.029321,0.017104,0.009773
2026-01-04T13:57:24.370953,9.714859,-0.933200,1.282552,0.035430,0.020769,0.004886
2026-01-04T13:57:24.380953,9.705288,-0.866201,1.268195,0.032986,0.006108,-0.002443
2026-01-04T13:57:24.390953,9.705288,-0.818345,1.325623,0.026878,-0.012217,-0.006108
2026-01-04T13:57:24.399953,9.844072,-0.861416,1.301695,0.014660,-0.023212,-0.006108
2026-01-04T13:57:24.409953,9.872786,-0.794417,1.220339,-0.009773,-0.019547,0.007330
2026-01-04T13:57:24.419953,9.920642,-0.803988,1.263410,-0.035430,-0.009773,0.015882
2026-01-04T13:57:24.428953,9.901499,-0.899701,1.277767,-0.056199,0.000000,0.020769
2026-01-04T13:57:24.438953,9.848857,-0.966700,1.215553,-0.061086,0.014660,0.028099
2026-01-04T13:57:24.447953,9.772287,-1.024128,1.272981,-0.046425,0.024434,0.023212
2026-01-04T13:57:24.457953,9.667003,-1.019342,1.311266,-0.024434,0.018325,0.012217
2026-01-04T13:57:24.467953,9.638289,-1.110269,1.320838,0.010995,0.000000,0.001221
2026-01-04T13:57:24.476953,9.671788,-1.086341,1.296909,0.047647,-0.026878,-0.012217
2026-01-04T13:57:24.486953,9.796215,-0.985842,1.287338,0.074525,-0.047647,-0.017104
2026-01-04T13:57:24.495953,9.863214,-0.880558,1.182054,0.091629,-0.050090,-0.019547
2026-01-04T13:57:24.505953,9.963713,-0.832702,1.325623,0.079412,-0.037873,-0.017104
2026-01-04T13:57:24.515953,9.930213,-0.708275,1.210768,0.039095,-0.017104,-0.004886
2026-01-04T13:57:24.524953,9.863214,-0.760917,1.268195,-0.004886,0.004886,0.008552
2026-01-04T13:57:24.534953,9.781858,-0.880558,1.301695,-0.039095,0.017104,0.015882
2026-01-04T13:57:24.544953,9.734002,-0.918843,1.335195,-0.053756,0.017104,0.018325
2026-01-04T13:57:24.553953,9.695717,-0.985842,1.349551,-0.046425,0.003665,0.013439
2026-01-04T13:57:24.563953,9.695717,-1.019342,1.363908,-0.030543,-0.010995,0.009773
2026-01-04T13:57:24.572953,9.714859,-0.952343,1.330409,-0.010995,-0.025656,0.003665
2026-01-04T13:57:24.582953,9.781858,-0.880558,1.282552,0.001221,-0.028099,0.002443
2026-01-04T13:57:24.592953,9.810572,-0.885344,1.263410,0.009773,-0.021991,0.003665
2026-01-04T13:57:24.601953,9.772287,-0.870987,1.316052,0.012217,-0.010995,0.006108
2026-01-04T13:57:24.611953,9.714859,-0.847059,1.320838,0.004886,-0.004886,0.010995
2026-01-04T13:57:24.620953,9.724431,-0.837487,1.205982,-0.004886,-0.004886,0.019547
2026-01-04T13:57:24.630953,9.753144,-0.851844,1.306481,-0.018325,-0.006108,0.026878
2026-01-04T13:57:24.640953,9.686145,-0.861416,1.272981,-0.028099,-0.012217,0.030543
2026-01-04T13:57:24.649953,9.729216,-0.890130,1.253839,-0.036651,-0.017104,0.034208
2026-01-04T13:57:24.659953,9.705288,-0.909272,1.373480,-0.034208,-0.003665,0.036651
2026-01-04T13:57:24.669953,9.604789,-0.971485,1.344766,-0.024434,0.017104,0.039095
2026-01-04T13:57:24.678953,9.542576,-0.928415,1.287338,-0.010995,0.025656,0.041538
2026-01-04T13:57:24.688953,9.461220,-0.870987,1.186840,0.006108,0.008552,0.029321
2026-01-04T13:57:24.697953,9.561719,-0.842273,1.191625,0.012217,-0.029321,0.018325
2026-01-04T13:57:24.707953,9.714859,-0.813559,1.215553,0.010995,-0.064751,0.008552
2026-01-04T13:57:24.717953,9.930213,-0.770488,1.205982,0.004886,-0.063529,0.003665
2026-01-04T13:57:24.726953,9.982855,-0.674775,1.177268,-0.009773,-0.031764,0.006108
2026-01-04T13:57:24.736953,9.915856,-0.684347,1.220339,-0.039095,0.008552,0.009773
2026-01-04T13:57:24.745953,9.820143,-0.775274,1.229910,-0.065973,0.026878,0.017104
2026-01-04T13:57:24.755953,9.647860,-0.823130,1.225125,-0.081855,0.021991,0.021991
2026-01-04T13:57:24.765953,9.533005,-0.885344,1.196411,-0.081855,0.006108,0.024434
2026-01-04T13:57:24.774953,9.485148,-0.942772,1.249053,-0.061086,-0.028099,0.015882
2026-01-04T13:57:24.784953,9.590432,-0.914058,1.292124,-0.026878,-0.062308,0.008552
2026-01-04T13:57:24.794953,9.652646,-0.928415,1.368694,0.006108,-0.083077,0.001221
2026-01-04T13:57:24.803953,9.786644,-0.914058,1.306481,0.034208,-0.090408,-0.006108
2026-01-04T13:57:24.813953,9.887142,-0.861416,1.335195,0.052534,-0.081855,-0.010995
2026-01-04T13:57:24.822953,9.872786,-0.784845,1.316052,0.056199,-0.067195,-0.008552
2026-01-04T13:57:24.832953,9.939785,-0.803988,1.311266,0.052534,-0.052534,-0.002443
2026-01-04T13:57:24.842953,9.939785,-0.674775,1.335195,0.040317,-0.050090,-0.002443
2026-01-04T13:57:24.851953,9.934999,-0.535992,1.330409,0.013439,-0.050090,-0.002443
2026-01-04T13:57:24.861953,9.944570,-0.507278,1.272981,-0.021991,-0.041538,-0.002443
2026-01-04T13:57:24.870953,9.939785,-0.569491,1.301695,-0.062308,-0.029321,-0.008552
2026-01-04T13:57:24.880953,9.853643,-0.636490,1.311266,-0.098960,-0.015882,-0.010995
2026-01-04T13:57:24.890953,9.757930,-0.736989,1.363908,-0.116064,-0.004886,-0.013439
2026-01-04T13:57:24.899953,9.705288,-0.933200,1.335195,-0.113620,-0.018325,-0.025656
2026-01-04T13:57:24.909953,9.753144,-0.985842,1.397408,-0.086742,-0.046425,-0.031764
2026-01-04T13:57:24.919953,9.829715,-1.004985,1.344766,-0.042760,-0.075747,-0.036651
2026-01-04T13:57:24.928953,9.949356,-1.028913,1.402194,0.003665,-0.089186,-0.046425
2026-01-04T13:57:24.938953,10.068997,-0.918843,1.421336,0.047647,-0.070860,-0.046425
2026-01-04T13:57:24.947953,10.011569,-0.837487,1.387837,0.076969,-0.030543,-0.041538
2026-01-04T13:57:24.957953,9.887142,-0.713061,1.335195,0.085521,0.003665,-0.036651
2026-01-04T13:57:24.967953,9.777073,-0.583848,1.387837,0.068416,0.017104,-0.036651
2026-01-04T13:57:24.976953,9.667003,-0.497707,1.406979,0.030543,0.013439,-0.032986
2026-01-04T13:57:24.986953,9.695717,-0.435493,1.383051,-0.020769,-0.007330,-0.030543
2026-01-04T13:57:24.995953,9.676574,-0.478564,1.454836,-0.069638,-0.029321,-0.030543
2026-01-04T13:57:25.005953,9.801001,-0.545563,1.430907,-0.103847,-0.047647,-0.034208
2026-01-04T13:57:25.015953,9.934999,-0.669990,1.426122,-0.118507,-0.062308,-0.043982
2026-01-04T13:57:25.024953,10.102497,-0.756131,1.426122,-0.106290,-0.063529,-0.042760
2026-01-04T13:57:25.034953,10.265208,-0.736989,1.330409,-0.072082,-0.050090,-0.050090
2026-01-04T13:57:25.044953,10.269994,-0.717846,1.354337,-0.024434,-0.021991,-0.061086
2026-01-04T13:57:25.053953,10.193424,-0.641276,1.450050,0.020769,0.002443,-0.068416
2026-01-04T13:57:25.063953,10.083354,-0.579063,1.497906,0.054977,0.009773,-0.075747
2026-01-04T13:57:25.072953,10.131210,-0.464207,1.560120,0.089186,-0.001221,-0.092851
2026-01-04T13:57:25.082953,10.030712,-0.325423,1.569691,0.111177,-0.017104,-0.100181
2026-01-04T13:57:25.092953,10.222138,-0.181854,1.521835,0.109955,-0.026878,-0.111177
2026-01-04T13:57:25.101953,10.236495,-0.023928,1.435693,0.083077,-0.012217,-0.107512
2026-01-04T13:57:25.111953,10.226923,-0.028713,1.502692,0.030543,0.021991,-0.100181
2026-01-04T13:57:25.120953,10.092925,-0.066999,1.574477,-0.028099,0.047647,-0.092851
2026-01-04T13:57:25.130953,10.016355,-0.315852,1.445264,-0.059864,0.050090,-0.091629
2026-01-04T13:57:25.140953,9.829715,-0.626919,1.440479,-0.026878,0.025656,-0.107512
2026-01-04T13:57:25.149953,9.834500,-0.746560,1.478764,0.067195,-0.017104,-0.130725
2026-01-04T13:57:25.159953,9.868000,-0.918843,1.536192,0.212581,-0.059864,-0.172263
2026-01-04T13:57:25.169953,9.958927,-0.813559,1.478764,0.366519,-0.083077,-0.208915
2026-01-04T13:57:25.178953,10.064211,-0.622133,1.540977,0.507018,-0.075747,-0.249232
2026-01-04T13:57:25.188953,10.164710,-0.330209,1.459621,0.594982,-0.063529,-0.282219
2026-01-04T13:57:25.197953,10.322636,0.105284,1.354337,0.601091,-0.052534,-0.311541
2026-01-04T13:57:25.207953,10.336993,0.315852,1.306481,0.529009,-0.035430,-0.327423
2026-01-04T13:57:25.217953,10.293922,0.521635,1.349551,0.389731,-0.001221,-0.326201
2026-01-04T13:57:25.226953,10.183852,0.588634,1.330409,0.182037,0.062308,-0.306654
2026-01-04T13:57:25.236953,9.844072,0.344566,1.349551,-0.051312,0.130725,-0.277332
2026-01-04T13:57:25.245953,9.494720,-0.028713,1.263410,-0.260228,0.149051,-0.256563
2026-01-04T13:57:25.255953,9.207581,-0.660419,1.301695,-0.412944,0.117286,-0.235793
2026-01-04T13:57:25.265953,8.987441,-1.526620,1.445264,-0.453261,0.058643,-0.226020
2026-01-04T13:57:25.274953,8.901300,-2.158325,1.560120,-0.373849,0.006108,-0.232128
2026-01-04T13:57:25.284953,8.896514,-2.689532,1.780260,-0.186924,-0.034208,-0.250454
2026-01-04T13:57:25.294953,8.901300,-2.947957,1.976471,0.050090,-0.064751,-0.272445
2026-01-04T13:57:25.303953,9.001798,-3.105883,1.976471,0.284663,-0.091629,-0.295658
2026-01-04T13:57:25.313953,9.154939,-3.005385,2.038684,0.530230,-0.116064,-0.309097
2026-01-04T13:57:25.322953,9.446863,-2.713460,2.043470,0.747698,-0.123394,-0.306654
2026-01-04T13:57:25.332953,9.604789,-2.148754,1.856830,0.882089,-0.076969,-0.283441
2026-01-04T13:57:25.342953,9.461220,-1.493121,2.019542,0.906523,0.024434,-0.238237
2026-01-04T13:57:25.351953,9.154939,-0.937986,2.124826,0.801455,0.134390,-0.166155
2026-01-04T13:57:25.361953,8.633303,-0.550349,2.143969,0.586430,0.221133,-0.074525
2026-01-04T13:57:25.370953,8.015955,-0.593420,2.244467,0.322536,0.262671,0.007330
2026-01-04T13:57:25.380953,7.561319,-0.847059,2.287538,0.087964,0.257785,0.078190
2026-01-04T13:57:25.390953,7.154539,-1.239482,2.378465,-0.063529,0.237015,0.129503
2026-01-04T13:57:25.399953,6.800401,-1.655833,2.455035,-0.129503,0.216246,0.160046
2026-01-04T13:57:25.409953,6.537191,-1.890329,2.455035,-0.098960,0.215024,0.184481
2026-01-04T13:57:25.419953,6.245266,-1.890329,2.598605,-0.001221,0.226020,0.186924
2026-01-04T13:57:25.428953,5.871986,-1.756331,2.531606,0.078190,0.249232,0.190589
2026-01-04T13:57:25.438953,5.532205,-1.593619,2.383251,0.124616,0.293215,0.201585
2026-01-04T13:57:25.447953,5.000999,-1.473978,2.163111,0.151494,0.328645,0.210137
2026-01-04T13:57:25.457953,4.642075,-1.296909,2.124826,0.163711,0.315206,0.213802
2026-01-04T13:57:25.467953,4.421936,-1.406979,2.321037,0.140498,0.228463,0.215024
2026-01-04T13:57:25.476953,4.579862,-1.713260,2.402393,0.117286,0.078190,0.226020
2026-01-04T13:57:25.486953,5.125426,-1.976471,2.254038,0.133168,-0.081855,0.246789
2026-01-04T13:57:25.495953,5.967699,-2.321037,2.311466,0.212581,-0.162490,0.271224
2026-01-04T13:57:25.505953,6.824330,-2.421536,2.187039,0.331088,-0.113620,0.317649
2026-01-04T13:57:25.515953,7.192824,-2.254038,1.832902,0.417831,0.084299,0.410501
2026-01-04T13:57:25.524953,6.967899,-1.981257,1.684547,0.441044,0.378736,0.532674
2026-01-04T13:57:25.534953,6.135197,-1.507478,1.741974,0.384845,0.656069,0.673173
2026-01-04T13:57:25.544953,5.072783,-1.244267,1.689332,0.224798,0.819780,0.808785
2026-01-04T13:57:25.553953,4.024727,-1.229910,1.459621,0.013439,0.829554,0.928514
2026-01-04T13:57:25.563953,3.349951,-1.521835,1.459621,-0.167377,0.664621,1.022588
2026-01-04T13:57:25.572953,3.426521,-1.904686,1.493121,-0.311541,0.375071,1.106887
2026-01-04T13:57:25.582953,4.125226,-2.359323,1.770688,-0.390953,0.051312,1.174082
2026-01-04T13:57:25.592953,5.417350,-2.895315,1.751546,-0.397062,-0.197920,1.246164
2026-01-04T13:57:25.601953,6.857829,-3.412165,1.359123,-0.354301,-0.280997,1.328020
2026-01-04T13:57:25.611953,8.001598,-3.952942,0.976271,-0.211359,-0.171042,1.412320
2026-01-04T13:57:25.620953,8.518448,-4.096512,0.947557,0.035430,0.075747,1.496619
2026-01-04T13:57:25.630953,8.327022,-3.914657,1.225125,0.298102,0.357966,1.587027
2026-01-04T13:57:25.640953,7.695317,-3.364308,1.703689,0.518013,0.592539,1.666440
2026-01-04T13:57:25.649953,7.025327,-2.569891,2.402393,0.656069,0.706160,1.716530
2026-01-04T13:57:25.659953,6.709474,-1.694118,2.699103,0.618195,0.674395,1.743409
2026-01-04T13:57:25.669953,7.030112,-1.335195,2.215753,0.381179,0.535117,1.758069
2026-01-04T13:57:25.678953,7.953742,-1.373480,1.636690,0.079412,0.370184,1.783726
2026-01-04T13:57:25.688953,9.030512,-1.493121,1.536192,-0.195476,0.279776,1.817934
2026-01-04T13:57:25.697953,9.939785,-1.674975,1.727617,-0.503352,0.323758,1.893681
2026-01-04T13:57:25.707953,10.269994,-2.000399,2.330609,-0.791681,0.494800,1.991420
2026-01-04T13:57:25.717953,9.949356,-2.354537,2.919243,-1.050687,0.731816,2.091602
2026-01-04T13:57:25.726953,8.973084,-3.034099,2.378465,-1.336572,0.937067,2.229657
2026-01-04T13:57:25.736953,7.680960,-4.307080,1.899901,-1.370781,1.017701,2.283413
2026-01-04T13:57:25.745953,6.695117,-5.431707,2.005185,-1.053131,0.905302,2.252870
2026-01-04T13:57:25.755953,6.340979,-6.130411,2.277967,-0.577878,0.621860,2.157575
2026-01-04T13:57:25.765953,6.915257,-6.652046,2.096112,-0.013439,0.270002,2.020741
2026-01-04T13:57:25.774953,8.188238,-6.474977,1.670190,0.591317,-0.019547,1.898568
2026-01-04T13:57:25.784953,9.667003,-5.761916,1.301695,1.029918,-0.138055,1.865582
2026-01-04T13:57:25.794953,10.863414,-4.689932,1.588834,1.166752,-0.068416,1.931555
2026-01-04T13:57:25.803953,11.485548,-3.522234,1.799402,1.007927,0.139277,2.035402
2026-01-04T13:57:25.813953,11.428120,-2.608176,1.847259,0.587652,0.410501,2.147801
2026-01-04T13:57:25.822953,10.705488,-2.445464,2.129612,0.031764,0.640186,2.213775
2026-01-04T13:57:25.832953,9.690931,-2.871387,2.469392,-0.483805,0.711046,2.224770
2026-01-04T13:57:25.842953,8.963513,-3.833301,2.947957,-0.829554,0.605978,2.160019
2026-01-04T13:57:25.851953,8.662017,-5.163711,2.656033,-1.028696,0.397062,2.067167
2026-01-04T13:57:25.861953,8.796015,-6.762116,2.388036,-0.962723,0.180816,1.960877
2026-01-04T13:57:25.870953,9.293722,-7.992027,2.641676,-0.591317,0.034208,1.805717
2026-01-04T13:57:25.880953,9.781858,-8.810372,2.225325,-0.147829,-0.030543,1.732413
2026-01-04T13:57:25.890953,10.231709,-9.255437,1.770688,0.328645,-0.018325,1.732413
2026-01-04T13:57:25.899953,10.375278,-8.882157,1.344766,0.748920,0.023212,1.793499
2026-01-04T13:57:25.909953,10.418349,-7.800601,1.048056,0.884532,0.019547,1.933998
2026-01-04T13:57:25.919953,10.485348,-6.599404,1.378265,0.722042,-0.034208,2.068389
2026-01-04T13:57:25.928953,10.413563,-5.838487,2.330609,0.335975,-0.103847,2.156353
2026-01-04T13:57:25.938953,10.293922,-5.723631,3.067598,-0.197920,-0.147829,2.214996
2026-01-04T13:57:25.947953,10.313065,-6.350551,4.072584,-0.670729,-0.162490,2.208888
2026-01-04T13:57:25.957953,10.241280,-7.532605,4.785645,-1.003040,-0.171042,2.157575
2026-01-04T13:57:25.967953,10.298708,-9.073583,4.900500,-1.092226,-0.142942,2.094045
2026-01-04T13:57:25.976953,10.336993,-10.518848,5.130211,-0.791681,-0.034208,1.970650
2026-01-04T13:57:25.986953,10.011569,-11.184052,4.354937,-0.239459,0.163711,1.883908
2026-01-04T13:57:25.995953,9.403792,-11.198409,3.617947,0.312762,0.302989,1.874134
2026-01-04T13:57:26.005953,9.001798,-10.552347,3.498306,0.763581,0.289550,1.836260
2026-01-04T13:57:26.015953,8.977870,-9.552147,2.991028,0.948062,0.114842,1.831373
2026-01-04T13:57:26.024953,9.518648,-8.609375,2.804388,0.862541,-0.125838,1.847256
2026-01-04T13:57:26.034953,10.360921,-8.102097,3.632304,0.612086,-0.307876,1.836260
2026-01-04T13:57:26.044953,11.131410,-8.054240,4.354937,0.194255,-0.357966,1.880242
2026-01-04T13:57:26.053953,11.614760,-8.312665,4.661218,-0.263893,-0.277332,1.930333
2026-01-04T13:57:26.063953,11.763115,-9.332008,5.436492,-0.636521,-0.127059,1.891238
2026-01-04T13:57:26.072953,11.538190,-10.695917,5.201996,-0.912632,0.046425,1.860695
2026-01-04T13:57:26.082953,10.906485,-11.858828,4.240081,-0.847880,0.228463,1.788613
2026-01-04T13:57:26.092953,9.944570,-12.131610,3.689732,-0.414166,0.371405,1.621236
2026-01-04T13:57:26.101953,8.839086,-11.720045,3.239881,0.097738,0.423940,1.418428
2026-01-04T13:57:26.111953,7.963313,-10.853843,3.239881,0.558330,0.373849,1.191186
2026-01-04T13:57:26.120953,7.365107,-9.504291,3.019742,0.883310,0.270002,0.956614
2026-01-04T13:57:26.130953,7.068397,-8.082954,2.187039,0.895528,0.139277,0.766024
2026-01-04T13:57:26.140953,7.173682,-7.183253,2.005185,0.625525,-0.041538,0.541226
2026-01-04T13:57:26.149953,7.829315,-6.886543,2.349751,0.212581,-0.287106,0.284663
2026-01-04T13:57:26.159953,8.690731,-6.896114,2.258824,-0.217467,-0.489913,0.034208
2026-01-04T13:57:26.169953,9.695717,-7.307680,2.282752,-0.594982,-0.543669,-0.222354
2026-01-04T13:57:26.178953,10.298708,-7.877171,3.244667,-0.852767,-0.496022,-0.507018
2026-01-04T13:57:26.188953,10.796415,-8.346165,4.709074,-1.016479,-0.420275,-0.796568
2026-01-04T13:57:26.197953,11.064411,-9.274580,5.737988,-1.189965,-0.313984,-1.054353
2026-01-04T13:57:26.207953,11.212766,-10.872985,5.737988,-1.248608,-0.134390,-1.255938
2026-01-04T13:57:26.217953,10.911271,-12.447463,5.010570,-0.993266,0.074525,-1.458745
2026-01-04T13:57:26.226953,10.523633,-13.337593,3.163311,-0.456927,0.189368,-1.674992
2026-01-04T13:57:26.236953,10.155139,-13.509876,1.813759,0.210137,0.153938,-1.866803
2026-01-04T13:57:26.245953,10.088140,-12.504890,1.899901,0.869871,-0.014660,-2.035402
2026-01-04T13:57:26.255953,10.231709,-10.557133,2.541177,1.346346,-0.237015,-2.164905
2026-01-04T13:57:26.265953,10.523633,-7.934599,2.837887,1.407433,-0.432492,-2.260200
2026-01-04T13:57:26.274953,10.782058,-5.709274,2.699103,1.004262,-0.571769,-2.316400
2026-01-04T13:57:26.284953,11.011769,-3.981656,3.058027,0.301767,-0.645073,-2.376265
2026-01-04T13:57:26.294953,11.231909,-3.326023,3.522234,-0.679282,-0.642630,-2.405586
2026-01-04T13:57:26.303953,11.514262,-4.326223,3.967299,-1.711644,-0.601091,-2.426356
2026-01-04T13:57:26.313953,11.691331,-6.503691,4.192225,-2.329839,-0.505796,-2.513099
2026-01-04T13:57:26.322953,11.538190,-8.475377,3.010170,-2.316400,-0.300545,-2.676810
2026-01-04T13:57:26.332953,10.882557,-9.882357,1.225125,-1.747074,-0.026878,-2.880839
2026-01-04T13:57:26.342953,9.906285,-10.662417,0.569491,-0.786794,0.183259,-3.142290
2026-01-04T13:57:26.351953,8.949156,-10.514062,0.406779,0.268780,0.163711,-3.378084
2026-01-04T13:57:26.361953,8.695517,-9.327222,0.263210,1.070235,-0.097738,-3.495370
2026-01-04T13:57:26.370953,9.202795,-7.604390,0.143569,1.511280,-0.463035,-3.528356
2026-01-04T13:57:26.380953,10.332207,-5.450849,0.933200,1.604131,-0.785572,-3.523469
2026-01-04T13:57:26.390953,11.700902,-3.416950,2.392822,1.271821,-0.951727,-3.459939
2026-01-04T13:57:26.399953,12.906885,-2.134397,2.818745,0.454483,-0.960279,-3.286454
2026-01-04T13:57:26.409953,13.744373,-2.187039,2.809173,-0.571769,-0.840550,-3.079981
2026-01-04T13:57:26.419953,14.079368,-3.177668,2.368894,-1.523497,-0.634077,-2.885726
2026-01-04T13:57:26.428953,13.672588,-4.613361,1.521835,-2.152688,-0.379958,-2.785544
2026-01-04T13:57:26.438953,12.691531,-5.943771,0.559920,-2.291965,-0.142942,-2.776992
2026-01-04T13:57:26.447953,11.523833,-6.541976,-0.234496,-1.969429,0.013439,-2.853961
2026-01-04T13:57:26.457953,10.413563,-6.541976,-0.454636,-1.403768,0.031764,-2.959030
2026-01-04T13:57:26.467953,9.781858,-6.183053,-0.425922,-0.841772,-0.075747,-3.037221
2026-01-04T13:57:26.476953,9.509077,-5.661418,-0.267996,-0.357966,-0.229685,-3.103194
2026-01-04T13:57:26.486953,9.638289,-4.967499,-0.071784,0.028099,-0.337197,-3.137403
2026-01-04T13:57:26.495953,9.949356,-4.350151,-0.133998,0.324980,-0.387288,-3.158172
2026-01-04T13:57:26.505953,10.193424,-3.646661,0.445065,0.537561,-0.422718,-3.133738
2026-01-04T13:57:26.515953,10.552347,-2.746960,1.182054,0.602312,-0.497244,-3.068986
2026-01-04T13:57:26.524953,10.925627,-1.842473,0.995414,0.431270,-0.605978,-2.929709
2026-01-04T13:57:26.534953,11.404192,-1.177268,1.134197,0.123394,-0.708603,-2.794097
2026-01-04T13:57:26.544953,11.830114,-0.665204,1.617548,-0.240680,-0.768468,-2.687806
2026-01-04T13:57:26.553953,12.145967,-0.306281,1.933400,-0.680503,-0.778242,-2.508212
2026-01-04T13:57:26.563953,12.308679,-0.349352,2.201396,-1.155756,-0.701273,-2.332282
2026-01-04T13:57:26.572953,11.992826,-0.856630,1.947757,-1.567479,-0.525343,-2.151466
2026-01-04T13:57:26.582953,11.308479,-1.617548,1.641476,-1.802052,-0.289550,-2.001194
2026-01-04T13:57:26.592953,10.279565,-2.383251,1.287338,-1.822821,-0.069638,-1.896125
2026-01-04T13:57:26.601953,9.154939,-3.005385,0.918843,-1.673770,0.070860,-1.815491
2026-01-04T13:57:26.611953,8.001598,-3.373879,0.760917,-1.397659,0.131946,-1.771508
2026-01-04T13:57:26.620953,7.140182,-3.570091,0.622133,-1.009149,0.129503,-1.762956
2026-01-04T13:57:26.630953,6.446264,-3.383451,0.612562,-0.585208,0.047647,-1.777617
2026-01-04T13:57:26.640953,6.197410,-3.062812,0.837487,-0.194255,-0.116064,-1.792278
2026-01-04T13:57:26.649953,6.360122,-2.541177,1.000199,0.108733,-0.354301,-1.789834
2026-01-04T13:57:26.659953,7.068397,-1.818545,1.115055,0.318871,-0.613308,-1.770287
2026-01-04T13:57:26.669953,8.087740,-1.177268,1.268195,0.387288,-0.772133,-1.744630
2026-01-04T13:57:26.678953,9.020941,-0.689132,1.292124,0.329867,-0.766024,-1.673770
2026-01-04T13:57:26.688953,9.614361,-0.210568,1.134197,0.206472,-0.590095,-1.583362
2026-01-04T13:57:26.697953,9.461220,-0.052642,0.985842,-0.021991,-0.316428,-1.485623
2026-01-04T13:57:26.707953,8.786444,-0.248853,0.679561,-0.277332,-0.053756,-1.378111
2026-01-04T13:57:26.717953,7.858029,-0.641276,0.392422,-0.439822,0.102625,-1.285260
2026-01-04T13:57:26.726953,6.977470,-1.033699,0.521635,-0.493579,0.098960,-1.221730
2026-01-04T13:57:26.736953,6.455835,-1.497906,0.808774,-0.448374,-0.052534,-1.175304
2026-01-04T13:57:26.745953,6.412764,-1.521835,0.827916,-0.315206,-0.244346,-1.127656
2026-01-04T13:57:26.755953,6.546762,-1.459621,0.760917,-0.157603,-0.354301,-1.073900
2026-01-04T13:57:26.765953,6.652046,-1.124626,0.794417,-0.019547,-0.340862,-1.014036
2026-01-04T13:57:26.774953,6.503691,-0.851844,0.770488,0.042760,-0.230907,-0.927293
2026-01-04T13:57:26.784953,6.101697,-0.708275,0.574277,0.017104,-0.095294,-0.822224
2026-01-04T13:57:26.794953,5.446064,-0.780060,0.588634,-0.051312,0.006108,-0.728151
2026-01-04T13:57:26.803953,4.761716,-0.966700,0.531206,-0.124616,0.040317,-0.629191
2026-01-04T13:57:26.813953,4.019941,-1.287338,0.746560,-0.153938,0.012217,-0.544891
2026-01-04T13:57:26.822953,3.584448,-1.631905,0.971485,-0.101403,-0.072082,-0.466700
2026-01-04T13:57:26.832953,3.330809,-1.775474,1.378265,0.045204,-0.208915,-0.403170
2026-01-04T13:57:26.842953,3.397808,-1.703689,1.593619,0.202807,-0.344527,-0.335975
2026-01-04T13:57:26.851953,3.589233,-1.473978,1.402194,0.323758,-0.386066,-0.255341
2026-01-04T13:57:26.861953,3.780659,-1.048056,1.239482,0.406836,-0.313984,-0.174707
2026-01-04T13:57:26.870953,3.641875,-0.387637,1.172483,0.399505,-0.185702,-0.101403
2026-01-04T13:57:26.880953,3.316452,0.014356,1.100698,0.251676,-0.083077,-0.024434
2026-01-04T13:57:26.890953,3.062812,0.110069,1.234696,0.004886,-0.058643,0.056199
2026-01-04T13:57:26.899953,3.139383,0.028713,1.555334,-0.240680,-0.152716,0.128281
2026-01-04T13:57:26.909953,3.603590,-0.129212,1.579262,-0.453261,-0.357966,0.186924
2026-01-04T13:57:26.919953,4.666004,-0.473778,1.378265,-0.590095,-0.594982,0.234572
2026-01-04T13:57:26.928953,6.087340,-0.665204,1.201196,-0.604756,-0.792902,0.248011
2026-01-04T13:57:26.938953,7.786244,-0.660419,0.775274,-0.558330,-0.927293,0.251676
2026-01-04T13:57:26.947953,9.451649,-0.612562,0.430708,-0.494800,-1.003040,0.263893
2026-01-04T13:57:26.957953,11.274980,-0.354137,0.138783,-0.383623,-1.037248,0.277332
2026-01-04T13:57:26.967953,13.016954,0.057427,-0.090927,-0.273667,-1.034805,0.301767
2026-01-04T13:57:26.976953,14.701502,0.512064,-0.200997,-0.193033,-0.941954,0.364075
2026-01-04T13:57:26.986953,15.696916,1.076770,0.066999,-0.139277,-0.725707,0.449596
2026-01-04T13:57:26.995953,15.639488,0.392422,0.803988,0.039095,-0.464257,0.441044
2026-01-04T13:57:27.005953,15.419348,1.191625,0.722632,-0.039095,-0.188146,0.097738
2026-01-04T13:57:27.015953,13.241880,3.263810,0.464207,-0.048869,0.213802,0.034208
2026-01-04T13:57:27.024953,11.045269,3.120240,0.555134,-0.056199,0.658512,0.101403
2026-01-04T13:57:27.034953,9.164510,2.971885,0.775274,-0.024434,1.020144,-0.014660
2026-01-04T13:57:27.044953,7.733602,3.235096,1.052841,0.162490,1.312138,-0.252898
2026-01-04T13:57:27.053953,7.948956,2.919243,3.081955,0.383623,0.616973,0.273667
2026-01-04T13:57:27.063953,6.613761,3.775874,1.852044,0.514348,0.191811,0.268780
2026-01-04T13:57:27.072953,6.776473,4.197010,1.555334,0.612086,0.001221,0.103847
2026-01-04T13:57:27.082953,7.293323,4.551148,1.698904,0.607199,-0.142942,-0.015882
2026-01-04T13:57:27.092953,8.102097,4.766502,1.828116,0.470366,-0.222354,-0.087964
2026-01-04T13:57:27.101953,8.791230,4.646861,1.832902,0.257785,-0.217467,-0.142942
2026-01-04T13:57:27.111953,9.580861,4.168296,1.942971,0.014660,-0.164933,-0.167377
2026-01-04T13:57:27.120953,10.068997,3.426521,1.923829,-0.201585,-0.100181,-0.166155
2026-01-04T13:57:27.130953,10.499705,2.464607,2.024327,-0.340862,-0.018325,-0.155159
2026-01-04T13:57:27.140953,10.786844,1.655833,2.268395,-0.353080,0.085521,-0.150272
2026-01-04T13:57:27.149953,10.758130,0.904486,2.383251,-0.287106,0.212581,-0.151494
2026-01-04T13:57:27.159953,10.652846,0.277567,2.287538,-0.188146,0.337197,-0.131946
2026-01-04T13:57:27.169953,10.356136,-0.071784,2.038684,-0.056199,0.436157,-0.097738
2026-01-04T13:57:27.178953,10.021141,-0.239282,1.828116,0.067195,0.481361,-0.056199
2026-01-04T13:57:27.188953,9.781858,0.339780,1.445264,0.152716,0.475253,0.120951
2026-01-04T13:57:27.197953,9.609575,0.401994,1.383051,0.215024,0.471587,0.502131
2026-01-04T13:57:27.207953,9.513862,0.157926,1.521835,0.227241,0.477696,0.944397
2026-01-04T13:57:27.217953,11.471191,-0.244067,1.813759,0.164933,0.471587,1.337794
2026-01-04T13:57:27.226953,-0.306281,-9.456434,-3.651447,0.069638,0.587652,0.855211
2026-01-04T13:57:27.236953,9.183653,-1.048056,0.803988,0.079412,0.626747,0.559552
2026-01-04T13:57:27.245953,7.934599,-1.536192,1.957328,0.156381,0.761137,0.602312
2026-01-04T13:57:27.255953,7.207181,-1.272981,2.005185,0.186924,0.864984,0.679282
2026-01-04T13:57:27.265953,6.527620,-1.028913,1.808973,0.251676,0.948062,0.777020
2026-01-04T13:57:27.274953,5.680560,-0.598205,1.426122,0.259006,1.014036,0.875980
2026-01-04T13:57:27.284953,4.890929,-0.373280,1.095912,0.158824,1.034805,0.968832
2026-01-04T13:57:27.294953,4.187439,-0.306281,1.028913,0.028099,0.981049,1.053131
2026-01-04T13:57:27.303953,3.656232,-0.397208,0.952343,-0.118507,0.869871,1.136209
2026-01-04T13:57:27.313953,3.345165,-0.713061,1.043270,-0.268780,0.714712,1.211956
2026-01-04T13:57:27.322953,3.421736,-1.239482,1.057627,-0.349414,0.538783,1.280373
2026-01-04T13:57:27.332953,3.689732,-1.631905,1.177268,-0.360410,0.364075,1.378111
2026-01-04T13:57:27.342953,4.244867,-1.789831,1.320838,-0.350636,0.160046,1.536936
2026-01-04T13:57:27.351953,4.589433,-3.034099,1.378265,0.009773,0.195476,1.534493
2026-01-04T13:57:27.361953,5.623133,-2.416750,1.368694,0.384845,0.228463,1.511280
2026-01-04T13:57:27.370953,6.240481,-2.368894,0.933200,0.524122,0.221133,1.497841
2026-01-04T13:57:27.380953,6.656832,-2.100898,0.646062,0.643851,0.316428,1.519832
2026-01-04T13:57:27.390953,6.848258,-1.804188,0.468993,0.718377,0.443488,1.535714
2026-01-04T13:57:27.399953,7.054041,-1.588834,0.430708,0.718377,0.552222,1.545488
2026-01-04T13:57:27.409953,7.044469,-1.378265,0.770488,0.686612,0.637743,1.543045
2026-01-04T13:57:27.419953,7.030112,-1.316052,1.062413,0.612086,0.663399,1.558927
2026-01-04T13:57:27.428953,6.967899,-1.373480,1.105484,0.480139,0.654847,1.609018
2026-01-04T13:57:27.438953,6.814758,-1.713260,1.019342,0.417831,0.649960,1.663996
2026-01-04T13:57:27.447953,6.647261,-1.842473,0.914058,0.475253,0.649960,1.700648
2026-01-04T13:57:27.457953,6.470192,-1.751546,0.856630,0.566882,0.638964,1.738522
2026-01-04T13:57:27.467953,6.379265,-1.579262,0.885344,0.676838,0.609643,1.771508
2026-01-04T13:57:27.476953,6.226124,-1.182054,0.502492,0.747698,0.574213,1.805717
2026-01-04T13:57:27.486953,6.159125,-0.909272,0.229710,0.711046,0.554665,1.859473
2026-01-04T13:57:27.495953,6.096911,-0.847059,0.143569,0.601091,0.521678,1.913229
2026-01-04T13:57:27.505953,6.087340,-0.789631,0.320638,0.444709,0.422718,1.957211
2026-01-04T13:57:27.515953,6.446264,-1.239482,0.693918,0.245567,0.246789,1.979202
2026-01-04T13:57:27.524953,7.097111,-1.847259,0.933200,0.084299,0.037873,1.981646
2026-01-04T13:57:27.534953,7.977670,-2.498106,1.182054,0.029321,-0.144164,1.971872
2026-01-04T13:57:27.544953,8.901300,-3.110669,1.540977,0.083077,-0.241902,1.949881
2026-01-04T13:57:27.553953,9.767501,-3.483949,1.469193,0.204028,-0.278554,1.940107
2026-01-04T13:57:27.563953,10.518848,-3.862015,1.062413,0.408057,-0.232128,1.921781
2026-01-04T13:57:27.572953,10.911271,-3.895515,1.043270,0.676838,-0.125838,1.930333
2026-01-04T13:57:27.582953,10.992627,-3.536591,0.861416,0.901636,-0.019547,1.969429
2026-01-04T13:57:27.592953,10.983055,-3.077169,0.665204,1.016479,0.040317,2.035402
2026-01-04T13:57:27.601953,11.102696,-2.775674,0.363709,1.012814,0.054977,2.109928
2026-01-04T13:57:27.611953,11.279765,-2.833101,0.306281,0.921184,0.075747,2.191784
2026-01-04T13:57:27.620953,11.408978,-3.129811,0.162711,0.751364,0.091629,2.316400
2026-01-04T13:57:27.630953,11.389835,-3.646661,0.186640,0.621860,0.094073,2.434908
2026-01-04T13:57:27.640953,11.322836,-3.919443,0.229710,0.588873,0.064751,2.521651
2026-01-04T13:57:27.649953,11.136196,-3.900300,0.459421,0.557108,-0.019547,2.585181
2026-01-04T13:57:27.659953,11.107482,-3.885943,0.650847,0.448374,-0.167377,2.637715
2026-01-04T13:57:27.669953,11.207981,-4.158725,0.818345,0.276111,-0.335975,2.676810
2026-01-04T13:57:27.678953,11.432906,-4.661218,1.071984,0.090408,-0.474031,2.708575
2026-01-04T13:57:27.688953,11.643474,-5.532205,1.014556,-0.021991,-0.560774,2.720793
2026-01-04T13:57:27.697953,12.026326,-6.623332,1.272981,0.029321,-0.596204,2.733010
2026-01-04T13:57:27.707953,12.413963,-7.652246,1.674975,0.194255,-0.551000,2.765997
2026-01-04T13:57:27.717953,12.370892,-8.480163,1.115055,0.420275,-0.427605,2.851518
2026-01-04T13:57:27.726953,11.997612,-8.504091,0.172283,0.767246,-0.244346,2.946813
2026-01-04T13:57:27.736953,11.227123,-7.695317,0.167497,1.119104,-0.094073,3.018895
2026-01-04T13:57:27.745953,10.370493,-6.561119,0.674775,1.192408,-0.089186,3.064099
2026-01-04T13:57:27.755953,9.877571,-5.623133,1.493121,0.972497,-0.196698,3.095864
2026-01-04T13:57:27.765953,9.848857,-5.206781,3.139383,0.579100,-0.332310,3.087312
2026-01-04T13:57:27.774953,10.351350,-5.771488,4.335794,0.015882,-0.420275,3.092199
2026-01-04T13:57:27.784953,11.083554,-7.154539,4.603790,-0.518013,-0.423940,3.141068
2026-01-04T13:57:27.794953,11.801401,-8.920442,4.077369,-0.863763,-0.337197,3.216815
2026-01-04T13:57:27.803953,12.356535,-10.514062,3.287738,-1.000597,-0.179594,3.301115
2026-01-04T13:57:27.813953,12.476177,-11.657831,2.790031,-0.886976,0.023212,3.338988
2026-01-04T13:57:27.822953,12.155538,-12.227323,2.249253,-0.593760,0.232128,3.351205
2026-01-04T13:57:27.832953,11.246266,-11.901899,1.909472,-0.114842,0.411723,3.284010
2026-01-04T13:57:27.842953,10.073783,-10.896914,2.100898,0.379958,0.493579,3.137403
2026-01-04T13:57:27.851953,9.030512,-9.585647,2.627319,0.582765,0.409279,3.020117
2026-01-04T13:57:27.861953,8.575876,-8.571090,4.177868,0.558330,0.182037,2.847853
2026-01-04T13:57:27.870953,8.752945,-8.135596,6.259623,0.278554,-0.078190,2.613280
2026-01-04T13:57:27.880953,9.284151,-8.551947,6.379265,-0.333532,-0.274889,2.537533
2026-01-04T13:57:27.890953,9.944570,-9.638289,5.857629,-0.774576,-0.300545,2.463008
2026-01-04T13:57:27.899953,10.145567,-10.614561,5.383850,-0.943175,-0.129503,2.334726
2026-01-04T13:57:27.909953,9.662217,-11.538190,4.484149,-1.009149,0.141720,2.289522
2026-01-04T13:57:27.919953,8.738588,-12.256037,3.924229,-0.829554,0.419053,2.204001
2026-01-04T13:57:27.928953,7.408178,-12.385249,3.574876,-0.454483,0.618195,2.037846
2026-01-04T13:57:27.938953,6.029912,-12.241680,3.163311,-0.059864,0.668286,1.817934
2026-01-04T13:57:27.947953,4.934000,-11.657831,3.110669,0.329867,0.543669,1.550375
2026-01-04T13:57:27.957953,4.498506,-10.753344,3.048455,0.582765,0.259006,1.214399
2026-01-04T13:57:27.967953,4.780859,-9.877571,2.876172,0.574213,-0.103847,0.861319
2026-01-04T13:57:27.976953,5.580062,-9.250652,2.914457,0.441044,-0.371405,0.472809
2026-01-04T13:57:27.986953,6.709474,-8.920442,3.192025,0.312762,-0.467922,0.009773
2026-01-04T13:57:27.995953,7.585247,-8.987441,2.723032,0.040317,-0.431270,-0.382401
2026-01-04T13:57:28.005953,8.197810,-9.781858,1.612762,-0.246789,-0.290771,-0.734259
2026-01-04T13:57:28.015953,8.561519,-11.016555,1.043270,-0.388510,-0.174707,-1.072679
2026-01-04T13:57:28.024953,8.858229,-12.150753,1.119840,-0.403170,-0.152716,-1.337794
2026-01-04T13:57:28.034953,9.140582,-12.734601,1.507478,-0.208915,-0.196698,-1.565036
2026-01-04T13:57:28.044953,9.375078,-12.323036,2.359323,0.174707,-0.254119,-1.788613
2026-01-04T13:57:28.053953,9.509077,-10.863414,3.254238,0.555887,-0.288328,-1.996307
2026-01-04T13:57:28.063953,9.446863,-8.800801,3.914657,0.774576,-0.304210,-2.180788
2026-01-04T13:57:28.072953,9.470791,-6.843472,4.120440,0.744033,-0.307876,-2.354274
2026-01-04T13:57:28.082953,9.542576,-5.355136,4.053441,0.443488,-0.300545,-2.517985
2026-01-04T13:57:28.092953,9.705288,-4.374079,3.177668,-0.045204,-0.261450,-2.685363
2026-01-04T13:57:28.101953,9.604789,-3.948157,1.067198,-0.565661,-0.164933,-2.907717
2026-01-04T13:57:28.111953,9.422935,-4.311866,-1.220339,-1.114217,-0.098960,-3.103194
2026-01-04T13:57:28.120953,9.418149,-5.680560,-1.641476,-1.634675,-0.215024,-3.332880
2026-01-04T13:57:28.130953,10.269994,-7.484749,-0.914058,-1.839925,-0.412944,-3.562565
2026-01-04T13:57:28.140953,11.743973,-9.131011,0.473778,-1.921781,-0.648738,-3.726277
2026-01-04T13:57:28.149953,13.466805,-10.849057,1.383051,-1.893681,-0.714712,-3.720168
2026-01-04T13:57:28.159953,14.725430,-12.155538,1.579262,-1.648114,-0.516791,-3.623651
2026-01-04T13:57:28.169953,14.916856,-12.543176,1.459621,-1.164308,-0.117286,-3.516139
2026-01-04T13:57:28.178953,13.777872,-11.619546,1.234696,-0.575434,0.370184,-3.415957
2026-01-04T13:57:28.188953,11.748758,-9.552147,1.186840,-0.032986,0.748920,-3.393966
2026-01-04T13:57:28.197953,9.657432,-7.350751,0.890130,0.348193,0.856432,-3.491704
2026-01-04T13:57:28.207953,7.901100,-5.139782,-0.775274,0.561995,0.733038,-3.695733
2026-01-04T13:57:28.217953,6.513263,-3.579662,-1.966900,0.482583,0.310319,-3.957184
2026-01-04T13:57:28.226953,6.632904,-2.837887,-2.675175,0.298102,-0.251676,-4.162434
2026-01-04T13:57:28.236953,7.575676,-2.746960,-0.550349,0.200363,-0.730594,-4.257729
2026-01-04T13:57:28.245953,10.260423,-3.522234,1.110269,-0.018325,-1.306029,-4.373794
2026-01-04T13:57:28.255953,13.739587,-4.369294,2.842673,-0.500909,-1.666440,-4.337142
2026-01-04T13:57:28.265953,16.984255,-6.010770,2.689532,-1.049466,-1.578475,-4.062252
2026-01-04T13:57:28.274953,18.788443,-7.379464,1.435693,-1.144761,-0.952949,-3.760485
2026-01-04T13:57:28.284953,18.223736,-7.537391,1.392622,-0.878424,-0.050090,-3.456274
2026-01-04T13:57:28.294953,15.749558,-6.561119,1.536192,-0.668286,0.693942,-3.185050
2026-01-04T13:57:28.303953,12.638888,-5.273781,0.780060,-0.598647,1.036027,-3.004234
2026-01-04T13:57:28.313953,9.901499,-3.885943,-0.148355,-0.592539,0.971275,-2.946813
2026-01-04T13:57:28.322953,8.111668,-2.718246,-0.660419,-0.643851,0.590095,-3.000569
2026-01-04T13:57:28.332953,7.518248,-2.416750,-0.708275,-0.728151,0.029321,-3.100751
2026-01-04T13:57:28.342953,8.346165,-2.737389,-0.172283,-0.823446,-0.604756,-3.149620
2026-01-04T13:57:28.351953,10.389635,-3.412165,0.215354,-0.871093,-1.097113,-3.158172
2026-01-04T13:57:28.361953,12.547961,-4.192225,0.540777,-0.816115,-1.254716,-3.070208
2026-01-04T13:57:28.370953,14.103296,-4.517649,0.703489,-0.657290,-0.999375,-2.902831
2026-01-04T13:57:28.380953,14.232508,-4.388436,0.832702,-0.466700,-0.477696,-2.675589
2026-01-04T13:57:28.390953,12.916456,-3.737588,0.981057,-0.331088,0.046425,-2.427577
2026-01-04T13:57:28.399953,11.045269,-2.981456,1.048056,-0.273667,0.351858,-2.186897
2026-01-04T13:57:28.409953,9.279366,-2.177468,1.493121,-0.333532,0.387288,-1.995085
2026-01-04T13:57:28.419953,7.963313,-1.641476,2.005185,-0.518013,0.228463,-1.841147
2026-01-04T13:57:28.428953,7.384250,-1.383051,1.852044,-0.753807,-0.013439,-1.699426
2026-01-04T13:57:28.438953,7.188039,-1.540977,1.660618,-0.951727,-0.251676,-1.585805
2026-01-04T13:57:28.447953,7.350751,-1.646261,1.488335,-1.102000,-0.425162,-1.511280
2026-01-04T13:57:28.457953,7.657032,-2.029113,1.229910,-1.163087,-0.516791,-1.446528
2026-01-04T13:57:28.467953,7.929814,-2.445464,0.890130,-1.116661,-0.522900,-1.375668
2026-01-04T13:57:28.476953,8.145168,-2.823530,0.818345,-0.968832,-0.482583,-1.318246
2026-01-04T13:57:28.486953,8.145168,-2.957528,0.535992,-0.736703,-0.437379,-1.265712
2026-01-04T13:57:28.495953,8.097311,-2.919243,0.306281,-0.466700,-0.393397,-1.213178
2026-01-04T13:57:28.505953,7.858029,-2.746960,0.354137,-0.189368,-0.344527,-1.161865
2026-01-04T13:57:28.515953,7.513462,-2.435893,0.646062,0.091629,-0.288328,-1.115439
2026-01-04T13:57:28.524953,7.144968,-1.962114,0.923629,0.326201,-0.222354,-1.071457
2026-01-04T13:57:28.534953,6.699903,-1.588834,1.234696,0.481361,-0.164933,-1.026253
2026-01-04T13:57:28.544953,6.269195,-1.344766,1.416550,0.576656,-0.146607,-0.984714
2026-01-04T13:57:28.553953,6.005984,-1.167697,1.373480,0.619417,-0.149051,-0.928514
2026-01-04T13:57:28.563953,5.733202,-1.033699,0.966700,0.615752,-0.141720,-0.850324
2026-01-04T13:57:28.572953,5.570491,-0.851844,0.540777,0.602312,-0.113620,-0.772133
2026-01-04T13:57:28.582953,5.259424,-0.626919,0.315852,0.569326,-0.075747,-0.697607
2026-01-04T13:57:28.592953,4.867001,-0.387637,0.330209,0.482583,-0.043982,-0.615752
2026-01-04T13:57:28.601953,4.455435,-0.248853,0.253639,0.355523,-0.056199,-0.535117
2026-01-04T13:57:28.611953,4.168296,-0.143569,0.387637,0.235793,-0.109955,-0.476474
2026-01-04T13:57:28.620953,3.981656,-0.143569,0.703489,0.134390,-0.191811,-0.448374
2026-01-04T13:57:28.630953,3.938585,-0.378065,1.014556,0.051312,-0.284663,-0.415388
2026-01-04T13:57:28.640953,4.053441,-0.665204,1.172483,0.028099,-0.354301,-0.378736
2026-01-04T13:57:28.649953,4.110869,-0.957129,1.383051,0.073303,-0.387288,-0.345749
2026-01-04T13:57:28.659953,4.173082,-1.186840,1.430907,0.167377,-0.378736,-0.309097
2026-01-04T13:57:28.669953,4.292723,-1.335195,1.406979,0.311541,-0.327423,-0.261450
2026-01-04T13:57:28.678953,4.144368,-1.277767,1.708475,0.499687,-0.248011,-0.208915
2026-01-04T13:57:28.688953,4.110869,-0.966700,1.622333,0.673173,-0.182037,-0.151494
2026-01-04T13:57:28.697953,4.115654,-0.430708,1.287338,0.797789,-0.150272,-0.100181
2026-01-04T13:57:28.707953,4.297509,0.244067,0.947557,0.840550,-0.149051,-0.057421
2026-01-04T13:57:28.717953,4.599005,0.880558,0.713061,0.784350,-0.172263,-0.026878
2026-01-04T13:57:28.726953,5.111069,1.569691,0.363709,0.607199,-0.204028,0.000000
2026-01-04T13:57:28.736953,5.675775,1.976471,0.172283,0.312762,-0.245567,0.025656
2026-01-04T13:57:28.745953,6.269195,0.832702,0.373280,-0.001221,-0.338419,-0.200363
2026-01-04T13:57:28.755953,7.704888,1.770688,0.665204,-0.311541,-0.516791,-0.629191
2026-01-04T13:57:28.765953,8.327022,2.158325,0.234496,-0.641408,-0.663399,-0.649960
2026-01-04T13:57:28.774953,9.595218,2.392822,0.172283,-0.888197,-0.757472,-0.322536
2026-01-04T13:57:28.784953,10.882557,2.306680,0.000000,-1.111774,-0.868650,0.222354
2026-01-04T13:57:28.794953,12.356535,2.158325,0.665204,-0.405614,-0.647517,0.792902
2026-01-04T13:57:28.803953,15.744772,0.416351,0.200997,-0.830776,-0.561995,1.419650
2026-01-04T13:57:28.813953,6.695117,1.038485,-2.096112,-0.504574,-0.366519,0.108733
2026-01-04T13:57:28.822953,14.012369,1.780260,-1.545763,-0.866206,-0.086742,-0.208915
2026-01-04T13:57:28.832953,13.012169,1.033699,-0.579063,-0.719599,0.338419,0.375071
2026-01-04T13:57:28.842953,11.432906,1.244267,-0.033499,-0.619417,0.637743,0.535117
2026-01-04T13:57:28.851953,9.729216,1.301695,0.239282,-0.443488,0.723264,0.535117
2026-01-04T13:57:28.861953,8.384450,1.507478,0.368494,-0.262671,0.634077,0.480139
2026-01-04T13:57:28.870953,7.609175,1.684547,0.344566,-0.177150,0.477696,0.361632
2026-01-04T13:57:28.880953,7.384250,1.722832,0.502492,-0.026878,0.360410,0.244346
2026-01-04T13:57:28.890953,7.666603,1.947757,0.679561,0.130725,0.293215,0.052534
2026-01-04T13:57:28.899953,10.648060,-2.258824,-0.282353,-0.279776,0.008552,-0.103847
2026-01-04T13:57:28.909953,9.241080,2.383251,0.693918,0.089186,-0.338419,-0.001221
2026-01-04T13:57:28.919953,9.824929,2.569891,0.636490,0.274889,-0.409279,0.029321
2026-01-04T13:57:28.928953,10.250852,2.584248,0.808774,0.267558,-0.278554,-0.008552
2026-01-04T13:57:28.938953,10.384850,2.426322,0.856630,0.246789,-0.112399,-0.020769
2026-01-04T13:57:28.947953,10.246066,2.244467,0.894915,0.218689,0.034208,-0.010995
2026-01-04T13:57:28.957953,10.107282,2.038684,1.162911,0.179594,0.105068,-0.002443
2026-01-04T13:57:28.967953,9.997212,1.909472,1.253839,0.113620,0.102625,0.019547
2026-01-04T13:57:28.976953,10.088140,1.718046,1.249053,0.017104,0.068416,0.043982
2026-01-04T13:57:28.986953,10.217352,1.526620,1.373480,-0.112399,0.059864,0.079412
2026-01-04T13:57:28.995953,10.303494,1.258624,1.330409,-0.262671,0.101403,0.123394
2026-01-04T13:57:29.005953,10.121639,1.129412,1.115055,-0.377514,0.178372,0.199142
2026-01-04T13:57:29.015953,9.968498,0.851844,1.167697,-0.437379,0.246789,0.371405
2026-01-04T13:57:29.024953,9.710074,0.028713,1.292124,-0.472809,0.261450,0.604756
2026-01-04T13:57:29.034953,9.470791,-0.937986,1.354337,-0.460592,0.248011,0.693942
2026-01-04T13:57:29.044953,9.245866,-1.387837,1.517049,-0.288328,0.280997,0.755029
2026-01-04T13:57:29.053953,8.623732,-0.009571,3.718446,0.067195,0.464257,0.400727
2026-01-04T13:57:29.063953,8.590233,-2.512463,1.392622,0.182037,0.426383,0.427605
2026-01-04T13:57:29.072953,8.298308,-1.320838,1.521835,0.361632,0.499687,0.431270
2026-01-04T13:57:29.082953,7.814958,-1.076770,1.205982,0.475253,0.598647,0.456927
2026-01-04T13:57:29.092953,7.188039,-0.665204,1.205982,0.496022,0.667064,0.503352
2026-01-04T13:57:29.101953,6.565905,-0.363709,1.301695,0.414166,0.700051,0.563217
2026-01-04T13:57:29.111953,6.139982,-0.248853,1.292124,0.254119,0.685390,0.621860
2026-01-04T13:57:29.120953,5.704489,-0.540777,1.411765,0.084299,0.591317,0.679282
2026-01-04T13:57:29.130953,5.871986,-0.923629,1.875972,-0.056199,0.417831,0.752585
2026-01-04T13:57:29.140953,6.465406,-1.497906,1.856830,-0.157603,0.235793,0.849102
2026-01-04T13:57:29.149953,7.350751,-1.923829,1.263410,-0.196698,0.153938,0.985936
2026-01-04T13:57:29.159953,8.159525,-2.163111,0.985842,-0.175929,0.239459,1.149648
2026-01-04T13:57:29.169953,8.408378,-2.254038,0.593420,-0.183259,0.460592,1.365894
2026-01-04T13:57:29.178953,8.116454,-2.191825,0.028713,-0.223576,0.746477,1.637118
2026-01-04T13:57:29.188953,7.274180,-2.033899,-0.172283,-0.246789,1.009149,1.875355
2026-01-04T13:57:29.197953,6.163911,-1.832902,0.253639,-0.248011,1.144761,2.052506
2026-01-04T13:57:29.207953,5.173282,-1.588834,0.368494,-0.266337,1.109331,2.183231
2026-01-04T13:57:29.217953,4.498506,-1.698904,0.660419,-0.262671,0.940732,2.245540
2026-01-04T13:57:29.226953,4.335794,-1.871187,0.894915,-0.212581,0.685390,2.268753
2026-01-04T13:57:29.236953,4.627718,-2.067398,1.062413,-0.135612,0.399505,2.246761
2026-01-04T13:57:29.245953,5.426921,-2.373680,1.354337,0.000000,0.153938,2.186897
2026-01-04T13:57:29.255953,6.479763,-2.426322,1.708475,0.183259,0.003665,2.108706
2026-01-04T13:57:29.265953,7.503891,-2.364108,1.545763,0.343306,-0.019547,2.037846
2026-01-04T13:57:29.274953,8.360522,-2.201396,0.708275,0.441044,0.085521,2.006081
2026-01-04T13:57:29.284953,8.800801,-1.904686,0.014356,0.496022,0.293215,1.996307
2026-01-04T13:57:29.294953,8.599804,-1.622333,-0.306281,0.454483,0.536339,2.028072
2026-01-04T13:57:29.303953,7.791030,-1.421336,-0.507278,0.285884,0.742811,2.100154
2026-01-04T13:57:29.313953,6.661618,-1.488335,-0.119641,0.119729,0.888197,2.182010
2026-01-04T13:57:29.322953,5.522634,-1.545763,0.464207,-0.032986,0.897971,2.251648
2026-01-04T13:57:29.332953,4.579862,-1.741974,1.134197,-0.156381,0.762359,2.294409
2026-01-04T13:57:29.342953,3.732803,-2.163111,2.790031,-0.243124,0.536339,2.340835
2026-01-04T13:57:29.351953,4.158725,-2.464607,2.388036,-0.344527,0.172263,2.342056
2026-01-04T13:57:29.361953,5.020141,-3.196810,2.096112,-0.386066,-0.193033,2.331061
2026-01-04T13:57:29.370953,6.360122,-3.967299,1.378265,-0.323758,-0.456927,2.317622
2026-01-04T13:57:29.380953,7.657032,-4.599005,0.794417,-0.129503,-0.538783,2.278526
2026-01-04T13:57:29.390953,8.695517,-4.890929,0.153140,0.128281,-0.428827,2.247983
2026-01-04T13:57:29.399953,9.073583,-5.015356,-0.382851,0.394618,-0.188146,2.241874
2026-01-04T13:57:29.409953,8.867800,-5.115854,-0.669990,0.623082,0.056199,2.260200
2026-01-04T13:57:29.419953,8.331808,-5.130211,-0.531206,0.777020,0.182037,2.298074
2026-01-04T13:57:29.428953,7.853243,-5.206781,0.009571,0.913854,0.146607,2.320065
2026-01-04T13:57:29.438953,7.800601,-5.091926,0.516849,1.025031,-0.043982,2.321287
2026-01-04T13:57:29.447953,8.355736,-4.953142,1.067198,1.047022,-0.337197,2.307848
2026-01-04T13:57:29.457953,9.700502,-4.876572,0.957129,0.970053,-0.623082,2.320065
2026-01-04T13:57:29.467953,11.231909,-4.886143,0.540777,0.818559,-0.774576,2.367713
2026-01-04T13:57:29.476953,12.753744,-5.039284,0.000000,0.557108,-0.761137,2.458121
2026-01-04T13:57:29.486953,13.825728,-5.422136,-0.674775,0.245567,-0.599869,2.593733
2026-01-04T13:57:29.495953,14.280365,-5.915057,-1.100698,-0.035430,-0.365297,2.704910
2026-01-04T13:57:29.505953,14.031511,-6.570690,-1.421336,-0.257785,-0.138055,2.774549
2026-01-04T13:57:29.515953,13.505090,-7.111468,-0.741775,-0.229685,0.032986,2.772105
2026-01-04T13:57:29.524953,12.768101,-7.345965,0.220139,-0.048869,0.083077,2.718349
2026-01-04T13:57:29.534953,12.165110,-7.226324,0.827916,0.130725,0.068416,2.693915
2026-01-04T13:57:29.544953,11.404192,-7.044469,1.445264,0.338419,0.097738,2.687806
2026-01-04T13:57:29.553953,10.724630,-6.422335,1.942971,0.594982,0.226020,2.684141
2026-01-04T13:57:29.563953,9.791430,-5.785845,2.512463,0.526565,0.313984,2.717128
2026-01-04T13:57:29.572953,8.628518,-5.656632,2.488535,0.280997,0.384845,2.786766
2026-01-04T13:57:29.582953,7.872386,-5.752345,1.703689,-0.021991,0.328645,2.850296
2026-01-04T13:57:29.592953,7.494320,-5.919843,0.918843,-0.290771,0.128281,2.841744
2026-01-04T13:57:29.601953,7.494320,-6.254838,0.287138,-0.597426,-0.157603,2.820975
2026-01-04T13:57:29.611953,7.771887,-7.077969,0.210568,-0.833220,-0.417831,2.783101
2026-01-04T13:57:29.620953,8.097311,-7.838886,1.004985,-0.849102,-0.541226,2.711019
2026-01-04T13:57:29.630953,8.350950,-8.700302,2.306680,-0.814894,-0.538783,2.645045
2026-01-04T13:57:29.640953,8.346165,-9.719645,2.995813,-0.777020,-0.476474,2.613280
2026-01-04T13:57:29.649953,8.173882,-10.255637,3.579662,-0.568104,-0.360410,2.583959
2026-01-04T13:57:29.659953,7.690531,-10.365707,3.517449,-0.285884,-0.211359,2.503325
2026-01-04T13:57:29.669953,6.915257,-10.217352,2.746960,-0.208915,-0.147829,2.524094
2026-01-04T13:57:29.678953,6.369693,-9.714859,2.234896,-0.080634,-0.164933,2.502103
2026-01-04T13:57:29.688953,5.675775,-8.973084,1.593619,0.003665,-0.217467,2.367713
2026-01-04T13:57:29.697953,5.240281,-8.896514,0.684347,-0.390953,-0.381179,2.368934
2026-01-04T13:57:29.707953,5.144568,-9.437292,0.550349,-0.764803,-0.587652,2.317622
2026-01-04T13:57:29.717953,5.436492,-9.863214,1.263410,-0.907745,-0.799011,2.074497
2026-01-04T13:57:29.726953,5.929414,-10.537990,1.761117,-1.099557,-1.014036,1.871690
2026-01-04T13:57:29.736953,6.589833,-11.787044,1.651047,-1.154535,-1.125213,1.690874
2026-01-04T13:57:29.745953,7.245466,-13.002598,1.631905,-1.073900,-1.071457,1.507615
2026-01-04T13:57:29.755953,7.733602,-14.256437,1.172483,-1.053131,-0.959058,1.480737
2026-01-04T13:57:29.765953,7.996813,-15.572489,1.531406,-0.850324,-0.792902,1.437976
2026-01-04T13:57:29.774953,8.020741,-16.395620,2.024327,-0.445931,-0.577878,1.341459
2026-01-04T13:57:29.784953,7.714460,-16.486547,2.076970,-0.006108,-0.345749,1.321912
2026-01-04T13:57:29.794953,7.001398,-15.586846,2.096112,0.469144,-0.118507,1.233947
2026-01-04T13:57:29.803953,6.259623,-14.155938,1.746760,0.806341,0.010995,1.060461
2026-01-04T13:57:29.813953,5.814558,-12.748958,1.392622,0.812450,-0.004886,0.890641
2026-01-04T13:57:29.822953,5.709274,-11.791829,1.550549,0.663399,-0.090408,0.615752
2026-01-04T13:57:29.832953,5.986842,-11.198409,2.086541,0.455705,-0.161268,0.246789
2026-01-04T13:57:29.842953,6.565905,-11.499905,1.928615,0.019547,-0.210137,-0.029321
2026-01-04T13:57:29.851953,7.475177,-12.581461,0.880558,-0.456927,-0.229685,-0.239459
2026-01-04T13:57:29.861953,8.398807,-13.950155,-0.746560,-0.637743,-0.202807,-0.515570
2026-01-04T13:57:29.870953,9.006584,-15.227923,-2.005185,-0.526565,-0.167377,-0.816115
2026-01-04T13:57:29.880953,9.705288,-16.103697,-1.875972,-0.114842,-0.081855,-1.112996
2026-01-04T13:57:29.890953,9.829715,-15.787843,-0.990628,0.564439,0.135612,-1.384220
2026-01-04T13:57:29.899953,9.078368,-13.524233,-0.033499,1.266934,0.437379,-1.598023
2026-01-04T13:57:29.909953,8.049455,-10.480562,1.421336,1.665218,0.646295,-1.821599
2026-01-04T13:57:29.919953,7.034898,-7.657032,2.919243,1.681100,0.635299,-2.113593
2026-01-04T13:57:29.928953,6.618547,-5.551348,4.082155,1.358564,0.456927,-2.398256
2026-01-04T13:57:29.938953,6.809973,-4.359722,4.268795,0.668286,0.185702,-2.591289
2026-01-04T13:57:29.947953,7.484749,-4.378865,3.239881,-0.328645,-0.085521,-2.668258
2026-01-04T13:57:29.957953,8.609375,-5.699703,1.067198,-1.444085,-0.280997,-2.656041
2026-01-04T13:57:29.967953,9.767501,-7.891528,-1.593619,-2.453234,-0.378736,-2.587624
2026-01-04T13:57:29.976953,10.997412,-10.427920,-2.828316,-3.114190,-0.403170,-2.642602
2026-01-04T13:57:29.986953,12.160324,-12.782458,-3.469592,-2.951700,-0.184481,-2.789210
2026-01-04T13:57:29.995953,12.308679,-14.031511,-1.540977,-2.072054,0.278554,-2.904052
2026-01-04T13:57:30.005953,11.566904,-14.026726,-0.803988,-0.949284,0.805120,-2.950478
2026-01-04T13:57:30.015953,9.997212,-13.040883,-0.464207,0.128281,1.224173,-2.951700
2026-01-04T13:57:30.024953,8.322237,-11.499905,0.033499,1.003040,1.373224,-2.998125
2026-01-04T13:57:30.034953,7.149753,-9.767501,0.535992,1.593136,1.244943,-3.095864
2026-01-04T13:57:30.044953,6.604190,-8.011170,0.808774,1.893681,0.946840,-3.243693
2026-01-04T13:57:30.053953,6.513263,-6.317051,0.813559,1.938885,0.590095,-3.389079
2026-01-04T13:57:30.063953,6.900900,-4.532006,0.870987,1.751961,0.216246,-3.545461
2026-01-04T13:57:30.072953,7.537391,-2.943171,0.421136,1.376889,-0.098960,-3.715281
2026-01-04T13:57:30.082953,8.178667,-1.579262,-0.239282,0.893084,-0.289550,-3.857002
2026-01-04T13:57:30.092953,8.662017,-0.957129,-0.990628,0.201585,-0.405614,-3.992614
2026-01-04T13:57:30.101953,9.265009,-1.775474,-1.847259,-0.679282,-0.494800,-3.998723
2026-01-04T13:57:30.111953,10.040283,-3.775874,-2.005185,-1.402546,-0.538783,-3.794694
2026-01-04T13:57:30.120953,11.404192,-5.814558,-0.813559,-1.891238,-0.759916,-3.608991
2026-01-04T13:57:30.130953,13.610374,-7.609175,2.086541,-2.180788,-0.972497,-3.557678
2026-01-04T13:57:30.140953,15.936198,-9.858429,2.766102,-2.411695,-0.904080,-3.276680
2026-01-04T13:57:30.149953,17.324036,-11.921042,0.823130,-2.306626,-0.467922,-2.857626
2026-01-04T13:57:30.159953,17.008183,-12.653245,-0.344566,-1.601688,0.268780,-2.591289
2026-01-04T13:57:30.169953,14.916856,-11.715259,-0.177068,-0.662177,0.960279,-2.434908
2026-01-04T13:57:30.178953,12.078968,-9.743573,0.263210,0.113620,1.357342,-2.344500
2026-01-04T13:57:30.188953,9.293722,-7.240681,0.229710,0.641408,1.403768,-2.356717
2026-01-04T13:57:30.197953,7.178467,-4.728217,0.133998,0.818559,1.164308,-2.414138
2026-01-04T13:57:30.207953,5.905486,-2.813959,0.133998,0.693942,0.764803,-2.478890
2026-01-04T13:57:30.217953,5.407779,-1.435693,0.100498,0.423940,0.316428,-2.541198
2026-01-04T13:57:30.226953,5.632704,-0.808774,-0.047856,0.047647,-0.105068,-2.592511
2026-01-04T13:57:30.236953,6.470192,-1.119840,0.301495,-0.373849,-0.436157,-2.643824
2026-01-04T13:57:30.245953,7.776673,-1.914258,0.358923,-0.667064,-0.641408,-2.673145
2026-01-04T13:57:30.255953,8.982656,-2.641676,0.339780,-0.773355,-0.673173,-2.636493
2026-01-04T13:57:30.265953,9.978070,-3.206382,0.784845,-0.801455,-0.526565,-2.569298
2026-01-04T13:57:30.274953,10.317851,-3.617947,1.115055,-0.784350,-0.243124,-2.453234
2026-01-04T13:57:30.284953,9.963713,-3.689732,1.091127,-0.712268,0.065973,-2.317622
2026-01-04T13:57:30.294953,9.236295,-3.412165,1.234696,-0.629191,0.267558,-2.228435
2026-01-04T13:57:30.303953,8.504091,-2.967100,1.138983,-0.601091,0.283441,-2.142914
2026-01-04T13:57:30.313953,8.059026,-2.502892,0.885344,-0.596204,0.155159,-2.063502
2026-01-04T13:57:30.322953,8.006384,-2.158325,0.832702,-0.641408,-0.013439,-1.997528
2026-01-04T13:57:30.332953,8.145168,-2.067398,0.488135,-0.731816,-0.153938,-1.893681
2026-01-04T13:57:30.342953,8.417949,-2.139183,-0.052642,-0.764803,-0.217467,-1.793499
2026-01-04T13:57:30.351953,8.365307,-2.182254,-0.373280,-0.668286,-0.182037,-1.738522
2026-01-04T13:57:30.361953,8.159525,-2.124826,-0.301495,-0.459370,-0.107512,-1.695761
2026-01-04T13:57:30.370953,7.733602,-1.976471,0.277567,-0.193033,-0.048869,-1.679879
2026-01-04T13:57:30.380953,7.211967,-1.785045,0.851844,0.028099,-0.045204,-1.648114
2026-01-04T13:57:30.390953,6.790830,-1.804188,1.062413,0.185702,-0.091629,-1.606575
2026-01-04T13:57:30.399953,6.589833,-1.899901,1.115055,0.302989,-0.168598,-1.579697
2026-01-04T13:57:30.409953,6.474977,-2.148754,1.186840,0.419053,-0.260228,-1.541823
2026-01-04T13:57:30.419953,6.652046,-2.215753,1.205982,0.576656,-0.370184,-1.503949
2026-01-04T13:57:30.428953,7.130611,-2.091326,0.751346,0.725707,-0.466700,-1.453858
2026-01-04T13:57:30.438953,7.657032,-1.789831,0.205782,0.866206,-0.500909,-1.369559
2026-01-04T13:57:30.447953,8.015955,-1.182054,-0.148355,0.994488,-0.434935,-1.276708
2026-01-04T13:57:30.457953,7.934599,-0.325423,-0.311066,1.080009,-0.256563,-1.188743
2026-01-04T13:57:30.467953,7.264609,0.378065,-0.143569,1.048244,-0.007330,-1.109331
2026-01-04T13:57:30.476953,6.264409,0.856630,0.066999,0.917519,0.218689,-1.028696
2026-01-04T13:57:30.486953,5.024927,0.952343,0.468993,0.685390,0.337197,-0.959058
2026-01-04T13:57:30.495953,3.914657,0.626919,0.890130,0.387288,0.315206,-0.882089
2026-01-04T13:57:30.505953,3.172882,0.066999,1.215553,0.141720,0.177150,-0.808785
2026-01-04T13:57:30.515953,2.890529,-0.382851,1.540977,0.010995,-0.031764,-0.742811
2026-01-04T13:57:30.524953,3.034099,-0.698704,1.698904,0.007330,-0.260228,-0.674395
2026-01-04T13:57:30.534953,3.570091,-0.679561,1.588834,0.067195,-0.427605,-0.612086
2026-01-04T13:57:30.544953,4.216153,-0.282353,1.325623,0.083077,-0.481361,-0.544891
2026-01-04T13:57:30.553953,4.713860,0.153140,1.234696,0.069638,-0.386066,-0.483805
2026-01-04T13:57:30.563953,4.862215,0.521635,1.110269,-0.036651,-0.202807,-0.417831
2026-01-04T13:57:30.572953,4.737788,0.631705,0.875773,-0.252898,-0.030543,-0.340862
2026-01-04T13:57:30.582953,4.474578,0.387637,0.765703,-0.489913,0.042760,-0.277332
2026-01-04T13:57:30.592953,4.450650,-0.057427,0.746560,-0.686612,-0.032986,-0.227241
2026-01-04T13:57:30.601953,4.843072,-0.655633,0.732203,-0.808785,-0.207694,-0.195476
2026-01-04T13:57:30.611953,5.680560,-1.043270,0.803988,-0.791681,-0.439822,-0.182037
2026-01-04T13:57:30.620953,6.939185,-1.215553,0.612562,-0.702494,-0.668286,-0.166155
2026-01-04T13:57:30.630953,8.523234,-0.990628,0.306281,-0.601091,-0.858876,-0.139277
2026-01-04T13:57:30.640953,10.370493,-0.564706,-0.086141,-0.487470,-0.973718,-0.119729
2026-01-04T13:57:30.649953,12.011969,0.071784,-0.445065,-0.450818,-0.995710,-0.096516
2026-01-04T13:57:30.659953,13.562518,0.454636,-0.722632,-0.570548,-0.963945,-0.045204
2026-01-04T13:57:30.669953,14.792429,0.646062,-0.521635,-0.806341,-0.905302,0.017104
2026-01-04T13:57:30.678953,15.582060,0.406779,-0.229710,-1.148426,-0.812450,0.108733
2026-01-04T13:57:30.688953,15.567703,-0.248853,-0.210568,-1.419650,-0.596204,0.239459
2026-01-04T13:57:30.697953,14.438291,-0.861416,-0.224925,-1.080009,0.051312,0.437379
2026-01-04T13:57:30.707953,12.672388,-0.985842,0.741775,-0.695164,0.563217,0.568104
2026-01-04T13:57:30.717953,10.332207,-0.942772,0.981057,-0.299323,0.869871,0.653625
2026-01-04T13:57:30.726953,8.236095,-0.617348,0.914058,0.282219,1.076344,0.722042
2026-01-04T13:57:30.736953,6.585047,0.124426,0.937986,0.966388,1.144761,0.747698
2026-01-04T13:57:30.745953,6.096911,-6.977470,-2.383251,0.332310,0.902858,0.637743
2026-01-04T13:57:30.755953,5.503491,0.555134,0.684347,0.680503,0.218689,0.329867
2026-01-04T13:57:30.765953,6.077769,1.540977,1.033699,0.893084,-0.250454,-0.207694
2026-01-04T13:57:30.774953,7.331608,2.713460,0.612562,0.853989,-0.591317,-0.714712
2026-01-04T13:57:30.784953,8.901300,4.249652,0.717846,0.678060,-0.735481,-1.089783
2026-01-04T13:57:30.794953,1.852044,1.000199,1.268195,0.151494,-0.594982,0.107512
2026-01-04T13:57:30.803953,11.528619,4.508077,0.765703,-0.216246,-0.411723,0.276111
2026-01-04T13:57:30.813953,11.274980,3.388236,0.756131,-0.549778,-0.133168,0.249232
2026-01-04T13:57:30.822953,11.160124,2.679961,0.736989,-0.822224,0.105068,0.279776
2026-01-04T13:57:30.832953,10.743773,1.732403,1.067198,-0.984714,0.208915,0.293215
2026-01-04T13:57:30.842953,10.265208,1.148554,1.076770,-0.932180,0.233350,0.427605
2026-01-04T13:57:30.851953,10.073783,0.837487,1.009771,-0.680503,0.210137,0.715933
2026-01-04T13:57:30.861953,10.078568,0.636490,1.143769,-0.348193,0.150272,1.083674
2026-01-04T13:57:30.870953,11.251051,-0.918843,1.311266,-0.063529,0.013439,1.370781
2026-01-04T13:57:30.880953,8.188238,-0.301495,1.402194,0.527787,0.085521,-0.025656
2026-01-04T13:57:30.890953,11.026126,0.870987,0.923629,0.464257,0.107512,-0.239459
2026-01-04T13:57:30.899953,10.954341,0.933200,1.330409,0.401949,0.288328,0.012217
2026-01-04T13:57:30.909953,10.193424,0.411565,1.473978,0.351858,0.496022,0.117286
2026-01-04T13:57:30.919953,9.403792,0.162711,1.402194,0.354301,0.664621,0.135612
2026-01-04T13:57:30.928953,8.441878,-0.071784,1.646261,0.365297,0.769690,0.145385
2026-01-04T13:57:30.938953,7.613961,-0.468993,1.785045,0.370184,0.746477,0.191811
2026-01-04T13:57:30.947953,7.298108,-0.646062,1.392622,0.447153,0.598647,0.256563
2026-01-04T13:57:30.957953,7.350751,-0.492921,0.995414,0.531452,0.397062,0.323758
2026-01-04T13:57:30.967953,7.594818,-0.258424,0.827916,0.560774,0.265115,0.410501
2026-01-04T13:57:30.976953,7.810172,0.095712,1.038485,0.557108,0.270002,0.504574
2026-01-04T13:57:30.986953,7.728816,0.387637,1.205982,0.474031,0.378736,0.602312
2026-01-04T13:57:30.995953,7.374679,0.301495,1.239482,0.316428,0.480139,0.707381
2026-01-04T13:57:31.005953,7.054041,0.009571,1.383051,0.185702,0.496022,0.780685
2026-01-04T13:57:31.015953,7.006184,-0.459421,1.966900,0.129503,0.423940,0.829554
2026-01-04T13:57:31.024953,7.379464,-0.904486,2.177468,0.130725,0.354301,0.866206
2026-01-04T13:57:31.034953,7.948956,-1.320838,1.813759,0.160046,0.403170,0.911410
2026-01-04T13:57:31.044953,8.231309,-1.349551,1.378265,0.234572,0.588873,0.998153
2026-01-04T13:57:31.053953,8.159525,-1.019342,1.210768,0.221133,0.767246,1.214399
2026-01-04T13:57:31.063953,7.724031,-0.976271,0.856630,0.073303,0.862541,1.522275
2026-01-04T13:57:31.072953,9.226723,-0.162711,0.468993,0.223576,1.097113,1.346346
2026-01-04T13:57:31.082953,5.972485,0.133998,0.306281,0.213802,1.207069,1.347568
2026-01-04T13:57:31.092953,5.422136,-0.923629,0.052642,0.083077,1.121548,1.521054
2026-01-04T13:57:31.101953,5.316851,-0.492921,0.382851,-0.081855,0.951727,1.653000
2026-01-04T13:57:31.111953,5.474778,-0.526420,0.569491,-0.252898,0.780685,1.765400
2026-01-04T13:57:31.120953,5.929414,-0.894915,0.741775,-0.331088,0.681725,1.869247
2026-01-04T13:57:31.130953,6.795616,-0.502492,2.163111,-0.255341,0.668286,1.980424
2026-01-04T13:57:31.140953,6.599404,-2.512463,1.732403,-0.784350,0.355523,2.001194
2026-01-04T13:57:31.149953,7.355536,-2.670390,1.115055,-0.902858,0.287106,2.024406
2026-01-04T13:57:31.159953,7.460820,-3.206382,0.770488,-0.728151,0.410501,2.064724
2026-01-04T13:57:31.169953,7.054041,-3.503092,0.440279,-0.489913,0.568104,2.109928
2026-01-04T13:57:31.178953,6.379265,-3.603590,0.081355,-0.207694,0.684168,2.157575
2026-01-04T13:57:31.188953,5.493920,-3.483949,-0.009571,0.118507,0.715933,2.175901
2026-01-04T13:57:31.197953,4.756931,-3.163311,0.066999,0.430049,0.625525,2.162462
2026-01-04T13:57:31.207953,4.335794,-2.727817,0.014356,0.660956,0.431270,2.141693
2026-01-04T13:57:31.217953,4.302295,-2.416750,0.086141,0.802676,0.202807,2.111149
2026-01-04T13:57:31.226953,4.551148,-2.139183,0.215354,0.868650,-0.017104,2.085493
2026-01-04T13:57:31.236953,5.091926,-1.904686,0.320638,0.850324,-0.201585,2.057393
2026-01-04T13:57:31.245953,5.594419,-1.971685,0.535992,0.796568,-0.322536,2.020741
2026-01-04T13:57:31.255953,6.068198,-2.038684,0.602991,0.758694,-0.382401,1.976759
2026-01-04T13:57:31.265953,6.264409,-2.091326,0.583848,0.744033,-0.388510,1.916894
2026-01-04T13:57:31.274953,6.360122,-2.067398,0.598205,0.748920,-0.384845,1.852143
2026-01-04T13:57:31.284953,6.350551,-2.014756,0.655633,0.750142,-0.403170,1.781282
2026-01-04T13:57:31.294953,6.278766,-1.895115,0.521635,0.744033,-0.458148,1.688431
2026-01-04T13:57:31.303953,6.484549,-2.019542,0.545563,0.667064,-0.561995,1.606575
2026-01-04T13:57:31.313953,6.987041,-2.679961,0.751346,0.555887,-0.686612,1.517388
2026-01-04T13:57:31.322953,7.676174,-3.464807,0.765703,0.513126,-0.775798,1.439198
2026-01-04T13:57:31.332953,8.685946,-4.297509,1.033699,0.563217,-0.794124,1.382998
2026-01-04T13:57:31.342953,9.604789,-4.943571,1.177268,0.664621,-0.741590,1.372003
2026-01-04T13:57:31.351953,10.341779,-5.111069,0.995414,0.780685,-0.629191,1.435533
2026-01-04T13:57:31.361953,10.863414,-4.536791,1.033699,0.774576,-0.504574,1.571145
2026-01-04T13:57:31.370953,10.925627,-3.517449,1.335195,0.552222,-0.420275,1.718974
2026-01-04T13:57:31.380953,10.935199,-2.622533,1.651047,0.122173,-0.403170,1.836260
2026-01-04T13:57:31.390953,10.935199,-2.593819,1.612762,-0.498465,-0.436157,1.952324
2026-01-04T13:57:31.399953,11.021340,-3.938585,0.780060,-1.102000,-0.486248,2.043954
2026-01-04T13:57:31.409953,11.145767,-6.407978,0.004785,-1.302364,-0.514348,2.026850
2026-01-04T13:57:31.419953,11.337193,-8.953942,0.564706,-1.022588,-0.530230,1.943772
2026-01-04T13:57:31.428953,11.605189,-11.389835,0.622133,-0.398284,-0.548556,1.910786
2026-01-04T13:57:31.438953,11.992826,-13.012169,0.186640,0.588873,-0.520457,1.893681
2026-01-04T13:57:31.447953,12.184252,-13.131810,-0.177068,1.770287,-0.472809,1.899790
2026-01-04T13:57:31.457953,12.342178,-11.495119,-0.531206,2.703688,-0.483805,2.001194
2026-01-04T13:57:31.467953,12.480962,-8.901300,-0.904486,3.127629,-0.500909,2.153910
2026-01-04T13:57:31.476953,12.562318,-6.355336,-0.368494,3.055547,-0.458148,2.294409
2026-01-04T13:57:31.486953,12.452248,-4.249652,0.186640,2.491107,-0.350636,2.422691
2026-01-04T13:57:31.495953,11.988041,-3.220739,0.794417,1.589471,-0.222354,2.558303
2026-01-04T13:57:31.505953,11.432906,-3.211167,1.167697,0.604756,-0.130725,2.682919
2026-01-04T13:57:31.515953,10.834700,-3.852444,1.521835,-0.262671,-0.141720,2.764775
2026-01-04T13:57:31.524953,10.423135,-5.206781,1.579262,-0.957836,-0.274889,2.806314
2026-01-04T13:57:31.534953,10.485348,-7.408178,1.612762,-1.436754,-0.491135,2.838079
2026-01-04T13:57:31.544953,10.738987,-9.394221,1.172483,-1.480737,-0.648738,2.814866
2026-01-04T13:57:31.553953,10.853843,-10.839486,0.263210,-1.270599,-0.715933,2.820975
2026-01-04T13:57:31.563953,10.858628,-11.844471,-0.129212,-1.033583,-0.762359,2.886948
2026-01-04T13:57:31.572953,10.844272,-12.078968,-0.263210,-0.614530,-0.791681,2.894278
2026-01-04T13:57:31.582953,10.657631,-11.361121,-0.162711,-0.166155,-0.812450,2.880839
2026-01-04T13:57:31.592953,10.542776,-10.313065,0.870987,0.161268,-0.867428,2.780657
2026-01-04T13:57:31.601953,10.332207,-9.073583,1.564905,0.421496,-0.930958,2.616946
2026-01-04T13:57:31.611953,10.155139,-7.795816,1.732403,0.460592,-0.923628,2.504546
2026-01-04T13:57:31.620953,9.939785,-7.331608,2.172682,0.239459,-0.812450,2.401921
2026-01-04T13:57:31.630953,9.533005,-7.853243,2.651247,-0.202807,-0.621860,2.350608
2026-01-04T13:57:31.640953,8.944370,-8.853443,2.646461,-0.623082,-0.414166,2.351830
2026-01-04T13:57:31.649953,8.097311,-9.901499,2.306680,-0.831998,-0.227241,2.315178
2026-01-04T13:57:31.659953,7.221538,-10.734202,1.622333,-0.873537,-0.117286,2.280970
2026-01-04T13:57:31.669953,6.436692,-11.097911,1.459621,-0.689055,-0.100181,2.193005
2026-01-04T13:57:31.678953,5.838487,-11.136196,2.148754,-0.377514,-0.134390,1.985311
2026-01-04T13:57:31.688953,5.316851,-11.322836,2.076970,-0.173485,-0.188146,1.783726
2026-01-04T13:57:31.697953,5.154139,-11.777472,1.674975,-0.029321,-0.219911,1.595579
2026-01-04T13:57:31.707953,5.125426,-12.227323,1.823330,0.145385,-0.235793,1.341459
2026-01-04T13:57:31.717953,5.355136,-12.729816,1.990828,0.300545,-0.279776,1.119104
2026-01-04T13:57:31.726953,5.828915,-12.969098,1.785045,0.478918,-0.288328,0.943175
2026-01-04T13:57:31.736953,6.192624,-12.681959,1.684547,0.736703,-0.207694,0.731816
2026-01-04T13:57:31.745953,6.599404,-11.700902,2.215753,1.023809,-0.098960,0.442266
2026-01-04T13:57:31.755953,6.967899,-10.423135,2.421536,1.155756,0.002443,0.155159
2026-01-04T13:57:31.765953,7.264609,-9.265009,2.019542,1.064127,0.107512,-0.120951
2026-01-04T13:57:31.774953,7.671389,-8.614161,1.148554,0.794124,0.211359,-0.405614
2026-01-04T13:57:31.784953,8.006384,-8.513662,-0.153140,0.339641,0.270002,-0.646295
2026-01-04T13:57:31.794953,8.374879,-9.236295,-1.454836,-0.272445,0.256563,-0.833220
2026-01-04T13:57:31.803953,8.934799,-10.533205,-1.919043,-0.849102,0.162490,-1.011592
2026-01-04T13:57:31.813953,9.619146,-11.586047,-2.239681,-1.202182,0.029321,-1.219286
2026-01-04T13:57:31.822953,10.241280,-12.222537,-0.985842,-1.084896,0.010995,-1.462411
2026-01-04T13:57:31.832953,10.762916,-11.954541,0.090927,-0.690277,0.043982,-1.704313
2026-01-04T13:57:31.842953,11.619546,-10.207781,1.220339,-0.345749,0.042760,-1.908342
2026-01-04T13:57:31.851953,11.318050,-9.446863,3.177668,-0.089186,0.123394,-2.091602
2026-01-04T13:57:31.861953,11.365907,-8.059026,3.182454,-0.006108,0.249232,-2.263866
2026-01-04T13:57:31.870953,11.346764,-7.317251,2.919243,-0.098960,0.387288,-2.458121
2026-01-04T13:57:31.880953,11.251051,-6.943971,2.062613,-0.278554,0.529009,-2.671923
2026-01-04T13:57:31.890953,10.968698,-6.738188,0.512064,-0.346971,0.698829,-2.944369
2026-01-04T13:57:31.899953,10.246066,-6.451049,-1.263410,-0.248011,0.857654,-3.263241
2026-01-04T13:57:31.909953,9.643075,-6.321837,-1.679761,-0.301767,0.795346,-3.577226
2026-01-04T13:57:31.919953,9.609575,-6.398407,-2.086541,-0.206472,0.669508,-3.810576
2026-01-04T13:57:31.928953,9.829715,-6.264409,-0.086141,0.026878,0.536339,-3.999944
2026-01-04T13:57:31.938953,10.849057,-5.685346,1.349551,0.040317,0.405614,-4.108678
2026-01-04T13:57:31.947953,12.040683,-5.436492,1.483550,-0.188146,0.442266,-4.063474
2026-01-04T13:57:31.957953,12.299108,-6.809973,0.406779,-0.940732,0.408057,-3.952297
2026-01-04T13:57:31.967953,13.792229,-5.714060,0.775274,-1.475850,0.496022,-3.922975
2026-01-04T13:57:31.976953,13.830514,-6.307480,0.248853,-1.776395,0.652403,-3.942523
2026-01-04T13:57:31.986953,13.366307,-6.403193,-0.669990,-1.836260,0.783129,-4.032931
2026-01-04T13:57:31.995953,12.509676,-6.317051,-1.545763,-1.660331,0.758694,-4.274834
2026-01-04T13:57:32.005953,11.925827,-5.943771,-2.191825,-1.345124,0.563217,-4.524067
2026-01-04T13:57:32.015953,11.935399,-6.302694,-1.727617,-0.933401,0.344527,-4.629135
2026-01-04T13:57:32.024953,12.806386,-6.991827,-0.813559,-0.741590,-0.035430,-4.593705
2026-01-04T13:57:32.034953,14.404792,-7.757530,-0.669990,-0.538783,-0.357966,-4.482528
2026-01-04T13:57:32.044953,16.070196,-7.881957,1.641476,-0.213802,-0.390953,-4.348137
2026-01-04T13:57:32.053953,16.855042,-7.767102,2.282752,-0.053756,-0.095294,-4.048813
2026-01-04T13:57:32.063953,16.165909,-7.264609,1.282552,0.020769,0.411723,-3.672521
2026-01-04T13:57:32.072953,14.242080,-6.470192,1.081555,0.219911,0.900415,-3.440392
2026-01-04T13:57:32.082953,11.949756,-5.077569,1.339980,0.276111,1.067792,-3.247358
2026-01-04T13:57:32.092953,10.121639,-4.000799,0.914058,0.046425,0.873537,-3.133738
2026-01-04T13:57:32.101953,9.102297,-3.359522,0.157926,-0.226020,0.486248,-3.114190
2026-01-04T13:57:32.111953,8.973084,-2.694318,-0.038285,-0.475253,0.047647,-3.117855
2026-01-04T13:57:32.120953,9.470791,-2.536391,-0.368494,-0.764803,-0.318871,-3.111746
2026-01-04T13:57:32.130953,10.351350,-3.019742,-0.392422,-0.992044,-0.557108,-3.042108
2026-01-04T13:57:32.140953,11.495119,-3.972085,0.277567,-1.078787,-0.613308,-2.930930
2026-01-04T13:57:32.149953,12.189038,-4.948357,0.473778,-1.051909,-0.474031,-2.740340
2026-01-04T13:57:32.159953,12.189038,-5.709274,0.177068,-0.846659,-0.161268,-2.522872
2026-01-04T13:57:32.169953,11.442477,-5.742774,0.220139,-0.478918,0.201585,-2.301739
2026-01-04T13:57:32.178953,10.174281,-5.106283,0.406779,-0.076969,0.463035,-2.118480
2026-01-04T13:57:32.188953,8.752945,-3.948157,0.440279,0.233350,0.549778,-1.962098
2026-01-04T13:57:32.197953,7.623532,-2.708675,0.669990,0.365297,0.476474,-1.836260
2026-01-04T13:57:32.207953,6.934399,-1.612762,0.866201,0.326201,0.298102,-1.745852
2026-01-04T13:57:32.217953,6.695117,-0.803988,1.100698,0.150272,0.052534,-1.681100
2026-01-04T13:57:32.226953,6.881757,-0.229710,1.249053,-0.127059,-0.229685,-1.594357
2026-01-04T13:57:32.236953,7.499106,-0.019142,1.062413,-0.482583,-0.476474,-1.475850
2026-01-04T13:57:32.245953,8.116454,-0.200997,0.660419,-0.816115,-0.571769,-1.324355
2026-01-04T13:57:32.255953,8.341379,-0.492921,0.148355,-1.017701,-0.491135,-1.167974
2026-01-04T13:57:32.265953,8.011170,-0.794417,-0.564706,-1.092226,-0.302989,-1.028696
2026-01-04T13:57:32.274953,7.207181,-1.201196,-0.354137,-1.021366,-0.122173,-0.935845
2026-01-04T13:57:32.284953,6.364908,-1.670190,0.215354,-0.857654,-0.069638,-0.897971
2026-01-04T13:57:32.294953,5.589633,-2.153540,0.717846,-0.609643,-0.144164,-0.889419
2026-01-04T13:57:32.303953,5.192425,-2.794816,1.186840,-0.211359,-0.250454,-0.929736
2026-01-04T13:57:32.313953,5.374279,-3.182454,1.158126,0.456927,-0.267558,-0.957836
2026-01-04T13:57:32.322953,4.905286,-3.713660,3.302095,0.697607,-0.444709,-0.970053
2026-01-04T13:57:32.332953,6.015556,-2.158325,1.464407,0.961501,-0.497244,-0.949284
2026-01-04T13:57:32.342953,6.307480,-0.971485,0.698704,1.139874,-0.361632,-0.871093
2026-01-04T13:57:32.351953,6.101697,0.282353,0.248853,1.053131,-0.146607,-0.739146
2026-01-04T13:57:32.361953,5.402993,1.397408,0.071784,0.744033,0.085521,-0.582765
2026-01-04T13:57:32.370953,4.331008,2.005185,-0.124426,0.223576,0.246789,-0.443488
2026-01-04T13:57:32.380953,2.909672,0.622133,0.143569,-0.036651,0.260228,-0.610865
2026-01-04T13:57:32.390953,2.440679,0.947557,0.488135,-0.532674,0.108733,-1.016479
2026-01-04T13:57:32.399953,1.411765,0.689132,0.531206,-0.977384,-0.073303,-1.186300
2026-01-04T13:57:32.409953,1.177268,0.435493,0.488135,-1.397659,-0.368962,-0.979827
2026-01-04T13:57:32.419953,0.521635,-0.607776,0.416351,-1.797165,-0.585208,-0.350636
2026-01-04T13:57:32.428953,1.325623,-1.306481,4.551148,-1.044579,-0.515570,0.590095
2026-01-04T13:57:32.438953,4.723431,-1.526620,1.143769,-0.742811,-1.121548,1.091005
2026-01-04T13:57:32.447953,13.351950,-57.116676,-6.063412,-0.518013,-1.191186,1.585805
2026-01-04T13:57:32.457953,12.806386,-1.411765,2.081755,-0.140498,-0.609643,0.351858
2026-01-04T13:57:32.467953,5.857629,-1.402194,1.277767,0.232128,-0.248011,0.190589
2026-01-04T13:57:32.476953,5.039284,-1.028913,0.942772,0.344527,-0.054977,0.332310
2026-01-04T13:57:32.486953,4.345365,-0.464207,0.397208,0.454483,0.012217,0.289550
2026-01-04T13:57:32.495953,4.149154,0.148355,0.291924,0.569326,-0.090408,0.204028
2026-01-04T13:57:32.505953,4.575076,0.358923,0.636490,0.494800,-0.388510,0.036651
2026-01-04T13:57:32.515953,5.838487,0.751346,0.454636,0.257785,-0.856432,-0.111177
2026-01-04T13:57:32.524953,7.532605,0.535992,0.358923,0.118507,-1.220508,-0.263893
2026-01-04T13:57:32.534953,9.724431,1.909472,0.143569,0.048869,-1.499062,-0.277332
2026-01-04T13:57:32.544953,11.552547,2.277967,-0.124426,0.035430,-1.688431,0.037873
2026-01-04T13:57:32.553953,18.137594,-12.591032,-24.727428,0.135612,-1.783726,0.461814
2026-01-04T13:57:32.563953,15.538989,1.349551,0.454636,-0.124616,-1.260825,0.202807
2026-01-04T13:57:32.572953,16.266409,2.651247,-1.191625,-0.257785,-0.750142,0.174707
2026-01-04T13:57:32.582953,16.127625,2.852244,-1.067198,-0.447153,-0.274889,0.270002
2026-01-04T13:57:32.592953,14.720644,2.971885,-0.248853,-0.697607,0.259006,0.372627
2026-01-04T13:57:32.601953,12.342178,2.455035,0.440279,-0.932180,0.701273,0.450818
2026-01-04T13:57:32.611953,9.853643,1.512263,0.617348,-1.036027,0.885754,0.450818
2026-01-04T13:57:32.620953,7.915457,1.143769,0.430708,-0.927293,0.897971,0.416610
2026-01-04T13:57:32.630953,6.747759,0.679561,0.966700,-0.618195,0.868650,0.472809
2026-01-04T13:57:32.640953,6.240481,0.186640,1.009771,-0.797789,0.594982,0.580321
2026-01-04T13:57:32.649953,5.857629,-0.033499,1.306481,0.129503,-0.149051,0.326201
2026-01-04T13:57:32.659953,7.178467,0.665204,0.416351,0.890641,-0.559552,0.127059
2026-01-04T13:57:32.669953,8.207381,0.985842,0.425922,1.230282,-0.741590,-0.090408
2026-01-04T13:57:32.678953,10.068997,2.306680,0.540777,1.299920,-0.814894,-0.515570
2026-01-04T13:57:32.688953,10.719845,3.249453,0.382851,1.248608,-0.715933,-0.823446
2026-01-04T13:57:32.697953,3.512663,1.148554,0.267996,0.917519,-0.551000,-0.813672
2026-01-04T13:57:32.707953,11.083554,4.766502,0.497707,0.452040,-0.145385,-0.304210
2026-01-04T13:57:32.717953,11.222337,4.163511,0.636490,-0.067195,0.098960,-0.136833
2026-01-04T13:57:32.726953,11.030912,3.584448,0.665204,-0.428827,0.185702,-0.122173
2026-01-04T13:57:32.736953,10.858628,2.847458,0.622133,-0.681725,0.195476,-0.097738
2026-01-04T13:57:32.745953,10.628917,2.421536,0.406779,-0.759916,0.233350,0.045204
2026-01-04T13:57:32.755953,10.470991,1.789831,0.564706,-0.834441,0.273667,0.372627
2026-01-04T13:57:32.765953,10.437492,0.904486,0.995414,-0.751364,0.127059,0.593760
2026-01-04T13:57:32.774953,10.475777,-0.703489,1.057627,-0.659734,0.063529,0.825889
2026-01-04T13:57:32.784953,9.791430,-1.091127,1.014556,-0.504574,0.117286,0.825889
2026-01-04T13:57:32.794953,13.170095,-0.057427,1.603191,-0.092851,0.349414,-0.114842
2026-01-04T13:57:32.803953,9.111868,-1.268195,2.033899,0.378736,0.574213,-0.147829
2026-01-04T13:57:32.813953,8.437092,-1.349551,2.019542,0.504574,0.582765,-0.046425
2026-01-04T13:57:32.822953,8.135596,-1.316052,1.799402,0.586430,0.537561,-0.037873
2026-01-04T13:57:32.832953,7.934599,-0.985842,1.775474,0.724486,0.510683,-0.031764
2026-01-04T13:57:32.842953,7.848458,-0.713061,1.741974,0.788015,0.515570,-0.043982
2026-01-04T13:57:32.851953,8.145168,-0.411565,1.292124,0.577878,0.390953,0.081855
2026-01-04T13:57:32.861953,7.996813,-0.220139,1.875972,0.368962,0.400727,0.156381
2026-01-04T13:57:32.870953,8.197810,-0.325423,1.674975,0.123394,0.436157,0.243124
2026-01-04T13:57:32.880953,8.212167,-0.813559,1.493121,-0.123394,0.445931,0.361632
2026-01-04T13:57:32.890953,8.173882,-1.244267,1.421336,-0.301767,0.433714,0.491135
2026-01-04T13:57:32.899953,8.255237,-1.636690,1.225125,-0.448374,0.362853,0.680503
2026-01-04T13:57:32.909953,8.173882,-1.794616,1.095912,-0.416610,0.338419,1.023809
2026-01-04T13:57:32.919953,9.552147,-1.679761,1.091127,-0.180816,0.466700,0.924849
2026-01-04T13:57:32.928953,6.637689,-5.867201,1.004985,0.102625,0.516791,0.905302
2026-01-04T13:57:32.938953,7.676174,-2.857030,1.043270,0.293215,0.521678,0.934623
2026-01-04T13:57:32.947953,7.365107,-2.684746,0.736989,0.500909,0.597426,1.012814
2026-01-04T13:57:32.957953,6.738188,-2.469392,0.736989,0.689055,0.712268,1.112996
2026-01-04T13:57:32.967953,6.106483,-1.847259,0.708275,0.794124,0.803898,1.225395
2026-01-04T13:57:32.976953,5.383850,-1.383051,0.655633,0.785572,0.839328,1.345124
2026-01-04T13:57:32.986953,4.733003,-1.052841,0.684347,0.679282,0.810007,1.462411
2026-01-04T13:57:32.995953,4.187439,-0.947557,0.736989,0.530230,0.715933,1.582140
2026-01-04T13:57:33.005953,3.976871,-1.052841,0.713061,0.390953,0.569326,1.694539
2026-01-04T13:57:33.015953,3.972085,-1.359123,1.000199,0.307876,0.406836,1.789834
2026-01-04T13:57:33.024953,4.326223,-1.708475,1.057627,0.283441,0.263893,1.875355
2026-01-04T13:57:33.034953,4.847858,-1.938186,0.679561,0.298102,0.167377,1.963320
2026-01-04T13:57:33.044953,5.379065,-1.986042,0.047856,0.342084,0.145385,2.058615
2026-01-04T13:57:33.053953,5.795416,-1.971685,-0.277567,0.392175,0.168598,2.128254
2026-01-04T13:57:33.063953,6.096911,-1.842473,-0.224925,0.474031,0.211359,2.162462
2026-01-04T13:57:33.072953,6.474977,-1.531406,0.138783,0.551000,0.228463,2.164905
2026-01-04T13:57:33.082953,6.766902,-1.268195,0.416351,0.555887,0.191811,2.155132
2026-01-04T13:57:33.092953,7.393821,-1.215553,0.736989,0.467922,0.117286,2.138027
2026-01-04T13:57:33.101953,8.020741,-1.497906,0.842273,0.310319,0.039095,2.144136
2026-01-04T13:57:33.111953,8.681160,-2.009970,0.770488,0.172263,0.007330,2.179566
2026-01-04T13:57:33.120953,9.217152,-2.407179,0.382851,0.128281,0.053756,2.233322
2026-01-04T13:57:33.130953,9.446863,-2.718246,-0.105284,0.186924,0.157603,2.294409
2026-01-04T13:57:33.140953,9.312865,-2.818745,-0.406779,0.310319,0.279776,2.362826
2026-01-04T13:57:33.149953,8.906085,-2.694318,-0.545563,0.441044,0.367740,2.438573
2026-01-04T13:57:33.159953,8.528019,-2.431107,-0.641276,0.507018,0.398284,2.506990
2026-01-04T13:57:33.169953,8.207381,-2.474178,-0.689132,0.505796,0.394618,2.552194
2026-01-04T13:57:33.178953,7.886743,-2.938386,-0.866201,0.471587,0.346971,2.572963
2026-01-04T13:57:33.188953,7.843672,-3.766302,-0.770488,0.459370,0.234572,2.585181
2026-01-04T13:57:33.197953,8.011170,-4.555934,-0.153140,0.510683,0.037873,2.579072
2026-01-04T13:57:33.207953,8.571090,-5.163711,0.330209,0.631634,-0.197920,2.544864
2026-01-04T13:57:33.217953,9.399007,-5.374279,0.315852,0.772133,-0.416610,2.514320
2026-01-04T13:57:33.226953,10.480562,-5.111069,0.459421,0.904080,-0.554665,2.491107
2026-01-04T13:57:33.236953,11.346764,-4.450650,0.808774,0.994488,-0.548556,2.465451
2026-01-04T13:57:33.245953,11.830114,-3.799802,0.689132,0.965166,-0.373849,2.480112
2026-01-04T13:57:33.255953,11.653046,-3.081955,0.512064,0.831998,-0.070860,2.503325
2026-01-04T13:57:33.265953,10.729416,-2.742174,0.354137,0.596204,0.257785,2.544864
2026-01-04T13:57:33.274953,9.365507,-2.991028,0.014356,0.252898,0.485026,2.619389
2026-01-04T13:57:33.284953,8.001598,-3.914657,-0.612562,-0.090408,0.518013,2.684141
2026-01-04T13:57:33.294953,7.130611,-5.240281,-0.961914,-0.316428,0.318871,2.724458
2026-01-04T13:57:33.303953,7.006184,-6.661618,-0.780060,-0.398284,-0.069638,2.718349
2026-01-04T13:57:33.313953,7.810172,-7.996813,-0.181854,-0.335975,-0.560774,2.671923
2026-01-04T13:57:33.322953,9.370293,-8.896514,0.646062,-0.107512,-1.023809,2.603507
2026-01-04T13:57:33.332953,11.375478,-9.097511,0.708275,0.196698,-1.275486,2.553416
2026-01-04T13:57:33.342953,13.103096,-8.776873,0.311066,0.502131,-1.187521,2.565633
2026-01-04T13:57:33.351953,13.773086,-7.972884,0.133998,0.796568,-0.780685,2.579072
2026-01-04T13:57:33.361953,13.284951,-6.967899,0.574277,0.933401,-0.256563,2.568076
2026-01-04T13:57:33.370953,11.916256,-6.183053,1.033699,0.748920,0.182037,2.608394
2026-01-04T13:57:33.380953,10.222138,-6.178267,0.823130,0.267558,0.428827,2.715906
2026-01-04T13:57:33.390953,8.796015,-6.891329,0.320638,-0.230907,0.454483,2.783101
2026-01-04T13:57:33.399953,7.829315,-7.953742,0.148355,-0.678060,0.296880,2.831970
2026-01-04T13:57:33.409953,7.422535,-9.217152,0.186640,-1.012814,-0.051312,2.906496
2026-01-04T13:57:33.419953,7.791030,-10.456634,0.459421,-1.081231,-0.452040,2.906496
2026-01-04T13:57:33.428953,8.513662,-11.337193,0.588634,-0.922406,-0.746477,2.879618
2026-01-04T13:57:33.438953,9.351150,-11.605189,1.043270,-0.586430,-0.831998,2.858848
2026-01-04T13:57:33.447953,9.772287,-11.188838,1.837687,-0.156381,-0.689055,2.798983
2026-01-04T13:57:33.457953,9.552147,-10.303494,2.086541,0.139277,-0.428827,2.781879
2026-01-04T13:57:33.467953,8.886943,-9.298508,2.206182,0.266337,-0.191811,2.764775
2026-01-04T13:57:33.476953,8.049455,-8.551947,2.426322,0.298102,-0.057421,2.662150
2026-01-04T13:57:33.486953,7.561319,-8.456235,1.785045,0.245567,0.018325,2.636493
2026-01-04T13:57:33.495953,7.192824,-8.408378,2.880958,-0.331088,-0.213802,2.586402
2026-01-04T13:57:33.505953,7.278966,-10.030712,2.761317,-0.593760,-0.409279,2.480112
2026-01-04T13:57:33.515953,7.633104,-10.782058,1.856830,-0.665842,-0.521678,2.453234
2026-01-04T13:57:33.524953,7.881957,-11.413763,1.153340,-0.551000,-0.519235,2.397034
2026-01-04T13:57:33.534953,7.934599,-11.696116,1.124626,-0.291993,-0.400727,2.305404
2026-01-04T13:57:33.544953,7.862815,-11.897113,1.258624,-0.106290,-0.238237,2.216218
2026-01-04T13:57:33.553953,7.532605,-12.011969,1.205982,0.068416,-0.061086,2.085493
2026-01-04T13:57:33.563953,6.924828,-11.901899,1.153340,0.250454,0.113620,1.898568
2026-01-04T13:57:33.572953,6.254838,-11.901899,1.244267,0.294436,0.234572,1.693318
2026-01-04T13:57:33.582953,5.632704,-11.743973,1.607976,0.307876,0.259006,1.461189
2026-01-04T13:57:33.592953,5.144568,-11.255837,2.067398,0.395840,0.205250,1.172861
2026-01-04T13:57:33.601953,4.910071,-10.442277,2.416750,0.320093,0.084299,0.952949
2026-01-04T13:57:33.611953,5.039284,-9.848857,2.550748,0.047647,-0.048869,0.777020
2026-01-04T13:57:33.620953,5.417350,-9.528219,2.694318,-0.238237,-0.097738,0.569326
2026-01-04T13:57:33.630953,5.867201,-9.379864,2.478964,-0.477696,-0.079412,0.306654
2026-01-04T13:57:33.640953,6.474977,-9.906285,2.354537,-0.558330,0.001221,-0.065973
2026-01-04T13:57:33.649953,7.140182,-10.638489,2.459821,-0.366519,0.125838,-0.526565
2026-01-04T13:57:33.659953,7.575676,-10.920842,1.761117,0.041538,0.278554,-0.985936
2026-01-04T13:57:33.669953,7.728816,-10.777272,0.162711,0.524122,0.411723,-1.413541
2026-01-04T13:57:33.678953,7.456035,-10.413563,-1.158126,0.836885,0.454483,-1.836260
2026-01-04T13:57:33.688953,7.432106,-10.600204,-4.828716,0.634077,0.219911,-2.173458
2026-01-04T13:57:33.697953,7.585247,-10.576275,-4.311866,0.698829,-0.017104,-2.442238
2026-01-04T13:57:33.707953,8.149953,-10.801201,-2.330609,0.663399,-0.339641,-2.772105
2026-01-04T13:57:33.717953,9.518648,-11.227123,-1.067198,0.371405,-0.700051,-3.032334
2026-01-04T13:57:33.726953,10.906485,-11.231909,0.516849,0.147829,-0.873537,-3.219259
2026-01-04T13:57:33.736953,12.098111,-10.566704,1.899901,-0.032986,-0.842993,-3.280345
2026-01-04T13:57:33.745953,12.906885,-9.939785,2.943171,-0.261450,-0.610865,-3.255911
2026-01-04T13:57:33.755953,12.983455,-9.408578,3.235096,-0.492357,-0.216246,-3.242472
2026-01-04T13:57:33.765953,12.476177,-8.977870,3.330809,-0.658512,0.241902,-3.260797
2026-01-04T13:57:33.774953,11.361121,-8.652446,2.254038,-0.838106,0.615752,-3.318219
2026-01-04T13:57:33.784953,10.112068,-8.618947,0.722632,-0.979827,0.797789,-3.390301
2026-01-04T13:57:33.794953,9.087940,-8.532805,-0.641276,-0.983492,0.784350,-3.532022
2026-01-04T13:57:33.803953,8.508877,-8.982656,-2.033899,-0.990823,0.620638,-3.685960
2026-01-04T13:57:33.813953,8.427521,-9.901499,-3.215953,-1.073900,0.339641,-3.756820
2026-01-04T13:57:33.822953,8.930013,-10.691131,-2.919243,-0.945619,0.003665,-3.826459
2026-01-04T13:57:33.832953,9.815358,-10.715059,-1.689332,-0.580321,-0.276111,-3.924197
2026-01-04T13:57:33.842953,10.652846,-9.958927,-0.253639,-0.157603,-0.414166,-3.970623
2026-01-04T13:57:33.851953,11.361121,-8.628518,1.387837,0.180816,-0.399505,-3.968179
2026-01-04T13:57:33.861953,11.791829,-7.154539,2.737389,0.240680,-0.304210,-3.896097
2026-01-04T13:57:33.870953,12.160324,-6.144768,3.512663,-0.012217,-0.193033,-3.780033
2026-01-04T13:57:33.880953,12.423534,-5.919843,3.230310,-0.378736,-0.073303,-3.652973
2026-01-04T13:57:33.890953,12.380464,-5.972485,2.287538,-0.715933,0.057421,-3.562565
2026-01-04T13:57:33.899953,12.059825,-6.087340,1.406979,-0.874758,0.219911,-3.518583
2026-01-04T13:57:33.909953,11.461620,-5.709274,0.521635,-0.904080,0.372627,-3.547904
2026-01-04T13:57:33.919953,10.537990,-5.091926,-0.765703,-0.801455,0.480139,-3.638312
2026-01-04T13:57:33.928953,9.595218,-4.158725,-1.488335,-0.568104,0.483805,-3.755598
2026-01-04T13:57:33.938953,8.834301,-3.297309,-1.737189,-0.340862,0.376292,-3.866776
2026-01-04T13:57:33.947953,8.695517,-2.852244,-1.124626,-0.290771,0.164933,-3.903428
2026-01-04T13:57:33.957953,9.145367,-2.727817,-0.411565,-0.394618,-0.109955,-3.911980
2026-01-04T13:57:33.967953,10.222138,-3.110669,-0.143569,-0.587652,-0.397062,-3.874106
2026-01-04T13:57:33.976953,11.791829,-3.574876,-0.172283,-0.795346,-0.671951,-3.821572
2026-01-04T13:57:33.986953,13.691730,-4.034298,0.717846,-0.869871,-0.849102,-3.769037
2026-01-04T13:57:33.995953,15.572489,-4.307080,1.919043,-0.904080,-0.828333,-3.660303
2026-01-04T13:57:34.005953,16.649260,-4.618147,1.679761,-1.007927,-0.575434,-3.396410
2026-01-04T13:57:34.015953,16.634901,-4.871786,0.971485,-0.955393,-0.112399,-3.122742
2026-01-04T13:57:34.024953,15.376278,-4.881358,0.665204,-0.775798,0.417831,-2.883283
2026-01-04T13:57:34.034953,13.452448,-4.828716,0.440279,-0.626747,0.810007,-2.640159
2026-01-04T13:57:34.044953,11.184052,-4.646861,-0.272781,-0.394618,1.009149,-2.458121
2026-01-04T13:57:34.053953,9.083154,-4.197010,-0.756131,-0.043982,1.011592,-2.342056
2026-01-04T13:57:34.063953,7.470392,-3.546163,-0.952343,0.249232,0.808785,-2.265087
2026-01-04T13:57:34.072953,6.656832,-3.125026,-1.244267,0.474031,0.406836,-2.182010
2026-01-04T13:57:34.082953,6.647261,-2.876172,-1.359123,0.680503,-0.113620,-2.098932
2026-01-04T13:57:34.092953,7.594818,-2.522035,-1.229910,0.840550,-0.627969,-2.012189
2026-01-04T13:57:34.101953,9.049655,-2.383251,-1.004985,0.983492,-0.981049,-1.894903
2026-01-04T13:57:34.111953,10.403992,-1.904686,-0.507278,1.134987,-1.051909,-1.755626
2026-01-04T13:57:34.120953,11.174481,-1.071984,-0.047856,1.200960,-0.853989,-1.569923
2026-01-04T13:57:34.130953,11.006983,-0.129212,0.459421,1.115439,-0.518013,-1.370781
2026-01-04T13:57:34.140953,10.150353,0.535992,0.703489,0.896749,-0.175929,-1.196073
2026-01-04T13:57:34.149953,8.829515,0.818345,1.186840,0.624304,0.067195,-1.064127
2026-01-04T13:57:34.159953,7.628318,0.392422,0.899701,0.409279,0.235793,-1.029918
2026-01-04T13:57:34.169953,6.647261,0.416351,0.904486,0.295658,0.342084,-1.092226
2026-01-04T13:57:34.178953,7.188039,0.272781,0.253639,-0.229685,-0.101403,-0.879645
2026-01-04T13:57:34.188953,5.699703,0.162711,0.306281,-0.627969,-0.296880,-0.845437
2026-01-04T13:57:34.197953,5.948556,0.119641,0.191425,-0.774576,-0.505796,-0.861319
2026-01-04T13:57:34.207953,6.417550,0.148355,0.167497,-0.791681,-0.772133,-0.858876
2026-01-04T13:57:34.217953,6.857829,0.229710,0.215354,-0.808785,-0.959058,-0.840550
2026-01-04T13:57:34.226953,7.599604,0.559920,-0.516849,-0.792902,-0.939510,-0.761137
2026-01-04T13:57:34.236953,7.125825,-0.028713,0.622133,-0.857654,-0.445931,-0.511904
2026-01-04T13:57:34.245953,6.546762,-0.157926,0.703489,-0.833220,-0.042760,-0.271224
2026-01-04T13:57:34.255953,5.910271,-0.507278,0.674775,-0.791681,0.289550,0.050090
2026-01-04T13:57:34.265953,2.971885,0.186640,1.761117,0.092851,0.448374,-0.575434
2026-01-04T13:57:34.274953,5.584847,0.033499,6.546762,0.315206,0.362853,-0.481361
2026-01-04T13:57:34.284953,3.579662,-1.239482,1.277767,0.035430,0.085521,-0.293215
2026-01-04T13:57:34.294953,3.330809,-1.143769,0.904486,0.017104,-0.100181,-0.259006
2026-01-04T13:57:34.303953,3.474378,-0.741775,0.574277,0.158824,-0.237015,-0.254119
2026-01-04T13:57:34.313953,3.780659,-0.191425,0.382851,0.306654,-0.307876,-0.285884
2026-01-04T13:57:34.322953,4.264009,1.019342,1.584048,0.370184,-0.279776,-0.337197
2026-01-04T13:57:34.332953,4.426721,0.373280,0.851844,0.109955,-0.301767,-0.316428
2026-01-04T13:57:34.342953,4.407579,0.574277,1.081555,-0.178372,-0.188146,-0.320093
2026-01-04T13:57:34.351953,4.359722,0.660419,1.129412,-0.412944,-0.067195,-0.183259
2026-01-04T13:57:34.361953,4.000799,-0.344566,1.292124,-0.581543,-0.004886,-0.004886
2026-01-04T13:57:34.370953,3.962514,-0.880558,1.129412,-0.660956,-0.028099,0.080634
2026-01-04T13:57:34.380953,4.115654,-1.182054,0.966700,-0.641408,-0.149051,0.147829
2026-01-04T13:57:34.390953,4.656432,-1.028913,0.741775,-0.554665,-0.349414,0.270002
2026-01-04T13:57:34.399953,5.551348,-0.928415,0.741775,-0.474031,-0.571769,0.401949
2026-01-04T13:57:34.409953,6.484549,-1.009771,0.660419,-0.448374,-0.744033,0.439822
2026-01-04T13:57:34.419953,7.140182,-0.334995,0.401994,-0.184481,-0.752585,0.210137
2026-01-04T13:57:34.428953,8.528019,-0.330209,0.531206,-0.047647,-0.763581,0.177150
2026-01-04T13:57:34.438953,9.255437,-0.057427,0.411565,-0.075747,-0.839328,0.196698
2026-01-04T13:57:34.447953,11.026126,2.072184,-15.376278,0.019547,-0.872315,0.249232
2026-01-04T13:57:34.457953,11.050054,0.976271,-1.435693,0.327423,-0.723264,0.386066
2026-01-04T13:57:34.467953,12.050254,0.483350,-0.914058,-0.021991,-0.599869,0.416610
2026-01-04T13:57:34.476953,12.911670,0.574277,-1.143769,-0.215024,-0.547335,0.465479
2026-01-04T13:57:34.486953,13.720444,0.813559,-1.272981,-0.277332,-0.461814,0.538783
2026-01-04T13:57:34.495953,13.911870,1.033699,-1.134197,-0.344527,-0.299323,0.602312
2026-01-04T13:57:34.505953,13.648660,1.105484,-0.818345,-0.406836,-0.056199,0.667064
2026-01-04T13:57:34.515953,12.648460,1.052841,-0.339780,-0.428827,0.232128,0.728151
2026-01-04T13:57:34.524953,11.174481,1.000199,-0.090927,-0.390953,0.505796,0.764803
2026-01-04T13:57:34.534953,9.384650,0.808774,0.330209,-0.283441,0.657290,0.774576
2026-01-04T13:57:34.544953,7.834101,0.751346,0.636490,-0.120951,0.641408,0.768468
2026-01-04T13:57:34.553953,6.747759,0.847059,0.689132,0.090408,0.466700,0.741590
2026-01-04T13:57:34.563953,6.197410,1.028913,0.665204,0.305432,0.201585,0.668286
2026-01-04T13:57:34.572953,6.283552,0.655633,0.411565,0.566882,-0.068416,0.333532
2026-01-04T13:57:34.582953,7.106683,0.957129,0.339780,0.746477,-0.366519,-0.279776
2026-01-04T13:57:34.592953,8.025527,2.531606,0.000000,0.827111,-0.658512,-0.807563
2026-01-04T13:57:34.601953,11.193624,10.284351,-1.416550,0.775798,-0.594982,-0.447153
2026-01-04T13:57:34.611953,10.925627,4.287938,-1.076770,0.510683,-0.555887,0.103847
2026-01-04T13:57:34.620953,11.643474,3.895515,-0.559920,0.185702,-0.433714,0.191811
2026-01-04T13:57:34.630953,12.007183,3.684946,-0.612562,-0.057421,-0.250454,0.173485
2026-01-04T13:57:34.640953,12.050254,3.182454,-0.368494,-0.307876,-0.075747,0.166155
2026-01-04T13:57:34.649953,11.777472,2.498106,-0.100498,-0.450818,0.078190,0.156381
2026-01-04T13:57:34.659953,11.236694,2.053041,-0.014356,-0.445931,0.197920,0.145385
2026-01-04T13:57:34.669953,10.676774,1.794616,-0.009571,-0.375071,0.256563,0.125838
2026-01-04T13:57:34.678953,10.059426,1.631905,0.143569,-0.262671,0.259006,0.096516
2026-01-04T13:57:34.688953,9.619146,1.636690,0.234496,-0.112399,0.223576,0.047647
2026-01-04T13:57:34.697953,9.403792,1.694118,0.334995,0.010995,0.182037,0.020769
2026-01-04T13:57:34.707953,9.154939,1.976471,0.220139,0.081855,0.150272,0.047647
2026-01-04T13:57:34.717953,9.049655,2.091326,0.224925,0.095294,0.157603,0.229685
2026-01-04T13:57:34.726953,8.968299,1.914258,0.210568,0.112399,0.219911,0.485026
2026-01-04T13:57:34.736953,9.107082,1.775474,0.277567,0.127059,0.306654,0.757472
2026-01-04T13:57:34.745953,8.628518,0.220139,0.516849,0.122173,0.322536,0.803898
2026-01-04T13:57:34.755953,8.810372,-0.502492,0.492921,-0.053756,0.263893,0.500909
2026-01-04T13:57:34.765953,9.734002,0.550349,1.014556,0.089186,0.076969,-0.212581
2026-01-04T13:57:34.774953,9.556933,0.502492,0.622133,0.124616,0.017104,-0.563217
2026-01-04T13:57:34.784953,10.246066,1.718046,0.535992,0.042760,0.018325,-0.675616
2026-01-04T13:57:34.794953,10.045069,2.029113,0.378065,-0.014660,0.133168,-0.346971
2026-01-04T13:57:34.803953,10.092925,1.651047,0.789631,-0.199142,0.294436,0.125838
2026-01-04T13:57:34.813953,10.097711,0.133998,0.976271,-0.376292,0.467922,0.357966
2026-01-04T13:57:34.822953,9.576076,-0.081355,0.942772,-0.551000,0.654847,0.349414
2026-01-04T13:57:34.832953,8.867800,-0.220139,0.411565,-0.400727,0.428827,0.096516
2026-01-04T13:57:34.842953,9.020941,-0.421136,0.746560,-0.235793,0.432492,0.145385
2026-01-04T13:57:34.851953,4.077369,-7.738388,-1.024128,-0.217467,0.447153,0.205250
2026-01-04T13:57:34.861953,8.949156,-3.273381,0.655633,-0.152716,0.400727,0.193033
2026-01-04T13:57:34.870953,8.154739,-2.359323,0.516849,-0.045204,0.372627,0.156381
2026-01-04T13:57:34.880953,8.499305,-1.722832,0.569491,0.051312,0.343306,0.168598
2026-01-04T13:57:34.890953,8.446663,-2.043470,0.679561,0.145385,0.311541,0.223576
2026-01-04T13:57:34.899953,8.556733,-2.043470,1.024128,0.259006,0.288328,0.293215
2026-01-04T13:57:34.909953,8.614161,-1.933400,1.282552,0.340862,0.295658,0.375071
2026-01-04T13:57:34.919953,8.662017,-1.670190,0.861416,0.381179,0.351858,0.513126
2026-01-04T13:57:34.928953,8.307880,-1.234696,0.512064,0.354301,0.472809,0.687834
2026-01-04T13:57:34.938953,7.733602,-0.928415,0.330209,0.263893,0.627969,0.872315
2026-01-04T13:57:34.947953,6.843472,-0.669990,0.440279,0.102625,0.741590,1.060461
2026-01-04T13:57:34.957953,5.953342,-0.703489,0.569491,-0.123394,0.757472,1.240056
2026-01-04T13:57:34.967953,5.187639,-1.095912,0.732203,-0.338419,0.664621,1.397659
2026-01-04T13:57:34.976953,4.819144,-1.718046,0.780060,-0.491135,0.467922,1.524719
2026-01-04T13:57:34.986953,4.804787,-2.512463,0.899701,-0.494800,0.232128,1.612683
2026-01-04T13:57:34.995953,5.225924,-2.995813,1.033699,-0.321315,0.013439,1.667661
2026-01-04T13:57:35.005953,5.919843,-3.340380,1.229910,-0.028099,-0.144164,1.694539
2026-01-04T13:57:35.015953,6.728617,-3.254238,1.292124,0.295658,-0.183259,1.726304
2026-01-04T13:57:35.024953,7.398607,-2.957528,0.937986,0.581543,-0.065973,1.773952
2026-01-04T13:57:35.034953,7.590033,-2.411965,0.502492,0.779463,0.161268,1.844812
2026-01-04T13:57:35.044953,7.360322,-1.875972,0.129212,0.834441,0.403170,1.925446
2026-01-04T13:57:35.053953,6.690331,-1.440479,-0.138783,0.773355,0.575434,2.015854
2026-01-04T13:57:35.063953,6.001199,-1.210768,-0.373280,0.604756,0.612086,2.087936
2026-01-04T13:57:35.072953,5.479563,-1.095912,-0.488135,0.382401,0.492357,2.120923
2026-01-04T13:57:35.082953,5.374279,-1.234696,-0.468993,0.230907,0.266337,2.123367
2026-01-04T13:57:35.092953,5.766702,-1.469193,0.038285,0.260228,0.042760,2.096489
2026-01-04T13:57:35.101953,6.766902,-1.722832,0.684347,0.287106,-0.180816,2.058615
2026-01-04T13:57:35.111953,8.097311,-2.182254,1.119840,0.383623,-0.261450,2.023185
2026-01-04T13:57:35.120953,9.322436,-2.349751,1.579262,0.548556,-0.169820,2.024406
2026-01-04T13:57:35.130953,10.202995,-2.636890,1.497906,0.417831,-0.053756,2.014633
2026-01-04T13:57:35.140953,10.289137,-2.900100,0.985842,0.428827,0.290771,2.050063
2026-01-04T13:57:35.149953,9.489934,-2.876172,0.248853,0.522900,0.722042,2.139249
2026-01-04T13:57:35.159953,8.025527,-2.723032,-0.564706,0.564439,1.017701,2.217440
2026-01-04T13:57:35.169953,6.508477,-2.545963,-0.851844,0.597426,1.088561,2.283413
2026-01-04T13:57:35.178953,5.230710,-2.593819,-0.914058,0.648738,0.944397,2.349387
2026-01-04T13:57:35.188953,4.733003,-2.842673,-0.378065,0.658512,0.574213,2.383595
2026-01-04T13:57:35.197953,5.216353,-3.488735,0.100498,0.647517,0.041538,2.377487
2026-01-04T13:57:35.207953,6.838686,-4.134797,0.674775,0.724486,-0.527787,2.315178
2026-01-04T13:57:35.217953,9.312865,-4.565505,1.263410,0.919962,-0.976162,2.200336
2026-01-04T13:57:35.226953,12.088539,-4.651647,1.684547,1.185078,-1.115439,2.089158
2026-01-04T13:57:35.236953,14.179866,-4.378865,2.081755,1.452637,-0.853989,2.052506
2026-01-04T13:57:35.245953,15.074782,-3.603590,1.502692,1.562592,-0.262671,2.142914
2026-01-04T13:57:35.255953,14.486148,-2.718246,0.732203,1.467297,0.466700,2.232101
2026-01-04T13:57:35.265953,12.624532,-2.134397,0.124426,1.164308,1.081231,2.295631
2026-01-04T13:57:35.274953,10.198209,-2.067398,-0.521635,0.635299,1.389107,2.356717
2026-01-04T13:57:35.284953,7.996813,-2.589034,-1.129412,0.019547,1.340238,2.389704
2026-01-04T13:57:35.294953,6.599404,-3.407379,-1.430907,-0.360410,1.080009,2.381152
2026-01-04T13:57:35.303953,5.934200,-4.488935,-0.133998,-0.558330,0.623082,2.310291
2026-01-04T13:57:35.313953,6.317051,-6.053841,0.468993,-0.599869,0.047647,2.212553
2026-01-04T13:57:35.322953,7.752745,-7.446463,1.138983,-0.306654,-0.410501,2.097710
2026-01-04T13:57:35.332953,10.533205,-7.499106,1.732403,-0.136833,-0.840550,1.880242
2026-01-04T13:57:35.342953,11.432906,-8.882157,3.172882,0.285884,-0.829554,1.808160
2026-01-04T13:57:35.351953,12.543176,-8.652446,2.904886,0.686612,-0.482583,1.908342
2026-01-04T13:57:35.361953,12.490533,-7.805387,1.794616,0.923628,0.014660,2.067167
2026-01-04T13:57:35.370953,11.413763,-6.781259,1.143769,0.906523,0.481361,2.205223
2026-01-04T13:57:35.380953,9.872786,-5.943771,0.756131,0.557108,0.740368,2.343278
2026-01-04T13:57:35.390953,8.398807,-5.613561,0.655633,0.120951,0.748920,2.397034
2026-01-04T13:57:35.399953,7.408178,-5.867201,0.870987,-0.315206,0.529009,2.359161
2026-01-04T13:57:35.409953,7.073183,-7.121040,1.033699,-0.783129,0.156381,2.321287
2026-01-04T13:57:35.419953,7.484749,-8.805587,1.392622,-1.005483,-0.224798,2.262644
2026-01-04T13:57:35.428953,8.298308,-10.504491,1.986042,-0.901636,-0.477696,2.175901
2026-01-04T13:57:35.438953,9.159724,-11.662617,2.828316,-0.544891,-0.546113,2.109928
2026-01-04T13:57:35.447953,9.643075,-12.045468,2.804388,0.031764,-0.382401,2.080606
2026-01-04T13:57:35.457953,9.389435,-11.691331,2.105683,0.546113,-0.107512,2.164905
2026-01-04T13:57:35.467953,8.666803,-10.609775,1.947757,0.985936,0.119729,2.252870
2026-01-04T13:57:35.476953,7.795816,-9.073583,2.096112,1.226617,0.204028,2.254092
2026-01-04T13:57:35.486953,6.991827,-7.728816,1.804188,1.071457,0.114842,2.316400
2026-01-04T13:57:35.495953,6.585047,-6.786044,1.933400,0.781907,-0.057421,2.323730
2026-01-04T13:57:35.505953,6.350551,-6.072983,2.177468,0.378736,-0.249232,2.255313
2026-01-04T13:57:35.515953,6.589833,-6.130411,2.239681,-0.285884,-0.471587,2.252870
2026-01-04T13:57:35.524953,7.049255,-7.101897,1.804188,-0.908967,-0.649960,2.240653
2026-01-04T13:57:35.534953,7.704888,-8.422735,1.775474,-1.268155,-0.713490,2.124588
2026-01-04T13:57:35.544953,8.178667,-9.934999,1.641476,-1.400102,-0.662177,1.979202
2026-01-04T13:57:35.553953,8.417949,-11.126625,1.808973,-1.148426,-0.491135,1.832595
2026-01-04T13:57:35.563953,8.087740,-11.624332,1.976471,-0.602312,-0.217467,1.656666
2026-01-04T13:57:35.572953,7.374679,-11.605189,1.962114,-0.150272,0.000000,1.568701
2026-01-04T13:57:35.582953,6.599404,-11.160124,2.177468,0.207694,0.100181,1.488067
2026-01-04T13:57:35.592953,6.029912,-10.403992,2.402393,0.399505,0.073303,1.384220
2026-01-04T13:57:35.601953,5.718846,-9.346365,2.507678,0.328645,-0.050090,1.336572
2026-01-04T13:57:35.611953,5.833701,-8.499305,2.603390,0.157603,-0.177150,1.226617
2026-01-04T13:57:35.620953,6.120840,-7.834101,2.857030,-0.105068,-0.261450,1.078787
2026-01-04T13:57:35.630953,6.570690,-7.886743,2.656033,-0.526565,-0.284663,0.951727
2026-01-04T13:57:35.640953,7.025327,-8.585447,2.091326,-0.943175,-0.200363,0.818559
2026-01-04T13:57:35.649953,7.264609,-9.657432,1.885544,-1.207069,-0.021991,0.626747
2026-01-04T13:57:35.659953,7.293323,-10.863414,1.785045,-1.270599,0.190589,0.406836
2026-01-04T13:57:35.669953,6.943971,-11.954541,1.383051,-1.155756,0.368962,0.180816
2026-01-04T13:57:35.678953,6.479763,-12.973884,0.880558,-0.965166,0.460592,-0.059864
2026-01-04T13:57:35.688953,6.072983,-13.998012,0.459421,-0.741590,0.442266,-0.290771
2026-01-04T13:57:35.697953,5.929414,-14.912070,0.468993,-0.422718,0.305432,-0.531452
2026-01-04T13:57:35.707953,6.250052,-15.227923,0.885344,-0.003665,0.095294,-0.781907
2026-01-04T13:57:35.717953,6.800401,-14.553147,0.732203,0.483805,-0.130725,-1.017701
2026-01-04T13:57:35.726953,7.508677,-12.954741,0.770488,1.075122,-0.274889,-1.312138
2026-01-04T13:57:35.736953,8.240881,-10.853843,1.268195,1.627344,-0.344527,-1.677435
2026-01-04T13:57:35.745953,8.829515,-8.599804,1.488335,1.908342,-0.366519,-1.965763
2026-01-04T13:57:35.755953,9.346365,-6.862615,1.617548,1.915672,-0.317649,-2.175901
2026-01-04T13:57:35.765953,9.547362,-5.623133,2.225325,1.716530,-0.152716,-2.378708
2026-01-04T13:57:35.774953,9.561719,-5.192425,2.885744,1.293812,0.065973,-2.538755
2026-01-04T13:57:35.784953,9.303294,-5.771488,2.230110,0.548556,0.245567,-2.552194
2026-01-04T13:57:35.794953,8.930013,-7.250252,1.450050,-0.315206,0.289550,-2.477668
2026-01-04T13:57:35.803953,8.973084,-8.910871,0.985842,-1.016479,0.183259,-2.514320
2026-01-04T13:57:35.813953,9.288937,-10.418349,0.751346,-1.506393,-0.064751,-2.596176
2026-01-04T13:57:35.822953,10.155139,-11.533404,0.559920,-1.613905,-0.310319,-2.720793
2026-01-04T13:57:35.832953,10.896914,-11.557333,0.473778,-1.241277,-0.399505,-2.871066
2026-01-04T13:57:35.842953,11.246266,-10.045069,0.507278,-0.662177,-0.307876,-2.990795
2026-01-04T13:57:35.851953,10.810772,-8.054240,0.512064,-0.244346,-0.131946,-3.051882
2026-01-04T13:57:35.861953,10.131210,-6.240481,0.277567,-0.118507,0.034208,-3.092199
2026-01-04T13:57:35.870953,9.241080,-5.120640,0.344566,-0.207694,0.125838,-3.200933
2026-01-04T13:57:35.880953,8.642875,-4.527220,1.076770,-0.393397,0.075747,-3.384192
2026-01-04T13:57:35.890953,8.556733,-4.498506,1.517049,-0.657290,-0.109955,-3.578447
2026-01-04T13:57:35.899953,9.087940,-5.101497,1.607976,-0.897971,-0.366519,-3.736051
2026-01-04T13:57:35.909953,10.145567,-5.886343,1.110269,-0.983492,-0.579100,-3.882658
2026-01-04T13:57:35.919953,11.361121,-6.546762,0.478564,-0.902858,-0.646295,-3.993836
2026-01-04T13:57:35.928953,12.241680,-6.853043,-0.540777,-0.658512,-0.531452,-4.087909
2026-01-04T13:57:35.938953,12.691531,-6.733402,-1.244267,-0.372627,-0.329867,-4.159991
2026-01-04T13:57:35.947953,12.500105,-6.455835,-1.899901,-0.075747,-0.118507,-4.172208
2026-01-04T13:57:35.957953,12.083754,-5.848058,-1.344766,0.184481,-0.026878,-4.153882
2026-01-04T13:57:35.967953,11.839686,-5.292923,-0.641276,0.294436,-0.100181,-4.120896
2026-01-04T13:57:35.976953,11.825329,-4.766502,0.033499,0.237015,-0.315206,-4.057366
2026-01-04T13:57:35.986953,12.447463,-4.402793,0.952343,0.063529,-0.591317,-3.992614
2026-01-04T13:57:35.995953,13.524233,-4.551148,1.631905,-0.195476,-0.823446,-3.892432
2026-01-04T13:57:36.005953,14.658431,-4.881358,1.569691,-0.452040,-0.923628,-3.734829
2026-01-04T13:57:36.015953,15.414563,-5.225924,1.406979,-0.546113,-0.810007,-3.567452
2026-01-04T13:57:36.024953,15.337992,-5.288137,1.464407,-0.487470,-0.510683,-3.408627
2026-01-04T13:57:36.034953,14.376078,-5.154139,0.928415,-0.367740,-0.161268,-3.281567
2026-01-04T13:57:36.044953,12.839886,-4.622933,0.052642,-0.177150,0.119729,-3.202154
2026-01-04T13:57:36.053953,11.107482,-3.909872,-0.535992,0.125838,0.224798,-3.169168
2026-01-04T13:57:36.063953,9.753144,-3.129811,-0.555134,0.425162,0.127059,-3.155729
2026-01-04T13:57:36.072953,9.064012,-2.847458,-0.421136,0.603534,-0.135612,-3.123964
2026-01-04T13:57:36.082953,9.121439,-2.746960,-0.330209,0.690277,-0.464257,-3.039664
2026-01-04T13:57:36.092953,9.738787,-2.756531,-0.028713,0.741590,-0.746477,-2.910161
2026-01-04T13:57:36.101953,10.686345,-2.766102,0.210568,0.751364,-0.864984,-2.742784
2026-01-04T13:57:36.111953,11.289337,-2.545963,0.521635,0.762359,-0.774576,-2.547307
2026-01-04T13:57:36.120953,11.322836,-2.096112,0.933200,0.756251,-0.532674,-2.338391
2026-01-04T13:57:36.130953,10.762916,-1.517049,1.138983,0.660956,-0.283441,-2.118480
2026-01-04T13:57:36.140953,9.949356,-1.024128,1.454836,0.487470,-0.142942,-1.907120
2026-01-04T13:57:36.149953,9.198010,-0.583848,1.526620,0.266337,-0.138055,-1.725083
2026-01-04T13:57:36.159953,8.685946,-0.258424,1.253839,-0.008552,-0.211359,-1.561371
2026-01-04T13:57:36.169953,8.336593,-0.009571,0.808774,-0.246789,-0.309097,-1.412320
2026-01-04T13:57:36.178953,8.303094,0.191425,0.602991,-0.423940,-0.411723,-1.275486
2026-01-04T13:57:36.188953,8.465806,0.440279,0.449850,-0.590095,-0.502131,-1.138652
2026-01-04T13:57:36.197953,8.676374,0.502492,0.315852,-0.747698,-0.537561,-0.995710
2026-01-04T13:57:36.207953,8.705088,0.540777,0.143569,-0.897971,-0.502131,-0.861319
2026-01-04T13:57:36.217953,8.513662,0.277567,0.258424,-1.053131,-0.416610,-0.719599
2026-01-04T13:57:36.226953,8.183453,-0.138783,0.425922,-1.204625,-0.306654,-0.590095
2026-01-04T13:57:36.236953,7.666603,-0.741775,0.593420,-1.290147,-0.219911,-0.488692
2026-01-04T13:57:36.245953,7.121040,-1.330409,0.890130,-1.240056,-0.189368,-0.419053
2026-01-04T13:57:36.255953,6.886543,-1.708475,1.397408,-1.062905,-0.243124,-0.378736
2026-01-04T13:57:36.265953,6.948756,-1.737189,1.402194,-0.844215,-0.360410,-0.334754
2026-01-04T13:57:36.274953,7.345965,-1.430907,1.028913,-0.569326,-0.431270,-0.291993
2026-01-04T13:57:36.284953,7.733602,-0.780060,0.770488,-0.324980,-0.399505,-0.260228
2026-01-04T13:57:36.294953,7.862815,-0.095712,0.507278,-0.193033,-0.296880,-0.213802
2026-01-04T13:57:36.303953,7.805387,0.564706,0.090927,-0.160046,-0.160046,-0.168598
2026-01-04T13:57:36.313953,7.499106,1.009771,-0.200997,-0.224798,-0.028099,-0.140498
2026-01-04T13:57:36.322953,7.077969,1.196411,-0.215354,-0.372627,0.035430,-0.124616
2026-01-04T13:57:36.332953,6.671189,1.210768,-0.253639,-0.574213,0.015882,-0.117286
2026-01-04T13:57:36.342953,6.417550,0.952343,-0.200997,-0.740368,-0.065973,-0.111177
2026-01-04T13:57:36.351953,6.273980,0.162711,0.157926,-0.806341,-0.221133,-0.138055
2026-01-04T13:57:36.361953,6.695117,0.167497,0.224925,-0.913854,-0.475253,-0.243124
2026-01-04T13:57:36.370953,7.331608,0.177068,0.244067,-0.868650,-0.692721,-0.298102
2026-01-04T13:57:36.380953,8.006384,0.129212,0.339780,-0.746477,-0.780685,-0.300545
2026-01-04T13:57:36.390953,8.528019,0.258424,0.421136,-0.645073,-0.733038,-0.279776
2026-01-04T13:57:36.399953,9.126225,-0.196211,0.569491,-0.283441,-0.389731,-0.078190
