Timestamp,Acceleration_X,Acceleration_Y,Acceleration_Z,Gyro_X,Gyro_Y,Gyro_Z
2026-01-18T19:39:50.483785,10.092925,-0.540777,0.421136,0.028099,-0.001221,0.064751
2026-01-18T19:39:50.493785,10.030712,-0.545563,0.459421,0.006108,0.025656,0.062308
2026-01-18T19:39:50.502785,9.958927,-0.684347,0.454636,-0.013439,0.047647,0.058643
2026-01-18T19:39:50.512785,9.762716,-0.794417,0.387637,-0.015882,0.056199,0.050090
2026-01-18T19:39:50.521785,9.638289,-0.837487,0.425922,0.002443,0.043982,0.039095
2026-01-18T19:39:50.531785,9.604789,-0.933200,0.425922,0.039095,0.021991,0.025656
2026-01-18T19:39:50.541785,9.614361,-0.870987,0.540777,0.086742,-0.012217,0.012217
2026-01-18T19:39:50.550785,9.734002,-0.780060,0.478564,0.123394,-0.050090,0.001221
2026-01-18T19:39:50.560785,10.001998,-0.741775,0.507278,0.142942,-0.074525,-0.013439
2026-01-18T19:39:50.570785,10.183852,-0.602991,0.550349,0.136833,-0.070860,-0.018325
2026-01-18T19:39:50.579785,10.269994,-0.674775,0.497707,0.114842,-0.046425,-0.026878
2026-01-18T19:39:50.589785,10.226923,-0.612562,0.497707,0.092851,-0.009773,-0.036651
2026-01-18T19:39:50.598785,10.025926,-0.660419,0.507278,0.086742,0.019547,-0.043982
2026-01-18T19:39:50.608785,9.882357,-0.669990,0.502492,0.091629,0.028099,-0.053756
2026-01-18T19:39:50.618785,9.700502,-0.741775,0.617348,0.102625,0.010995,-0.057421
2026-01-18T19:39:50.627785,9.710074,-0.851844,0.569491,0.129503,-0.015882,-0.062308
2026-01-18T19:39:50.637785,9.767501,-0.775274,0.660419,0.174707,-0.032986,-0.072082
2026-01-18T19:39:50.646785,9.839286,-0.693918,0.650847,0.206472,-0.037873,-0.078190
2026-01-18T19:39:50.656785,9.963713,-0.583848,0.693918,0.221133,-0.029321,-0.081855
2026-01-18T19:39:50.666785,9.949356,-0.492921,0.741775,0.217467,-0.015882,-0.079412
2026-01-18T19:39:50.675785,9.992427,-0.349352,0.641276,0.189368,-0.003665,-0.070860
2026-01-18T19:39:50.685785,10.035497,-0.311066,0.626919,0.151494,-0.001221,-0.057421
2026-01-18T19:39:50.695785,10.035497,-0.325423,0.531206,0.109955,-0.002443,-0.037873
2026-01-18T19:39:50.704785,10.021141,-0.291924,0.550349,0.064751,0.000000,-0.021991
2026-01-18T19:39:50.714785,10.092925,-0.373280,0.521635,0.028099,0.004886,-0.003665
2026-01-18T19:39:50.723785,9.987641,-0.387637,0.602991,-0.002443,0.017104,0.012217
2026-01-18T19:39:50.733785,9.973284,-0.382851,0.665204,-0.017104,0.032986,0.020769
2026-01-18T19:39:50.743785,9.863214,-0.435493,0.617348,-0.017104,0.045204,0.024434
2026-01-18T19:39:50.752785,9.686145,-0.421136,0.646062,-0.006108,0.042760,0.026878
2026-01-18T19:39:50.762785,9.710074,-0.387637,0.588634,0.009773,0.025656,0.025656
2026-01-18T19:39:50.771785,9.805787,-0.392422,0.646062,0.015882,0.001221,0.023212
2026-01-18T19:39:50.781785,9.887142,-0.334995,0.612562,0.003665,-0.020769,0.024434
2026-01-18T19:39:50.791785,9.973284,-0.325423,0.622133,-0.021991,-0.029321,0.024434
2026-01-18T19:39:50.800785,10.088140,-0.445065,0.602991,-0.039095,-0.017104,0.025656
2026-01-18T19:39:50.810785,10.073783,-0.492921,0.631705,-0.035430,0.006108,0.023212
2026-01-18T19:39:50.820785,9.939785,-0.521635,0.689132,-0.025656,0.030543,0.020769
2026-01-18T19:39:50.829785,9.786644,-0.492921,0.713061,-0.020769,0.042760,0.021991
2026-01-18T19:39:50.839785,9.676574,-0.435493,0.760917,-0.021991,0.035430,0.024434
2026-01-18T19:39:50.848785,9.657432,-0.421136,0.770488,-0.026878,0.007330,0.026878
2026-01-18T19:39:50.858785,9.604789,-0.325423,0.679561,-0.035430,-0.026878,0.031764
2026-01-18T19:39:50.868785,9.824929,-0.258424,0.722632,-0.054977,-0.045204,0.035430
2026-01-18T19:39:50.877785,9.848857,-0.301495,0.713061,-0.083077,-0.042760,0.036651
2026-01-18T19:39:50.887785,9.891928,-0.416351,0.746560,-0.102625,-0.030543,0.031764
2026-01-18T19:39:50.896785,9.858429,-0.473778,0.684347,-0.112399,-0.018325,0.028099
2026-01-18T19:39:50.906785,9.753144,-0.502492,0.684347,-0.108733,-0.012217,0.024434
2026-01-18T19:39:50.916785,9.690931,-0.555134,0.626919,-0.086742,-0.018325,0.015882
2026-01-18T19:39:50.925785,9.748359,-0.507278,0.698704,-0.065973,-0.040317,0.004886
2026-01-18T19:39:50.935785,9.839286,-0.516849,0.660419,-0.053756,-0.065973,0.006108
2026-01-18T19:39:50.945785,9.982855,-0.445065,0.636490,-0.050090,-0.081855,0.010995
2026-01-18T19:39:50.954785,10.155139,-0.363709,0.660419,-0.061086,-0.079412,0.013439
2026-01-18T19:39:50.964785,10.150353,-0.416351,0.660419,-0.079412,-0.064751,0.019547
2026-01-18T19:39:50.973785,10.202995,-0.473778,0.703489,-0.103847,-0.041538,0.025656
2026-01-18T19:39:50.983785,10.140782,-0.507278,0.641276,-0.120951,-0.018325,0.031764
2026-01-18T19:39:50.993785,9.944570,-0.540777,0.626919,-0.123394,-0.006108,0.036651
2026-01-18T19:39:51.002785,9.815358,-0.535992,0.679561,-0.114842,-0.009773,0.034208
2026-01-18T19:39:51.012785,9.810572,-0.593420,0.612562,-0.100181,-0.031764,0.029321
2026-01-18T19:39:51.021785,9.930213,-0.660419,0.679561,-0.084299,-0.064751,0.025656
2026-01-18T19:39:51.031785,10.059426,-0.698704,0.698704,-0.057421,-0.089186,0.019547
2026-01-18T19:39:51.041785,10.198209,-0.751346,0.674775,-0.017104,-0.086742,0.008552
2026-01-18T19:39:51.050785,10.150353,-0.679561,0.717846,0.029321,-0.059864,-0.007330
2026-01-18T19:39:51.060785,9.997212,-0.521635,0.741775,0.057421,-0.034208,-0.017104
2026-01-18T19:39:51.070785,9.891928,-0.435493,0.736989,0.064751,-0.028099,-0.021991
2026-01-18T19:39:51.079785,9.805787,-0.488135,0.760917,0.057421,-0.037873,-0.021991
2026-01-18T19:39:51.089785,9.781858,-0.435493,0.641276,0.042760,-0.050090,-0.024434
2026-01-18T19:39:51.098785,9.834500,-0.421136,0.713061,0.026878,-0.059864,-0.028099
2026-01-18T19:39:51.108785,9.906285,-0.416351,0.741775,0.008552,-0.065973,-0.029321
2026-01-18T19:39:51.118785,9.963713,-0.411565,0.660419,-0.003665,-0.062308,-0.031764
2026-01-18T19:39:51.127785,10.016355,-0.373280,0.689132,-0.019547,-0.053756,-0.032986
2026-01-18T19:39:51.137785,10.001998,-0.445065,0.703489,-0.040317,-0.045204,-0.034208
2026-01-18T19:39:51.146785,9.968498,-0.507278,0.698704,-0.057421,-0.035430,-0.034208
2026-01-18T19:39:51.156785,9.882357,-0.612562,0.703489,-0.064751,-0.032986,-0.034208
2026-01-18T19:39:51.166785,9.920642,-0.564706,0.746560,-0.054977,-0.030543,-0.032986
2026-01-18T19:39:51.175785,9.824929,-0.583848,0.698704,-0.035430,-0.032986,-0.029321
2026-01-18T19:39:51.185785,9.853643,-0.612562,0.722632,-0.021991,-0.037873,-0.031764
2026-01-18T19:39:51.195785,9.791430,-0.617348,0.760917,-0.014660,-0.051312,-0.031764
2026-01-18T19:39:51.204785,9.896714,-0.512064,0.674775,-0.006108,-0.063529,-0.030543
2026-01-18T19:39:51.214785,10.001998,-0.492921,0.636490,-0.004886,-0.065973,-0.030543
2026-01-18T19:39:51.223785,10.073783,-0.411565,0.617348,-0.018325,-0.056199,-0.025656
2026-01-18T19:39:51.233785,10.102497,-0.435493,0.550349,-0.048869,-0.052534,-0.015882
2026-01-18T19:39:51.243785,10.121639,-0.483350,0.612562,-0.079412,-0.045204,-0.002443
2026-01-18T19:39:51.252785,10.092925,-0.502492,0.535992,-0.100181,-0.034208,0.009773
2026-01-18T19:39:51.262785,10.049854,-0.545563,0.602991,-0.114842,-0.023212,0.020769
2026-01-18T19:39:51.271785,10.006784,-0.555134,0.564706,-0.118507,-0.020769,0.032986
2026-01-18T19:39:51.281785,9.963713,-0.598205,0.550349,-0.112399,-0.025656,0.039095
2026-01-18T19:39:51.291785,9.944570,-0.684347,0.574277,-0.106290,-0.037873,0.043982
2026-01-18T19:39:51.300785,10.006784,-0.684347,0.612562,-0.085521,-0.053756,0.045204
2026-01-18T19:39:51.310785,10.102497,-0.655633,0.646062,-0.059864,-0.063529,0.042760
2026-01-18T19:39:51.320785,10.097711,-0.655633,0.646062,-0.031764,-0.061086,0.040317
2026-01-18T19:39:51.329785,10.159924,-0.617348,0.650847,-0.006108,-0.047647,0.039095
2026-01-18T19:39:51.339785,10.073783,-0.516849,0.669990,0.004886,-0.031764,0.041538
2026-01-18T19:39:51.348785,10.059426,-0.497707,0.693918,-0.003665,-0.020769,0.048869
2026-01-18T19:39:51.358785,9.973284,-0.440279,0.698704,-0.020769,-0.015882,0.054977
2026-01-18T19:39:51.368785,9.901499,-0.425922,0.736989,-0.043982,-0.017104,0.058643
2026-01-18T19:39:51.377785,9.887142,-0.430708,0.756131,-0.069638,-0.021991,0.063529
2026-01-18T19:39:51.387785,9.906285,-0.468993,0.741775,-0.084299,-0.037873,0.067195
2026-01-18T19:39:51.396785,10.006784,-0.583848,0.732203,-0.084299,-0.050090,0.068416
2026-01-18T19:39:51.406785,10.097711,-0.612562,0.713061,-0.070860,-0.051312,0.068416
2026-01-18T19:39:51.416785,10.150353,-0.636490,0.665204,-0.051312,-0.042760,0.067195
2026-01-18T19:39:51.425785,10.078568,-0.555134,0.674775,-0.041538,-0.024434,0.067195
2026-01-18T19:39:51.435785,10.049854,-0.555134,0.684347,-0.040317,-0.007330,0.069638
2026-01-18T19:39:51.445785,9.939785,-0.483350,0.722632,-0.042760,0.001221,0.070860
2026-01-18T19:39:51.454785,9.791430,-0.440279,0.669990,-0.050090,0.001221,0.072082
2026-01-18T19:39:51.464785,9.820143,-0.531206,0.693918,-0.052534,-0.007330,0.068416
2026-01-18T19:39:51.473785,9.710074,-0.574277,0.713061,-0.042760,-0.018325,0.064751
2026-01-18T19:39:51.483785,9.781858,-0.583848,0.780060,-0.030543,-0.025656,0.058643
2026-01-18T19:39:51.493785,9.805787,-0.516849,0.823130,-0.010995,-0.024434,0.054977
2026-01-18T19:39:51.502785,9.801001,-0.483350,0.756131,-0.010995,-0.019547,0.057421
2026-01-18T19:39:51.512785,9.748359,-0.378065,0.669990,-0.039095,-0.020769,0.063529
2026-01-18T19:39:51.521785,9.858429,-0.401994,0.713061,-0.075747,-0.026878,0.074525
2026-01-18T19:39:51.531785,9.863214,-0.440279,0.669990,-0.113620,-0.029321,0.083077
2026-01-18T19:39:51.541785,9.958927,-0.564706,0.689132,-0.140498,-0.035430,0.095294
2026-01-18T19:39:51.550785,10.068997,-0.760917,0.593420,-0.153938,-0.046425,0.106290
2026-01-18T19:39:51.560785,10.135996,-0.823130,0.502492,-0.140498,-0.052534,0.109955
2026-01-18T19:39:51.570785,10.140782,-0.837487,0.641276,-0.107512,-0.040317,0.111177
2026-01-18T19:39:51.579785,10.016355,-0.823130,0.626919,-0.063529,-0.018325,0.107512
2026-01-18T19:39:51.589785,9.934999,-0.832702,0.655633,-0.020769,0.003665,0.095294
2026-01-18T19:39:51.598785,9.757930,-0.765703,0.665204,0.017104,0.006108,0.079412
2026-01-18T19:39:51.608785,9.700502,-0.665204,0.698704,0.054977,-0.007330,0.067195
2026-01-18T19:39:51.618785,9.710074,-0.583848,0.646062,0.069638,-0.034208,0.056199
2026-01-18T19:39:51.627785,9.877571,-0.535992,0.612562,0.059864,-0.065973,0.047647
2026-01-18T19:39:51.637785,9.978070,-0.492921,0.669990,0.043982,-0.091629,0.037873
2026-01-18T19:39:51.646785,10.217352,-0.516849,0.674775,0.017104,-0.091629,0.034208
2026-01-18T19:39:51.656785,10.289137,-0.497707,0.579063,-0.018325,-0.065973,0.031764
2026-01-18T19:39:51.666785,10.260423,-0.593420,0.559920,-0.048869,-0.028099,0.034208
2026-01-18T19:39:51.675785,10.150353,-0.650847,0.650847,-0.061086,0.003665,0.032986
2026-01-18T19:39:51.685785,9.982855,-0.780060,0.636490,-0.052534,0.010995,0.032986
2026-01-18T19:39:51.695785,9.810572,-0.765703,0.626919,-0.029321,-0.004886,0.036651
2026-01-18T19:39:51.704785,9.767501,-0.756131,0.650847,0.002443,-0.026878,0.030543
2026-01-18T19:39:51.714785,9.829715,-0.717846,0.679561,0.037873,-0.050090,0.025656
2026-01-18T19:39:51.723785,9.915856,-0.693918,0.746560,0.063529,-0.064751,0.019547
2026-01-18T19:39:51.733785,9.958927,-0.641276,0.684347,0.085521,-0.068416,0.009773
2026-01-18T19:39:51.743785,10.068997,-0.559920,0.636490,0.105068,-0.057421,-0.001221
2026-01-18T19:39:51.752785,10.035497,-0.555134,0.674775,0.119729,-0.043982,-0.010995
2026-01-18T19:39:51.762785,10.011569,-0.468993,0.669990,0.117286,-0.032986,-0.017104
2026-01-18T19:39:51.771785,9.997212,-0.349352,0.631705,0.095294,-0.030543,-0.019547
2026-01-18T19:39:51.781785,9.978070,-0.378065,0.722632,0.064751,-0.031764,-0.021991
2026-01-18T19:39:51.791785,9.963713,-0.363709,0.646062,0.031764,-0.035430,-0.019547
2026-01-18T19:39:51.800785,9.973284,-0.421136,0.703489,0.001221,-0.041538,-0.013439
2026-01-18T19:39:51.810785,9.982855,-0.488135,0.741775,-0.017104,-0.050090,-0.012217
2026-01-18T19:39:51.820785,10.011569,-0.583848,0.789631,-0.025656,-0.045204,-0.010995
2026-01-18T19:39:51.829785,10.083354,-0.693918,0.660419,-0.012217,-0.031764,-0.014660
2026-01-18T19:39:51.839785,10.083354,-0.631705,0.775274,0.018325,-0.010995,-0.024434
2026-01-18T19:39:51.848785,9.978070,-0.550349,0.703489,0.043982,0.009773,-0.028099
2026-01-18T19:39:51.858785,9.844072,-0.464207,0.660419,0.053756,0.009773,-0.029321
2026-01-18T19:39:51.868785,9.820143,-0.392422,0.679561,0.043982,-0.002443,-0.029321
2026-01-18T19:39:51.877785,9.829715,-0.320638,0.641276,0.018325,-0.014660,-0.023212
2026-01-18T19:39:51.887785,9.896714,-0.334995,0.650847,-0.013439,-0.021991,-0.019547
2026-01-18T19:39:51.896785,9.992427,-0.430708,0.708275,-0.043982,-0.017104,-0.015882
2026-01-18T19:39:51.906785,10.025926,-0.492921,0.612562,-0.056199,-0.007330,-0.012217
2026-01-18T19:39:51.916785,9.930213,-0.598205,0.655633,-0.054977,-0.001221,-0.014660
2026-01-18T19:39:51.925785,9.863214,-0.641276,0.646062,-0.035430,-0.002443,-0.017104
2026-01-18T19:39:51.935785,9.958927,-0.593420,0.636490,-0.007330,-0.017104,-0.021991
2026-01-18T19:39:51.945785,10.011569,-0.564706,0.660419,0.012217,-0.028099,-0.026878
2026-01-18T19:39:51.954785,10.078568,-0.454636,0.669990,0.018325,-0.024434,-0.030543
2026-01-18T19:39:51.964785,10.121639,-0.411565,0.660419,0.010995,-0.012217,-0.036651
2026-01-18T19:39:51.973785,10.035497,-0.363709,0.617348,-0.008552,0.002443,-0.037873
2026-01-18T19:39:51.983785,9.958927,-0.454636,0.693918,-0.021991,0.009773,-0.040317
2026-01-18T19:39:51.993785,9.882357,-0.545563,0.588634,-0.025656,0.008552,-0.043982
2026-01-18T19:39:52.002785,9.848857,-0.602991,0.574277,-0.018325,-0.004886,-0.043982
2026-01-18T19:39:52.012785,9.834500,-0.583848,0.693918,-0.002443,-0.026878,-0.047647
2026-01-18T19:39:52.021785,9.949356,-0.617348,0.727418,0.017104,-0.046425,-0.048869
2026-01-18T19:39:52.031785,10.040283,-0.497707,0.717846,0.032986,-0.040317,-0.053756
2026-01-18T19:39:52.041785,10.064211,-0.454636,0.713061,0.031764,-0.020769,-0.053756
2026-01-18T19:39:52.050785,10.054640,-0.416351,0.641276,0.013439,0.003665,-0.048869
2026-01-18T19:39:52.060785,9.930213,-0.368494,0.693918,-0.014660,0.021991,-0.043982
2026-01-18T19:39:52.070785,9.810572,-0.430708,0.607776,-0.041538,0.020769,-0.039095
2026-01-18T19:39:52.079785,9.767501,-0.416351,0.660419,-0.062308,0.006108,-0.034208
2026-01-18T19:39:52.089785,9.777073,-0.516849,0.593420,-0.073303,-0.014660,-0.028099
2026-01-18T19:39:52.098785,9.858429,-0.569491,0.588634,-0.073303,-0.024434,-0.028099
2026-01-18T19:39:52.108785,9.872786,-0.564706,0.535992,-0.061086,-0.021991,-0.030543
2026-01-18T19:39:52.118785,9.805787,-0.574277,0.588634,-0.043982,-0.018325,-0.036651
2026-01-18T19:39:52.127785,9.801001,-0.521635,0.607776,-0.026878,-0.023212,-0.043982
2026-01-18T19:39:52.137785,9.848857,-0.540777,0.602991,-0.014660,-0.041538,-0.045204
2026-01-18T19:39:52.146785,9.872786,-0.555134,0.502492,-0.002443,-0.052534,-0.050090
2026-01-18T19:39:52.156785,9.920642,-0.531206,0.564706,0.018325,-0.053756,-0.051312
2026-01-18T19:39:52.166785,9.930213,-0.483350,0.555134,0.029321,-0.045204,-0.053756
2026-01-18T19:39:52.175785,9.901499,-0.440279,0.569491,0.031764,-0.041538,-0.051312
2026-01-18T19:39:52.185785,9.786644,-0.492921,0.636490,0.030543,-0.041538,-0.051312
2026-01-18T19:39:52.195785,9.734002,-0.454636,0.602991,0.029321,-0.045204,-0.050090
2026-01-18T19:39:52.204785,9.705288,-0.488135,0.550349,0.031764,-0.057421,-0.050090
2026-01-18T19:39:52.214785,9.762716,-0.440279,0.598205,0.030543,-0.075747,-0.052534
2026-01-18T19:39:52.223785,9.829715,-0.435493,0.593420,0.021991,-0.094073,-0.051312
2026-01-18T19:39:52.233785,9.915856,-0.406779,0.598205,0.012217,-0.105068,-0.047647
2026-01-18T19:39:52.243785,10.030712,-0.354137,0.622133,0.003665,-0.100181,-0.042760
2026-01-18T19:39:52.252785,10.088140,-0.397208,0.636490,-0.007330,-0.083077,-0.036651
2026-01-18T19:39:52.262785,9.973284,-0.277567,0.646062,-0.020769,-0.063529,-0.031764
2026-01-18T19:39:52.271785,9.891928,-0.325423,0.684347,-0.031764,-0.051312,-0.026878
2026-01-18T19:39:52.281785,9.839286,-0.368494,0.693918,-0.035430,-0.058643,-0.023212
2026-01-18T19:39:52.291785,9.868000,-0.473778,0.665204,-0.024434,-0.085521,-0.024434
2026-01-18T19:39:52.300785,9.925428,-0.421136,0.602991,-0.001221,-0.113620,-0.026878
2026-01-18T19:39:52.310785,10.088140,-0.378065,0.646062,0.028099,-0.125838,-0.028099
2026-01-18T19:39:52.320785,10.179067,-0.349352,0.717846,0.045204,-0.114842,-0.034208
2026-01-18T19:39:52.329785,10.183852,-0.248853,0.799202,0.048869,-0.090408,-0.030543
2026-01-18T19:39:52.339785,10.140782,-0.114855,0.713061,0.036651,-0.065973,-0.028099
2026-01-18T19:39:52.348785,10.088140,-0.043070,0.823130,0.014660,-0.058643,-0.019547
2026-01-18T19:39:52.358785,10.064211,0.038285,0.722632,-0.012217,-0.067195,-0.012217
2026-01-18T19:39:52.368785,10.159924,0.162711,0.732203,-0.048869,-0.073303,-0.007330
2026-01-18T19:39:52.377785,10.207781,0.124426,0.765703,-0.090408,-0.063529,0.000000
2026-01-18T19:39:52.387785,10.164710,0.172283,0.703489,-0.123394,-0.041538,0.007330
2026-01-18T19:39:52.396785,10.025926,0.153140,0.770488,-0.146607,-0.024434,0.004886
2026-01-18T19:39:52.406785,9.978070,0.023928,0.732203,-0.157603,-0.024434,-0.002443
2026-01-18T19:39:52.416785,9.978070,-0.004785,0.784845,-0.149051,-0.040317,-0.014660
2026-01-18T19:39:52.425785,9.968498,0.019142,0.799202,-0.113620,-0.056199,-0.035430
2026-01-18T19:39:52.435785,10.035497,-0.090927,0.760917,-0.080634,-0.063529,-0.056199
2026-01-18T19:39:52.445785,10.102497,-0.057427,0.751346,-0.035430,-0.062308,-0.080634
2026-01-18T19:39:52.454785,10.059426,0.019142,0.598205,-0.002443,-0.056199,-0.095294
2026-01-18T19:39:52.464785,10.073783,0.124426,0.636490,0.004886,-0.040317,-0.111177
2026-01-18T19:39:52.473785,9.944570,0.210568,0.646062,0.001221,-0.034208,-0.122173
2026-01-18T19:39:52.483785,9.944570,0.244067,0.713061,-0.012217,-0.042760,-0.135612
2026-01-18T19:39:52.493785,9.920642,0.239282,0.713061,-0.043982,-0.059864,-0.144164
2026-01-18T19:39:52.502785,10.011569,0.124426,0.693918,-0.062308,-0.076969,-0.147829
2026-01-18T19:39:52.512785,10.083354,-0.057427,0.698704,-0.059864,-0.086742,-0.155159
2026-01-18T19:39:52.521785,10.102497,-0.038285,0.679561,-0.043982,-0.092851,-0.161268
2026-01-18T19:39:52.531785,10.159924,-0.033499,0.665204,-0.037873,-0.090408,-0.168598
2026-01-18T19:39:52.541785,10.174281,0.019142,0.564706,-0.039095,-0.086742,-0.174707
2026-01-18T19:39:52.550785,10.198209,-0.057427,0.559920,-0.040317,-0.080634,-0.179594
2026-01-18T19:39:52.560785,10.126425,-0.129212,0.713061,-0.020769,-0.069638,-0.189368
2026-01-18T19:39:52.570785,10.030712,-0.191425,0.732203,0.018325,-0.058643,-0.195476
2026-01-18T19:39:52.579785,9.858429,-0.071784,0.784845,0.052534,-0.052534,-0.205250
2026-01-18T19:39:52.589785,9.777073,-0.081355,0.909272,0.052534,-0.054977,-0.201585
2026-01-18T19:39:52.598785,9.710074,-0.095712,0.842273,0.020769,-0.070860,-0.191811
2026-01-18T19:39:52.608785,9.724431,-0.224925,0.985842,-0.010995,-0.085521,-0.182037
2026-01-18T19:39:52.618785,9.772287,-0.535992,1.129412,-0.028099,-0.089186,-0.172263
2026-01-18T19:39:52.627785,9.863214,-0.650847,1.071984,-0.017104,-0.078190,-0.156381
2026-01-18T19:39:52.637785,9.853643,-0.655633,1.057627,-0.003665,-0.052534,-0.141720
2026-01-18T19:39:52.646785,9.796215,-0.746560,1.138983,-0.021991,-0.017104,-0.123394
2026-01-18T19:39:52.656785,9.619146,-0.837487,1.105484,-0.058643,0.006108,-0.097738
2026-01-18T19:39:52.666785,9.418149,-0.990628,1.071984,-0.105068,0.019547,-0.062308
2026-01-18T19:39:52.675785,9.355936,-1.253839,0.966700,-0.151494,0.026878,-0.031764
2026-01-18T19:39:52.685785,9.154939,-1.636690,0.976271,-0.156381,0.025656,-0.002443
2026-01-18T19:39:52.695785,9.016155,-1.986042,1.129412,-0.105068,0.003665,0.020769
2026-01-18T19:39:52.704785,8.987441,-2.182254,1.421336,-0.020769,-0.037873,0.034208
2026-01-18T19:39:52.714785,9.169296,-2.297109,1.603191,0.089186,-0.095294,0.042760
2026-01-18T19:39:52.723785,9.480363,-2.474178,1.708475,0.228463,-0.147829,0.051312
2026-01-18T19:39:52.733785,9.901499,-2.522035,1.861615,0.379958,-0.156381,0.065973
2026-01-18T19:39:52.743785,10.193424,-2.378465,1.852044,0.524122,-0.095294,0.078190
2026-01-18T19:39:52.752785,10.068997,-2.096112,1.756331,0.641408,0.031764,0.097738
2026-01-18T19:39:52.762785,9.729216,-1.713260,1.588834,0.696386,0.166155,0.129503
2026-01-18T19:39:52.771785,9.154939,-1.354337,1.655833,0.682947,0.254119,0.171042
2026-01-18T19:39:52.781785,8.585447,-1.124626,1.607976,0.605978,0.279776,0.228463
2026-01-18T19:39:52.791785,8.226524,-1.138983,1.545763,0.515570,0.252898,0.283441
2026-01-18T19:39:52.800785,8.006384,-1.076770,1.540977,0.449596,0.208915,0.328645
2026-01-18T19:39:52.810785,7.963313,-1.081555,1.598405,0.404392,0.179594,0.370184
2026-01-18T19:39:52.820785,7.925028,-1.067198,1.641476,0.365297,0.174707,0.412944
2026-01-18T19:39:52.829785,7.848458,-1.076770,1.828116,0.334754,0.191811,0.452040
2026-01-18T19:39:52.839785,7.647461,-0.985842,1.832902,0.316428,0.221133,0.486248
2026-01-18T19:39:52.848785,7.456035,-1.019342,1.823330,0.313984,0.260228,0.513126
2026-01-18T19:39:52.858785,7.202396,-0.971485,1.497906,0.315206,0.298102,0.542448
2026-01-18T19:39:52.868785,6.972685,-1.024128,1.100698,0.310319,0.331088,0.580321
2026-01-18T19:39:52.877785,6.833901,-1.177268,1.100698,0.285884,0.348193,0.638964
2026-01-18T19:39:52.887785,6.632904,-1.316052,0.856630,0.257785,0.349414,0.712268
2026-01-18T19:39:52.896785,6.431907,-1.411765,1.004985,0.238237,0.346971,0.788015
2026-01-18T19:39:52.906785,6.384050,-1.636690,1.158126,0.221133,0.340862,0.869871
2026-01-18T19:39:52.916785,6.197410,-1.837687,1.057627,0.230907,0.339641,0.949284
2026-01-18T19:39:52.925785,6.111268,-1.986042,1.138983,0.302989,0.338419,1.009149
2026-01-18T19:39:52.935785,5.934200,-1.871187,1.378265,0.428827,0.334754,1.047022
2026-01-18T19:39:52.945785,6.025127,-1.550549,1.598405,0.536339,0.315206,1.081231
2026-01-18T19:39:52.954785,6.192624,-1.378265,1.416550,0.571769,0.296880,1.119104
2026-01-18T19:39:52.964785,6.503691,-1.210768,1.091127,0.532674,0.320093,1.167974
2026-01-18T19:39:52.973785,6.589833,-1.196411,0.435493,0.419053,0.401949,1.236390
2026-01-18T19:39:52.983785,6.465406,-1.292124,0.296710,0.237015,0.513126,1.334129
2026-01-18T19:39:52.993785,6.178267,-1.665404,0.641276,0.006108,0.619417,1.451415
2026-01-18T19:39:53.002785,5.752345,-2.277967,0.976271,-0.205250,0.668286,1.588249
2026-01-18T19:39:53.012785,5.412564,-2.866601,1.296909,-0.321315,0.638964,1.715309
2026-01-18T19:39:53.021785,5.398207,-3.244667,1.651047,-0.339641,0.542448,1.815491
2026-01-18T19:39:53.031785,5.608776,-3.407379,1.947757,-0.283441,0.400727,1.894903
2026-01-18T19:39:53.041785,6.288337,-3.527020,2.172682,-0.156381,0.277332,1.936442
2026-01-18T19:39:53.050785,7.188039,-3.445664,2.622533,0.018325,0.229685,1.949881
2026-01-18T19:39:53.060785,8.130811,-3.369094,2.971885,0.149051,0.267558,1.952324
2026-01-18T19:39:53.070785,8.824729,-3.330809,2.287538,0.167377,0.419053,1.962098
2026-01-18T19:39:53.079785,9.159724,-3.402593,1.588834,0.149051,0.663399,1.977981
2026-01-18T19:39:53.089785,8.958727,-3.536591,1.713260,0.051312,0.907745,1.986533
2026-01-18T19:39:53.098785,8.580661,-4.072584,1.938186,-0.174707,1.049466,2.025628
2026-01-18T19:39:53.108785,8.116454,-4.843072,2.033899,-0.404392,1.073900,2.078163
2026-01-18T19:39:53.118785,7.843672,-5.565705,2.306680,-0.493579,1.004262,2.091602
2026-01-18T19:39:53.127785,7.872386,-6.135197,2.464607,-0.455705,0.835663,2.111149
2026-01-18T19:39:53.137785,8.169096,-6.331408,2.962314,-0.276111,0.618195,2.129475
2026-01-18T19:39:53.146785,8.796015,-6.484549,3.263810,-0.064751,0.461814,2.166127
2026-01-18T19:39:53.156785,9.365507,-6.766902,2.880958,0.102625,0.408057,2.251648
2026-01-18T19:39:53.166785,9.690931,-6.943971,2.589034,0.295658,0.489913,2.332282
2026-01-18T19:39:53.175785,9.523433,-6.876972,2.120040,0.487470,0.662177,2.420247
2026-01-18T19:39:53.185785,8.781658,-6.690331,1.737189,0.632856,0.844215,2.504546
2026-01-18T19:39:53.195785,8.015955,-6.561119,1.971685,0.651182,0.930958,2.576629
2026-01-18T19:39:53.204785,7.398607,-6.728617,2.378465,0.529009,0.867428,2.674367
2026-01-18T19:39:53.214785,7.188039,-7.106683,2.206182,0.397062,0.643851,2.742784
2026-01-18T19:39:53.223785,7.298108,-7.178467,1.981257,0.332310,0.331088,2.791653
2026-01-18T19:39:53.233785,7.867600,-7.298108,1.990828,0.277332,0.058643,2.833192
2026-01-18T19:39:53.243785,8.571090,-7.652246,1.952543,0.262671,-0.091629,2.866179
2026-01-18T19:39:53.252785,9.049655,-7.743173,1.952543,0.334754,-0.114842,2.890613
2026-01-18T19:39:53.262785,9.327222,-7.771887,2.507678,0.442266,-0.014660,2.880839
2026-01-18T19:39:53.271785,9.164510,-7.953742,3.445664,0.515570,0.186924,2.866179
2026-01-18T19:39:53.281785,8.786444,-8.437092,4.220939,0.568104,0.386066,2.855183
2026-01-18T19:39:53.291785,8.303094,-9.145367,4.618147,0.715933,0.496022,2.852740
2026-01-18T19:39:53.300785,7.944171,-9.748359,4.220939,0.963945,0.527787,2.860070
2026-01-18T19:39:53.310785,7.728816,-9.858429,3.541377,1.252273,0.504574,2.885726
2026-01-18T19:39:53.320785,7.470392,-9.466006,2.766102,1.425759,0.450818,2.927265
2026-01-18T19:39:53.329785,7.331608,-8.484948,2.732603,1.444085,0.395840,2.989573
2026-01-18T19:39:53.339785,7.149753,-7.188039,2.952743,1.288925,0.357966,3.067764
2026-01-18T19:39:53.348785,6.987041,-6.173482,2.656033,0.857654,0.279776,3.185050
2026-01-18T19:39:53.358785,7.001398,-5.527420,2.694318,0.311541,0.141720,3.281567
2026-01-18T19:39:53.368785,7.479963,-5.603990,3.282952,-0.248011,0.002443,3.306001
2026-01-18T19:39:53.377785,8.126025,-6.771687,3.905086,-0.670729,-0.061086,3.251024
2026-01-18T19:39:53.387785,8.829515,-8.489734,4.378865,-0.742811,-0.009773,3.111746
2026-01-18T19:39:53.396785,9.188438,-10.250852,4.048655,-0.518013,0.160046,2.971247
2026-01-18T19:39:53.406785,9.006584,-11.643474,2.742174,-0.053756,0.411723,2.857626
2026-01-18T19:39:53.416785,8.327022,-12.212966,1.258624,0.507018,0.685390,2.757445
2026-01-18T19:39:53.425785,7.465606,-11.959327,0.784845,0.928514,0.889419,2.678032
2026-01-18T19:39:53.435785,6.345765,-10.786844,1.598405,1.145982,0.938288,2.580294
2026-01-18T19:39:53.445785,5.426921,-9.408578,2.574677,1.004262,0.797789,2.464229
2026-01-18T19:39:53.454785,5.020141,-8.532805,4.197010,0.577878,0.508239,2.338391
2026-01-18T19:39:53.464785,5.139782,-8.307880,6.077769,0.120951,0.196698,2.158797
2026-01-18T19:39:53.473785,5.828915,-8.834301,7.077969,-0.289550,-0.013439,2.019520
2026-01-18T19:39:53.483785,6.551548,-10.246066,6.967899,-0.483805,-0.047647,1.882686
2026-01-18T19:39:53.493785,7.006184,-11.614760,6.886543,-0.443488,0.119729,1.722639
2026-01-18T19:39:53.502785,6.967899,-12.653245,6.628118,-0.259006,0.427605,1.613905
2026-01-18T19:39:53.512785,6.283552,-13.093525,6.020341,0.089186,0.785572,1.517388
2026-01-18T19:39:53.521785,5.120640,-12.782458,5.307280,0.401949,1.080009,1.404989
2026-01-18T19:39:53.531785,3.905086,-12.208180,4.785645,0.494800,1.205847,1.275486
2026-01-18T19:39:53.541785,2.809173,-11.949756,4.670789,0.442266,1.122770,1.133765
2026-01-18T19:39:53.550785,2.244467,-11.700902,4.776073,0.306654,0.856432,0.951727
2026-01-18T19:39:53.560785,2.368894,-11.605189,5.139782,0.219911,0.504574,0.697607
2026-01-18T19:39:53.570785,3.062812,-11.308479,5.283352,0.265115,0.188146,0.409279
2026-01-18T19:39:53.579785,3.919443,-10.796415,5.278566,0.351858,-0.007330,0.091629
2026-01-18T19:39:53.589785,4.771288,-10.222138,5.402993,0.419053,-0.042760,-0.279776
2026-01-18T19:39:53.598785,5.192425,-9.566504,5.407779,0.427605,0.073303,-0.663399
2026-01-18T19:39:53.608785,5.235495,-9.044869,5.072783,0.354301,0.277332,-1.042135
2026-01-18T19:39:53.618785,4.871786,-9.001798,4.010370,0.191811,0.453261,-1.440419
2026-01-18T19:39:53.627785,4.445864,-9.403792,2.770888,-0.021991,0.516791,-1.827708
2026-01-18T19:39:53.637785,4.144368,-10.150353,2.057827,-0.156381,0.397062,-2.189340
2026-01-18T19:39:53.646785,4.230510,-10.662417,2.029113,-0.167377,0.098960,-2.515542
2026-01-18T19:39:53.656785,4.670789,-10.571490,2.139183,-0.234572,-0.337197,-2.755001
2026-01-18T19:39:53.666785,5.632704,-10.021141,2.852244,-0.371405,-0.813672,-2.984686
2026-01-18T19:39:53.675785,6.987041,-8.896514,3.608376,-0.552222,-1.189965,-3.218037
2026-01-18T19:39:53.685785,8.336593,-7.963313,4.010370,-0.816115,-1.379333,-3.402518
2026-01-18T19:39:53.695785,9.432506,-7.264609,4.130011,-1.076344,-1.370781,-3.585778
2026-01-18T19:39:53.704785,10.140782,-6.900900,4.053441,-1.279151,-1.172861,-3.803246
2026-01-18T19:39:53.714785,10.126425,-7.039684,3.182454,-1.419650,-0.864984,-4.018270
2026-01-18T19:39:53.723785,9.810572,-8.006384,2.177468,-1.645670,-0.625525,-4.180760
2026-01-18T19:39:53.733785,9.791430,-10.336993,0.837487,-2.083050,-0.601091,-4.211304
2026-01-18T19:39:53.743785,10.198209,-12.854243,0.464207,-2.310291,-0.802676,-4.161213
2026-01-18T19:39:53.752785,11.073982,-14.313864,1.804188,-2.098932,-1.091005,-4.135556
2026-01-18T19:39:53.762785,12.098111,-14.859428,3.493520,-1.695761,-1.308473,-4.086687
2026-01-18T19:39:53.771785,13.012169,-14.773286,4.063012,-1.240056,-1.358564,-3.959627
2026-01-18T19:39:53.781785,13.404592,-13.797015,3.661018,-0.745255,-1.176526,-3.842341
2026-01-18T19:39:53.791785,12.940384,-12.366107,3.110669,-0.339641,-0.794124,-3.772702
2026-01-18T19:39:53.800785,11.739187,-10.829915,3.048455,-0.063529,-0.323758,-3.742159
2026-01-18T19:39:53.810785,9.839286,-8.920442,3.034099,0.101403,0.029321,-3.733607
2026-01-18T19:39:53.820785,7.637889,-6.991827,1.899901,0.139277,0.141720,-3.755598
2026-01-18T19:39:53.829785,5.374279,-5.044070,0.253639,0.133168,0.001221,-3.820350
2026-01-18T19:39:53.839785,3.976871,-3.483949,-0.062213,0.019547,-0.389731,-3.931527
2026-01-18T19:39:53.848785,3.847658,-3.139383,0.430708,-0.276111,-0.978605,-4.058587
2026-01-18T19:39:53.858785,5.206781,-3.895515,1.033699,-0.581543,-1.695761,-4.065918
2026-01-18T19:39:53.868785,7.929814,-4.981856,2.096112,-0.740368,-2.328617,-4.042705
2026-01-18T19:39:53.877785,11.198409,-5.915057,3.340380,-0.670729,-2.609615,-4.056144
2026-01-18T19:39:53.887785,13.993226,-6.283552,3.589233,-0.454483,-2.393369,-4.014605
2026-01-18T19:39:53.896785,15.132210,-6.503691,2.828316,-0.139277,-1.740965,-3.926640
2026-01-18T19:39:53.906785,14.356935,-6.293123,2.124826,0.219911,-0.880867,-3.876549
2026-01-18T19:39:53.916785,11.949756,-5.560919,0.952343,0.508239,-0.156381,-3.886323
2026-01-18T19:39:53.925785,9.078368,-4.709074,0.363709,0.730594,0.072082,-3.898541
2026-01-18T19:39:53.935785,6.905686,-3.268595,0.186640,0.885754,-0.215024,-3.957184
2026-01-18T19:39:53.945785,5.804987,-1.986042,-1.067198,0.888197,-0.882089,-3.966958
2026-01-18T19:39:53.954785,6.881757,-1.244267,-0.272781,0.658512,-1.767843,-3.940079
2026-01-18T19:39:53.964785,9.882357,-1.406979,1.048056,0.262671,-2.536311,-3.805689
2026-01-18T19:39:53.973785,13.232308,-1.627119,0.947557,-0.070860,-2.858848,-3.555234
2026-01-18T19:39:53.983785,15.840485,-1.473978,0.574277,-0.344527,-2.593733,-3.309667
2026-01-18T19:39:53.993785,16.644474,-1.258624,0.646062,-0.667064,-1.825264,-3.051882
2026-01-18T19:39:54.002785,15.270993,-1.000199,0.751346,-1.022588,-0.910189,-2.816088
2026-01-18T19:39:54.012785,12.624532,-0.803988,0.971485,-1.393994,-0.240680,-2.619389
2026-01-18T19:39:54.021785,10.140782,-0.923629,1.540977,-1.742187,0.002443,-2.466673
2026-01-18T19:39:54.031785,8.389236,-1.282552,2.043470,-1.981646,-0.128281,-2.342056
2026-01-18T19:39:54.041785,7.676174,-1.684547,1.832902,-2.037846,-0.488692,-2.234544
2026-01-18T19:39:54.050785,7.939385,-2.000399,0.966700,-1.938885,-0.902858,-2.129475
2026-01-18T19:39:54.060785,8.872586,-2.239681,0.071784,-1.728748,-1.170417,-2.047619
2026-01-18T19:39:54.070785,10.174281,-2.407179,-0.047856,-1.495397,-1.183856,-1.964542
2026-01-18T19:39:54.079785,11.006983,-2.646461,0.110069,-1.290147,-0.962723,-1.855808
2026-01-18T19:39:54.089785,11.203195,-2.866601,0.153140,-1.097113,-0.592539,-1.693318
2026-01-18T19:39:54.098785,10.509276,-3.086741,0.124426,-0.880867,-0.179594,-1.524719
2026-01-18T19:39:54.108785,9.178867,-2.995813,0.124426,-0.608421,0.179594,-1.381776
2026-01-18T19:39:54.118785,7.523034,-2.522035,0.526420,-0.277332,0.370184,-1.264490
2026-01-18T19:39:54.127785,6.087340,-1.507478,0.703489,0.002443,0.353080,-1.158200
2026-01-18T19:39:54.137785,5.154139,-0.497707,1.167697,0.135612,0.144164,-1.056796
2026-01-18T19:39:54.146785,4.981856,0.267996,1.584048,0.084299,-0.177150,-0.948062
2026-01-18T19:39:54.156785,5.493920,0.775274,1.363908,-0.102625,-0.493579,-0.813672
2026-01-18T19:39:54.166785,6.317051,0.918843,1.052841,-0.359188,-0.642630,-0.690277
2026-01-18T19:39:54.175785,6.853043,0.885344,0.665204,-0.645073,-0.558330,-0.583987
2026-01-18T19:39:54.185785,6.824330,0.602991,0.210568,-0.901636,-0.311541,-0.505796
2026-01-18T19:39:54.195785,6.245266,0.239282,0.033499,-1.114217,-0.043982,-0.450818
2026-01-18T19:39:54.204785,5.316851,-0.392422,0.000000,-1.262047,0.123394,-0.392175
2026-01-18T19:39:54.214785,4.412364,-1.057627,0.019142,-1.286481,0.147829,-0.334754
2026-01-18T19:39:54.223785,3.847658,-1.641476,0.311066,-1.156978,0.037873,-0.304210
2026-01-18T19:39:54.233785,3.962514,-2.120040,0.890130,-0.852767,-0.164933,-0.291993
2026-01-18T19:39:54.243785,4.594219,-1.962114,1.004985,-0.419053,-0.364075,-0.273667
2026-01-18T19:39:54.252785,5.465206,-1.062413,0.488135,-0.035430,-0.431270,-0.249232
2026-01-18T19:39:54.262785,5.991627,0.071784,0.028713,0.164933,-0.318871,-0.196698
2026-01-18T19:39:54.271785,6.120840,1.306481,-0.114855,0.113620,-0.111177,-0.123394
2026-01-18T19:39:54.281785,5.709274,2.182254,-0.076570,-0.197920,0.087964,-0.026878
2026-01-18T19:39:54.291785,5.134997,2.536391,-0.009571,-0.665842,0.189368,0.083077
2026-01-18T19:39:54.300785,4.733003,2.306680,0.081355,-1.152091,0.145385,0.188146
2026-01-18T19:39:54.310785,4.699503,1.612762,0.306281,-1.507615,-0.042760,0.255341
2026-01-18T19:39:54.320785,5.283352,0.832702,0.358923,-1.678657,-0.302989,0.305432
2026-01-18T19:39:54.329785,6.398407,-0.004785,0.224925,-1.662774,-0.522900,0.323758
2026-01-18T19:39:54.339785,7.451249,-0.512064,0.263210,-1.470963,-0.621860,0.299323
2026-01-18T19:39:54.348785,8.432306,-0.741775,0.421136,-1.191186,-0.597426,0.267558
2026-01-18T19:39:54.358785,9.083154,-0.689132,0.397208,-0.901636,-0.478918,0.239459
2026-01-18T19:39:54.368785,9.355936,-0.540777,0.421136,-0.623082,-0.321315,0.212581
2026-01-18T19:39:54.377785,9.351150,-0.425922,0.497707,-0.403170,-0.195476,0.197920
2026-01-18T19:39:54.387785,9.221938,-0.435493,0.698704,-0.240680,-0.153938,0.196698
2026-01-18T19:39:54.396785,9.298508,-0.665204,0.933200,-0.086742,-0.213802,0.195476
2026-01-18T19:39:54.406785,9.815358,-0.856630,1.296909,0.096516,-0.356745,0.195476
2026-01-18T19:39:54.416785,10.724630,-0.837487,1.550549,0.301767,-0.524122,0.199142
2026-01-18T19:39:54.425785,11.854043,-0.607776,1.435693,0.499687,-0.607199,0.217467
2026-01-18T19:39:54.435785,12.859028,-0.153140,1.363908,0.653625,-0.524122,0.240680
2026-01-18T19:39:54.445785,13.347164,0.282353,1.478764,0.692721,-0.280997,0.284663
2026-01-18T19:39:54.454785,13.103096,0.574277,1.569691,0.602312,0.061086,0.361632
2026-01-18T19:39:54.464785,12.107682,0.636490,1.617548,0.448374,0.410501,0.456927
2026-01-18T19:39:54.473785,10.686345,0.492921,1.689332,0.291993,0.670729,0.555887
2026-01-18T19:39:54.483785,9.188438,0.191425,1.842473,0.201585,0.785572,0.654847
2026-01-18T19:39:54.493785,7.867600,-0.086141,2.163111,0.178372,0.753807,0.744033
2026-01-18T19:39:54.502785,7.068397,-0.425922,2.287538,0.215024,0.620638,0.831998
2026-01-18T19:39:54.512785,6.642475,-0.756131,2.431107,0.307876,0.453261,0.911410
2026-01-18T19:39:54.521785,6.738188,-0.961914,2.435893,0.450818,0.307876,0.971275
2026-01-18T19:39:54.531785,6.958328,-1.115055,2.158325,0.598647,0.241902,1.018923
2026-01-18T19:39:54.541785,7.240681,-1.143769,1.808973,0.741590,0.280997,1.058018
2026-01-18T19:39:54.550785,7.130611,-1.095912,1.603191,0.852767,0.395840,1.097113
2026-01-18T19:39:54.560785,6.829115,-1.071984,1.349551,0.902858,0.535117,1.150869
2026-01-18T19:39:54.570785,6.288337,-1.115055,1.363908,0.916297,0.651182,1.216843
2026-01-18T19:39:54.579785,5.776273,-1.086341,1.397408,0.930958,0.689055,1.293812
2026-01-18T19:39:54.589785,5.469992,-0.966700,1.564905,0.952949,0.638964,1.369559
2026-01-18T19:39:54.598785,5.422136,-0.914058,1.507478,0.951727,0.546113,1.450193
2026-01-18T19:39:54.608785,5.599204,-0.818345,1.483550,0.915075,0.477696,1.541823
2026-01-18T19:39:54.618785,5.848058,-0.899701,1.464407,0.857654,0.474031,1.632231
2026-01-18T19:39:54.627785,6.020341,-1.052841,1.095912,0.800233,0.521678,1.738522
2026-01-18T19:39:54.637785,6.039484,-1.263410,0.669990,0.761137,0.609643,1.848477
2026-01-18T19:39:54.646785,5.819344,-1.426122,0.507278,0.757472,0.726929,1.954768
2026-01-18T19:39:54.656785,5.431707,-1.536192,0.473778,0.769690,0.818559,2.057393
2026-01-18T19:39:54.666785,5.144568,-1.689332,0.315852,0.758694,0.847880,2.173458
2026-01-18T19:39:54.675785,5.039284,-1.852044,0.157926,0.746477,0.814894,2.278526
2026-01-18T19:39:54.685785,5.139782,-2.019542,-0.009571,0.736703,0.728151,2.361604
2026-01-18T19:39:54.695785,5.536991,-2.196611,-0.148355,0.719599,0.602312,2.428799
2026-01-18T19:39:54.704785,6.226124,-2.478964,0.009571,0.744033,0.489913,2.449569
2026-01-18T19:39:54.714785,6.881757,-2.507678,0.210568,0.828333,0.444709,2.433686
2026-01-18T19:39:54.723785,7.465606,-2.354537,0.411565,0.880867,0.452040,2.422691
2026-01-18T19:39:54.733785,7.925028,-2.091326,0.641276,0.873537,0.488692,2.406808
2026-01-18T19:39:54.743785,8.307880,-1.832902,0.741775,0.780685,0.557108,2.422691
2026-01-18T19:39:54.752785,8.341379,-1.789831,0.689132,0.604756,0.634077,2.470338
2026-01-18T19:39:54.762785,8.360522,-2.053041,0.646062,0.415388,0.713490,2.525316
2026-01-18T19:39:54.771785,8.293523,-2.713460,0.516849,0.261450,0.784350,2.602285
2026-01-18T19:39:54.781785,8.020741,-3.464807,0.009571,0.201585,0.845437,2.682919
2026-01-18T19:39:54.791785,7.824529,-4.192225,-0.277567,0.243124,0.882089,2.748893
2026-01-18T19:39:54.800785,7.618747,-4.809573,-0.267996,0.327423,0.862541,2.809979
2026-01-18T19:39:54.810785,7.489534,-5.182853,-0.181854,0.428827,0.748920,2.863735
2026-01-18T19:39:54.820785,7.743173,-5.364708,0.071784,0.463035,0.538783,2.924822
2026-01-18T19:39:54.829785,8.437092,-5.383850,0.684347,0.433714,0.270002,2.984686
2026-01-18T19:39:54.839785,9.384650,-5.417350,1.325623,0.397062,0.021991,3.016451
2026-01-18T19:39:54.848785,10.470991,-5.422136,1.957328,0.345749,-0.102625,3.023782
2026-01-18T19:39:54.858785,11.380264,-5.532205,2.048256,0.282219,-0.058643,3.045773
2026-01-18T19:39:54.868785,11.700902,-5.742774,1.789831,0.239459,0.136833,3.077538
2026-01-18T19:39:54.877785,11.389835,-6.283552,1.550549,0.195476,0.412944,3.119077
2026-01-18T19:39:54.887785,10.514062,-6.958328,1.617548,0.186924,0.673173,3.160616
2026-01-18T19:39:54.896785,9.432506,-7.657032,1.703689,0.250454,0.841772,3.218037
2026-01-18T19:39:54.906785,8.370093,-7.968099,1.517049,0.398284,0.834441,3.284010
2026-01-18T19:39:54.916785,7.484749,-7.934599,1.383051,0.566882,0.620638,3.331658
2026-01-18T19:39:54.925785,7.298108,-7.657032,1.215553,0.642630,0.259006,3.389079
2026-01-18T19:39:54.935785,7.829315,-7.719245,1.536192,0.610865,-0.174707,3.426953
2026-01-18T19:39:54.945785,9.121439,-7.925028,1.770688,0.544891,-0.576656,3.442835
2026-01-18T19:39:54.954785,10.738987,-8.106882,1.416550,0.515570,-0.811228,3.435505
2026-01-18T19:39:54.964785,12.040683,-7.958527,1.703689,0.665842,-0.761137,3.358536
2026-01-18T19:39:54.973785,12.533604,-7.326822,2.206182,0.829554,-0.476474,3.288897
2026-01-18T19:39:54.983785,12.189038,-6.982256,2.268395,0.755029,-0.047647,3.240028
2026-01-18T19:39:54.993785,11.030912,-7.298108,2.129612,0.487470,0.382401,3.188715
2026-01-18T19:39:55.002785,9.379864,-8.102097,2.220539,0.228463,0.687834,3.119077
2026-01-18T19:39:55.012785,7.757530,-8.848657,2.746960,0.174707,0.778242,3.012786
2026-01-18T19:39:55.021785,6.431907,-9.485148,3.067598,0.266337,0.613308,2.938261
2026-01-18T19:39:55.031785,5.905486,-10.217352,2.646461,0.334754,0.233350,2.923600
2026-01-18T19:39:55.041785,6.364908,-10.853843,1.938186,0.447153,-0.223576,2.906496
2026-01-18T19:39:55.050785,7.575676,-11.174481,1.780260,0.602312,-0.592539,2.864957
2026-01-18T19:39:55.060785,9.107082,-11.294122,1.880758,0.696386,-0.756251,2.835635
2026-01-18T19:39:55.070785,10.461420,-11.198409,2.488535,0.877202,-0.649960,2.751336
2026-01-18T19:39:55.079785,11.179267,-10.403992,3.091526,1.091005,-0.294436,2.624276
2026-01-18T19:39:55.089785,10.700702,-9.422935,3.699303,1.143539,0.215024,2.504546
2026-01-18T19:39:55.098785,9.403792,-8.896514,4.465006,0.901636,0.755029,2.412917
2026-01-18T19:39:55.108785,7.484749,-9.351150,4.819144,0.400727,1.180191,2.356717
2026-01-18T19:39:55.118785,5.484349,-10.600204,4.804787,0.001221,1.364672,2.299296
2026-01-18T19:39:55.127785,3.799802,-11.959327,4.800002,-0.097738,1.252273,2.197892
2026-01-18T19:39:55.137785,2.933600,-13.150953,4.326223,0.074525,0.886976,2.061058
2026-01-18T19:39:55.146785,2.746960,-13.935798,3.268595,0.405614,0.437379,1.898568
2026-01-18T19:39:55.156785,3.101098,-14.577075,2.636890,0.756251,0.073303,1.703091
2026-01-18T19:39:55.166785,3.723231,-14.505290,2.852244,1.082452,-0.142942,1.528384
2026-01-18T19:39:55.175785,4.522434,-13.572089,3.235096,1.350011,-0.240680,1.348790
2026-01-18T19:39:55.185785,5.063212,-11.992826,3.388236,1.457524,-0.237015,1.167974
2026-01-18T19:39:55.195785,5.374279,-10.537990,3.795016,1.354898,-0.131946,0.921184
2026-01-18T19:39:55.204785,5.345565,-9.470791,4.063012,0.977384,0.050090,0.658512
2026-01-18T19:39:55.214785,5.029713,-9.221938,4.297509,0.454483,0.296880,0.406836
2026-01-18T19:39:55.223785,4.417150,-9.576076,4.589433,0.023212,0.552222,0.096516
2026-01-18T19:39:55.233785,3.814159,-10.279565,4.393222,-0.273667,0.686612,-0.215024
2026-01-18T19:39:55.243785,3.268595,-10.868200,3.483949,-0.373849,0.674395,-0.522900
2026-01-18T19:39:55.252785,2.904886,-11.131410,2.967100,-0.365297,0.544891,-0.850324
2026-01-18T19:39:55.262785,3.014956,-11.203195,3.062812,-0.537561,0.288328,-1.106887
2026-01-18T19:39:55.271785,3.699303,-11.490334,4.063012,-0.834441,-0.036651,-1.314581
2026-01-18T19:39:55.281785,4.929214,-11.241480,5.000999,-0.950506,-0.324980,-1.598023
2026-01-18T19:39:55.291785,6.321837,-10.332207,5.345565,-0.966388,-0.505796,-1.830151
2026-01-18T19:39:55.300785,7.374679,-9.379864,4.972285,-1.028696,-0.529009,-2.010967
2026-01-18T19:39:55.310785,8.082954,-8.346165,4.398007,-1.056796,-0.349414,-2.251648
2026-01-18T19:39:55.320785,8.169096,-7.594818,3.326023,-1.044579,-0.012217,-2.574185
2026-01-18T19:39:55.329785,7.858029,-7.475177,1.909472,-1.111774,0.337197,-2.927265
2026-01-18T19:39:55.339785,7.341179,-8.508877,0.870987,-1.303586,0.566882,-3.247358
2026-01-18T19:39:55.348785,7.025327,-10.657631,0.172283,-1.606575,0.563217,-3.462383
2026-01-18T19:39:55.358785,7.073183,-13.165309,0.086141,-1.749517,0.277332,-3.617543
2026-01-18T19:39:55.368785,7.685746,-14.974283,0.914058,-1.459967,-0.200363,-3.772702
2026-01-18T19:39:55.377785,8.513662,-14.969498,2.861815,-0.674395,-0.659734,-4.010940
2026-01-18T19:39:55.387785,9.332008,-12.605389,4.709074,0.300545,-0.962723,-4.241847
2026-01-18T19:39:55.396785,9.882357,-9.437292,5.048855,0.745255,-1.123991,-4.225964
2026-01-18T19:39:55.406785,10.356136,-7.283751,4.086941,0.563217,-1.143539,-4.116009
2026-01-18T19:39:55.416785,10.791629,-6.312266,2.924029,0.125838,-0.965166,-4.079357
2026-01-18T19:39:55.425785,10.581061,-5.948556,1.990828,-0.376292,-0.641408,-4.134335
2026-01-18T19:39:55.435785,9.623932,-6.197410,0.066999,-0.702494,-0.338419,-4.290716
2026-01-18T19:39:55.445785,8.379664,-6.786044,-1.363908,-0.748920,-0.265115,-4.438545
2026-01-18T19:39:55.454785,7.948956,-7.905885,-0.138783,-0.781907,-0.508239,-4.525288
2026-01-18T19:39:55.464785,8.642875,-9.633503,0.775274,-0.928514,-1.005483,-4.440989
2026-01-18T19:39:55.473785,10.241280,-10.805986,0.784845,-0.821002,-1.610240,-4.272390
2026-01-18T19:39:55.483785,12.413963,-9.848857,2.282752,-0.331088,-2.008524,-4.188091
2026-01-18T19:39:55.493785,14.519647,-7.575676,4.666004,-0.008552,-1.988976,-4.108678
2026-01-18T19:39:55.502785,15.543775,-5.446064,4.469792,-0.283441,-1.649335,-3.820350
2026-01-18T19:39:55.512785,15.510276,-4.517649,2.780459,-0.904080,-1.158200,-3.505144
2026-01-18T19:39:55.521785,14.457434,-4.498506,1.540977,-1.513723,-0.614530,-3.313332
2026-01-18T19:39:55.531785,12.466605,-4.938785,0.358923,-1.898568,-0.157603,-3.215593
2026-01-18T19:39:55.541785,10.126425,-5.187639,-1.387837,-1.838703,0.065973,-3.224146
2026-01-18T19:39:55.550785,8.092526,-5.197210,-1.493121,-1.521054,-0.014660,-3.314554
2026-01-18T19:39:55.560785,7.269395,-5.364708,-0.167497,-1.271821,-0.382401,-3.402518
2026-01-18T19:39:55.570785,7.604390,-5.910271,0.416351,-1.005483,-0.901636,-3.413514
2026-01-18T19:39:55.579785,8.848657,-6.154339,0.129212,-0.581543,-1.389107,-3.400075
2026-01-18T19:39:55.589785,10.829915,-5.790630,0.224925,-0.051312,-1.613905,-3.403740
2026-01-18T19:39:55.598785,12.260823,-4.608576,0.545563,0.452040,-1.472184,-3.382970
2026-01-18T19:39:55.608785,12.495319,-2.694318,-0.028713,0.734259,-1.067792,-3.319441
2026-01-18T19:39:55.618785,11.787044,-0.942772,0.512064,0.668286,-0.627969,-3.257132
2026-01-18T19:39:55.627785,10.882557,0.282353,2.009970,0.226020,-0.366519,-3.131294
2026-01-18T19:39:55.637785,9.963713,0.502492,2.416750,-0.483805,-0.332310,-2.883283
2026-01-18T19:39:55.646785,9.241080,-0.272781,1.871187,-1.205847,-0.436157,-2.593733
2026-01-18T19:39:55.656785,8.997012,-1.598405,1.119840,-1.670105,-0.553443,-2.381152
2026-01-18T19:39:55.666785,9.011369,-2.775674,0.866201,-1.817934,-0.619417,-2.235766
2026-01-18T19:39:55.675785,9.054440,-3.651447,0.602991,-1.659109,-0.631634,-2.160019
2026-01-18T19:39:55.685785,9.102297,-4.019941,0.492921,-1.280373,-0.599869,-2.127032
2026-01-18T19:39:55.695785,9.217152,-4.106083,0.842273,-0.872315,-0.547335,-2.112371
2026-01-18T19:39:55.704785,9.427721,-3.814159,0.732203,-0.498465,-0.508239,-2.058615
2026-01-18T19:39:55.714785,9.695717,-3.321237,0.033499,-0.168598,-0.497244,-1.959655
2026-01-18T19:39:55.723785,9.863214,-2.498106,-0.076570,0.087964,-0.437379,-1.849699
2026-01-18T19:39:55.733785,9.829715,-1.526620,0.406779,0.248011,-0.276111,-1.733635
2026-01-18T19:39:55.743785,9.284151,-0.468993,0.909272,0.243124,-0.079412,-1.563814
2026-01-18T19:39:55.752785,8.465806,0.330209,1.292124,0.021991,0.063529,-1.386663
2026-01-18T19:39:55.762785,7.518248,0.646062,1.622333,-0.355523,0.141720,-1.197295
2026-01-18T19:39:55.771785,6.628118,0.550349,1.344766,-0.757472,0.146607,-1.006705
2026-01-18T19:39:55.781785,5.804987,0.019142,1.205982,-1.061683,0.070860,-0.860098
2026-01-18T19:39:55.791785,5.355136,-0.746560,1.004985,-1.214399,-0.065973,-0.774576
2026-01-18T19:39:55.800785,5.235495,-1.660618,0.947557,-1.172861,-0.232128,-0.720820
2026-01-18T19:39:55.810785,5.603990,-2.368894,1.033699,-0.927293,-0.383623,-0.692721
2026-01-18T19:39:55.820785,6.192624,-2.560320,0.866201,-0.581543,-0.458148,-0.656069
2026-01-18T19:39:55.829785,6.786044,-2.383251,0.521635,-0.223576,-0.421496,-0.612086
2026-01-18T19:39:55.839785,7.034898,-1.828116,0.291924,0.073303,-0.259006,-0.564439
2026-01-18T19:39:55.848785,6.704688,-1.024128,0.162711,0.271224,0.004886,-0.511904
2026-01-18T19:39:55.858785,5.910271,0.000000,0.191425,0.339641,0.283441,-0.461814
2026-01-18T19:39:55.868785,4.666004,0.617348,0.282353,0.239459,0.466700,-0.387288
2026-01-18T19:39:55.877785,3.584448,0.947557,0.320638,0.009773,0.491135,-0.305432
2026-01-18T19:39:55.887785,2.799602,0.957129,0.263210,-0.254119,0.360410,-0.224798
2026-01-18T19:39:55.896785,2.407179,0.684347,0.239282,-0.482583,0.112399,-0.150272
2026-01-18T19:39:55.906785,2.718246,0.253639,0.287138,-0.607199,-0.180816,-0.095294
2026-01-18T19:39:55.916785,3.393022,-0.153140,0.545563,-0.607199,-0.441044,-0.061086
2026-01-18T19:39:55.925785,4.402793,-0.512064,0.660419,-0.515570,-0.599869,-0.041538
2026-01-18T19:39:55.935785,5.369493,-0.875773,0.535992,-0.346971,-0.623082,-0.031764
2026-01-18T19:39:55.945785,6.211767,-0.957129,0.579063,-0.128281,-0.541226,-0.037873
2026-01-18T19:39:55.954785,6.848258,-0.928415,0.411565,0.094073,-0.405614,-0.045204
2026-01-18T19:39:55.964785,7.255038,-0.746560,0.081355,0.268780,-0.274889,-0.041538
2026-01-18T19:39:55.973785,7.489534,-0.344566,-0.234496,0.414166,-0.197920,-0.050090
2026-01-18T19:39:55.983785,7.939385,0.282353,-0.177068,0.482583,-0.221133,-0.061086
2026-01-18T19:39:55.993785,8.542376,0.832702,-0.023928,0.417831,-0.335975,-0.057421
2026-01-18T19:39:56.002785,9.480363,1.143769,-0.023928,0.245567,-0.469144,-0.035430
2026-01-18T19:39:56.012785,10.633703,1.225125,-0.066999,0.020769,-0.548556,-0.019547
2026-01-18T19:39:56.021785,11.720045,1.182054,-0.023928,-0.228463,-0.529009,0.000000
2026-01-18T19:39:56.031785,12.480962,0.957129,0.047856,-0.460592,-0.397062,0.023212
2026-01-18T19:39:56.041785,12.854243,0.617348,0.000000,-0.643851,-0.182037,0.056199
2026-01-18T19:39:56.050785,12.638888,0.210568,0.157926,-0.762359,0.073303,0.097738
2026-01-18T19:39:56.060785,11.873185,-0.253639,0.186640,-0.811228,0.300545,0.151494
2026-01-18T19:39:56.070785,10.801201,-0.593420,0.095712,-0.762359,0.463035,0.204028
2026-01-18T19:39:56.079785,9.652646,-0.851844,0.387637,-0.637743,0.524122,0.251676
2026-01-18T19:39:56.089785,8.705088,-1.048056,0.736989,-0.471587,0.463035,0.310319
2026-01-18T19:39:56.098785,8.073383,-1.244267,1.196411,-0.262671,0.332310,0.371405
2026-01-18T19:39:56.108785,7.838886,-1.320838,1.440479,-0.012217,0.216246,0.415388
2026-01-18T19:39:56.118785,7.757530,-1.282552,1.775474,0.257785,0.150272,0.438601
2026-01-18T19:39:56.127785,7.642675,-1.043270,1.971685,0.496022,0.146607,0.459370
2026-01-18T19:39:56.137785,7.532605,-1.014556,1.966900,0.662177,0.179594,0.488692
2026-01-18T19:39:56.146785,7.412964,-0.818345,1.828116,0.763581,0.221133,0.524122
2026-01-18T19:39:56.156785,7.211967,-0.713061,1.866401,0.813672,0.241902,0.563217
2026-01-18T19:39:56.166785,7.092326,-0.717846,1.718046,0.802676,0.245567,0.614530
2026-01-18T19:39:56.175785,7.020541,-0.842273,1.607976,0.757472,0.233350,0.663399
2026-01-18T19:39:56.185785,7.015755,-1.100698,1.540977,0.703716,0.207694,0.717155
2026-01-18T19:39:56.195785,7.168896,-1.469193,1.842473,0.665842,0.179594,0.783129
2026-01-18T19:39:56.204785,7.422535,-1.727617,2.234896,0.682947,0.172263,0.851545
2026-01-18T19:39:56.214785,7.652246,-1.823330,2.201396,0.724486,0.219911,0.933401
2026-01-18T19:39:56.223785,7.709674,-1.885544,1.880758,0.786794,0.338419,1.010370
2026-01-18T19:39:56.233785,7.384250,-1.674975,1.512263,0.847880,0.522900,1.083674
2026-01-18T19:39:56.243785,6.733402,-1.330409,1.387837,0.834441,0.701273,1.170417
2026-01-18T19:39:56.252785,5.986842,-1.162911,1.167697,0.745255,0.807563,1.268155
2026-01-18T19:39:56.262785,5.259424,-1.205982,1.033699,0.626747,0.825889,1.370781
2026-01-18T19:39:56.271785,4.761716,-1.497906,1.043270,0.509461,0.772133,1.484402
2026-01-18T19:39:56.281785,4.632504,-2.019542,1.000199,0.452040,0.686612,1.609018
2026-01-18T19:39:56.291785,4.613361,-2.517249,1.172483,0.497244,0.609643,1.739743
2026-01-18T19:39:56.300785,4.766502,-2.732603,1.210768,0.631634,0.576656,1.858251
2026-01-18T19:39:56.310785,5.039284,-2.579462,1.220339,0.764803,0.581543,1.981646
2026-01-18T19:39:56.320785,5.216353,-2.220539,1.067198,0.839328,0.596204,2.103819
2026-01-18T19:39:56.329785,5.412564,-1.832902,0.904486,0.811228,0.590095,2.246761
2026-01-18T19:39:56.339785,5.680560,-1.588834,0.650847,0.682947,0.585208,2.388482
2026-01-18T19:39:56.348785,5.962913,-1.560120,0.559920,0.500909,0.603534,2.510655
2026-01-18T19:39:56.358785,6.168696,-1.847259,0.440279,0.295658,0.618195,2.624276
2026-01-18T19:39:56.368785,6.436692,-2.550748,0.062213,0.109955,0.612086,2.719571
2026-01-18T19:39:56.377785,6.781259,-3.689732,-0.244067,0.045204,0.597426,2.778214
2026-01-18T19:39:56.387785,7.111468,-4.814359,-0.411565,0.182037,0.575434,2.802649
2026-01-18T19:39:56.396785,7.508677,-5.733202,-0.397208,0.507018,0.551000,2.817309
2026-01-18T19:39:56.406785,7.843672,-6.025127,-0.306281,1.000597,0.549778,2.805092
2026-01-18T19:39:56.416785,8.039883,-5.441278,-0.162711,1.568701,0.576656,2.789210
2026-01-18T19:39:56.425785,8.116454,-4.072584,0.153140,1.964542,0.602312,2.803870
2026-01-18T19:39:56.435785,8.097311,-2.603390,0.277567,1.981646,0.621860,2.890613
2026-01-18T19:39:56.445785,8.116454,-1.540977,0.248853,1.674992,0.636521,3.037221
2026-01-18T19:39:56.454785,8.054240,-1.057627,0.086141,1.154535,0.651182,3.177720
2026-01-18T19:39:56.464785,7.934599,-1.301695,-0.129212,0.529009,0.648738,3.295006
2026-01-18T19:39:56.473785,7.939385,-2.593819,-0.502492,-0.040317,0.571769,3.368310
2026-01-18T19:39:56.483785,8.350950,-4.517649,-0.607776,-0.436157,0.409279,3.389079
2026-01-18T19:39:56.493785,8.944370,-6.776473,-0.306281,-0.568104,0.207694,3.358536
2026-01-18T19:39:56.502785,9.815358,-8.590233,0.014356,-0.327423,0.014660,3.269350
2026-01-18T19:39:56.512785,10.753344,-9.533005,0.239282,0.232128,-0.114842,3.145955
2026-01-18T19:39:56.521785,11.648260,-9.370293,0.392422,0.954171,-0.131946,3.027447
2026-01-18T19:39:56.531785,12.078968,-8.006384,1.234696,1.585805,-0.004886,2.926043
2026-01-18T19:39:56.541785,12.059825,-5.972485,1.957328,1.832595,0.232128,2.922378
2026-01-18T19:39:56.550785,11.485548,-4.115654,2.474178,1.622457,0.475253,2.993239
2026-01-18T19:39:56.560785,10.643274,-3.086741,2.718246,1.001818,0.627969,3.094642
2026-01-18T19:39:56.570785,9.757930,-3.168097,2.761317,0.182037,0.651182,3.196046
2026-01-18T19:39:56.579785,9.221938,-4.527220,2.785245,-0.543669,0.557108,3.258354
2026-01-18T19:39:56.589785,9.083154,-6.752545,2.574677,-0.978605,0.399505,3.277902
2026-01-18T19:39:56.598785,9.427721,-9.092725,2.421536,-1.040914,0.235793,3.287676
2026-01-18T19:39:56.608785,9.901499,-11.217552,2.502892,-0.758694,0.151494,3.273015
2026-01-18T19:39:56.618785,10.317851,-12.638888,2.512463,-0.266337,0.221133,3.288897
2026-01-18T19:39:56.627785,10.370493,-13.261022,2.459821,0.268780,0.409279,3.327993
2026-01-18T19:39:56.637785,10.088140,-12.902099,2.469392,0.669508,0.621860,3.415957
2026-01-18T19:39:56.646785,9.355936,-11.763115,2.780459,0.994488,0.715933,3.467270
2026-01-18T19:39:56.656785,8.508877,-10.408778,3.215953,1.143539,0.684168,3.436727
2026-01-18T19:39:56.666785,8.035098,-9.556933,3.488735,1.059240,0.533896,3.412292
2026-01-18T19:39:56.675785,7.939385,-9.652646,3.326023,0.858876,0.328645,3.370753
2026-01-18T19:39:56.685785,8.212167,-10.576275,3.010170,0.519235,0.145385,3.359758
2026-01-18T19:39:56.695785,8.528019,-12.011969,3.235096,0.317649,0.108733,3.316997
2026-01-18T19:39:56.704785,8.623732,-13.007383,3.694518,0.370184,0.240680,3.236363
2026-01-18T19:39:56.714785,8.121239,-13.241880,3.952942,0.485026,0.409279,3.220480
2026-01-18T19:39:56.723785,7.389036,-12.868599,3.790230,0.729372,0.529009,3.200933
2026-01-18T19:39:56.733785,6.412764,-12.088539,3.795016,0.899193,0.571769,3.185050
2026-01-18T19:39:56.743785,5.460421,-11.490334,4.206582,0.954171,0.560774,3.150842
2026-01-18T19:39:56.752785,4.589433,-11.222337,4.398007,1.005483,0.540004,3.056769
2026-01-18T19:39:56.762785,3.881158,-11.279765,4.134797,0.978605,0.515570,2.912604
2026-01-18T19:39:56.771785,3.373879,-11.777472,3.981656,0.960279,0.456927,2.735453
2026-01-18T19:39:56.781785,3.058027,-11.992826,3.488735,1.059240,0.326201,2.506990
2026-01-18T19:39:56.791785,3.019742,-11.595618,3.134597,1.139874,0.092851,2.250427
2026-01-18T19:39:56.800785,3.460021,-10.729416,3.852444,1.208291,-0.183259,1.947437
2026-01-18T19:39:56.810785,4.153940,-9.221938,4.278366,1.216843,-0.416610,1.628566
2026-01-18T19:39:56.820785,4.934000,-8.015955,4.876572,0.788015,-0.575434,1.414763
2026-01-18T19:39:56.829785,5.938985,-7.637889,4.900500,0.052534,-0.586430,1.205847
2026-01-18T19:39:56.839785,6.719045,-8.054240,4.972285,-0.700051,-0.441044,0.982271
2026-01-18T19:39:56.848785,7.063612,-9.154939,5.034498,-1.363450,-0.157603,0.717155
2026-01-18T19:39:56.858785,6.594619,-10.944770,4.895715,-1.764178,0.226020,0.448374
2026-01-18T19:39:56.868785,5.436492,-12.251251,4.709074,-1.693318,0.614530,0.155159
2026-01-18T19:39:56.877785,3.909872,-12.854243,4.311866,-1.297477,0.890641,-0.191811
2026-01-18T19:39:56.887785,2.263610,-13.060025,3.967299,-0.817337,0.993266,-0.548556
2026-01-18T19:39:56.896785,0.942772,-12.839886,3.823730,-0.291993,0.906523,-0.930958
2026-01-18T19:39:56.906785,0.224925,-12.409178,4.134797,0.128281,0.602312,-1.334129
2026-01-18T19:39:56.916785,0.684347,-11.997612,4.800002,0.340862,0.081855,-1.670105
2026-01-18T19:39:56.925785,2.292324,-11.629117,5.264209,0.505796,-0.526565,-1.993863
2026-01-18T19:39:56.935785,4.718646,-11.073982,5.235495,0.615752,-1.016479,-2.283413
2026-01-18T19:39:56.945785,7.068397,-10.284351,4.713860,0.675616,-1.204625,-2.521651
2026-01-18T19:39:56.954785,8.724231,-9.064012,3.756731,0.681725,-1.058018,-2.757445
2026-01-18T19:39:56.964785,9.394221,-8.001598,2.885744,0.489913,-0.662177,-2.978578
2026-01-18T19:39:56.973785,9.064012,-7.546962,2.143969,0.019547,-0.169820,-3.150842
2026-01-18T19:39:56.983785,8.087740,-7.680960,2.158325,-0.427605,0.276111,-3.375640
2026-01-18T19:39:56.993785,6.876972,-8.494520,2.033899,-0.907745,0.483805,-3.562565
2026-01-18T19:39:57.002785,6.087340,-10.494919,1.282552,-1.522275,0.305432,-3.571117
2026-01-18T19:39:57.012785,6.259623,-12.701102,1.292124,-1.781282,-0.183259,-3.597995
2026-01-18T19:39:57.021785,7.240681,-14.098510,1.909472,-1.452637,-0.729372,-3.773924
2026-01-18T19:39:57.031785,8.590233,-14.289936,2.689532,-0.785572,-1.097113,-3.931527
2026-01-18T19:39:57.041785,9.609575,-12.839886,3.029313,0.026878,-1.185078,-4.068361
2026-01-18T19:39:57.050785,10.011569,-10.375278,2.833101,0.609643,-1.049466,-4.161213
2026-01-18T19:39:57.060785,9.834500,-8.073383,2.742174,0.762359,-0.795346,-4.239403
2026-01-18T19:39:57.070785,9.140582,-6.317051,2.488535,0.608421,-0.537561,-4.320038
2026-01-18T19:39:57.079785,8.341379,-5.283352,2.378465,0.224798,-0.405614,-4.408002
2026-01-18T19:39:57.089785,7.714460,-5.259424,1.569691,-0.289550,-0.471587,-4.486193
2026-01-18T19:39:57.098785,7.661817,-6.321837,0.449850,-0.717155,-0.746477,-4.535062
2026-01-18T19:39:57.108785,8.370093,-7.862815,-0.555134,-1.108109,-1.213178,-4.482528
2026-01-18T19:39:57.118785,10.116853,-9.681360,-0.473778,-1.295034,-1.749517,-4.342029
2026-01-18T19:39:57.127785,12.366107,-10.317851,0.684347,-1.032362,-2.133140,-4.217412
2026-01-18T19:39:57.137785,14.634503,-9.475577,2.699103,-0.664621,-2.205223,-4.091574
2026-01-18T19:39:57.146785,16.232908,-8.240881,3.302095,-0.605978,-1.890016,-3.855780
2026-01-18T19:39:57.156785,16.496119,-7.159325,2.636890,-0.836885,-1.273042,-3.557678
2026-01-18T19:39:57.166785,15.247065,-6.532405,1.899901,-1.204625,-0.540004,-3.324327
2026-01-18T19:39:57.175785,12.964312,-6.494120,1.387837,-1.532049,0.041538,-3.117855
2026-01-18T19:39:57.185785,10.423135,-6.417550,1.201196,-1.626122,0.272445,-3.026225
2026-01-18T19:39:57.195785,8.269594,-5.967699,0.870987,-1.506393,0.145385,-3.038443
2026-01-18T19:39:57.204785,6.800401,-5.139782,-0.110069,-1.202182,-0.205250,-3.115412
2026-01-18T19:39:57.214785,6.173482,-4.106083,-0.875773,-0.839328,-0.695164,-3.215593
2026-01-18T19:39:57.223785,6.752545,-3.397808,-0.650847,-0.649960,-1.220508,-3.298671
2026-01-18T19:39:57.233785,8.298308,-3.416950,-0.425922,-0.620638,-1.653000,-3.318219
2026-01-18T19:39:57.243785,10.298708,-3.804587,-0.780060,-0.552222,-1.833817,-3.284010
2026-01-18T19:39:57.252785,11.930613,-3.689732,-0.124426,-0.392175,-1.678657,-3.258354
2026-01-18T19:39:57.262785,12.452248,-3.134597,0.000000,-0.287106,-1.266934,-3.167946
2026-01-18T19:39:57.271785,11.715259,-2.110469,-0.071784,-0.327423,-0.833220,-3.045773
2026-01-18T19:39:57.281785,10.614561,-1.091127,1.148554,-0.530230,-0.553443,-2.970026
2026-01-18T19:39:57.291785,9.542576,-0.287138,2.258824,-0.874758,-0.502131,-2.873509
2026-01-18T19:39:57.300785,9.044869,-0.263210,2.306680,-1.337794,-0.695164,-2.717128
2026-01-18T19:39:57.310785,9.250652,-0.823130,1.986042,-1.677435,-1.022588,-2.593733
2026-01-18T19:39:57.320785,10.222138,-1.435693,1.473978,-1.778839,-1.274264,-2.516764
2026-01-18T19:39:57.329785,11.341979,-1.986042,0.167497,-1.726304,-1.320690,-2.449569
2026-01-18T19:39:57.339785,12.074182,-2.545963,-0.995414,-1.489289,-1.130100,-2.430021
2026-01-18T19:39:57.348785,12.126824,-2.885744,-1.057627,-1.152091,-0.766024,-2.436130
2026-01-18T19:39:57.358785,11.571690,-3.144168,-0.330209,-0.866206,-0.375071,-2.414138
2026-01-18T19:39:57.368785,10.581061,-3.311666,-0.129212,-0.603534,-0.084299,-2.327396
2026-01-18T19:39:57.377785,9.461220,-2.933600,0.129212,-0.366519,0.053756,-2.222327
2026-01-18T19:39:57.387785,8.504091,-2.187039,0.459421,-0.263893,0.021991,-2.103819
2026-01-18T19:39:57.396785,7.862815,-1.263410,0.459421,-0.287106,-0.142942,-1.949881
2026-01-18T19:39:57.406785,7.695317,-0.445065,0.602991,-0.382401,-0.344527,-1.827708
2026-01-18T19:39:57.416785,7.724031,0.363709,0.751346,-0.557108,-0.504574,-1.721417
2026-01-18T19:39:57.425785,7.872386,0.717846,0.827916,-0.797789,-0.599869,-1.642005
2026-01-18T19:39:57.435785,8.082954,0.579063,0.813559,-1.065348,-0.642630,-1.569923
2026-01-18T19:39:57.445785,8.250452,-0.215354,0.995414,-1.274264,-0.641408,-1.488067
2026-01-18T19:39:57.454785,8.379664,-1.234696,1.272981,-1.336572,-0.563217,-1.417207
2026-01-18T19:39:57.464785,8.169096,-2.167897,0.914058,-1.235169,-0.384845,-1.345124
2026-01-18T19:39:57.473785,7.556533,-2.761317,0.311066,-0.956614,-0.118507,-1.306029
2026-01-18T19:39:57.483785,6.417550,-2.603390,0.296710,-0.580321,0.153938,-1.285260
2026-01-18T19:39:57.493785,4.967499,-2.172682,0.502492,-0.279776,0.315206,-1.235169
2026-01-18T19:39:57.502785,3.771088,-1.832902,0.626919,-0.134390,0.311541,-1.155756
2026-01-18T19:39:57.512785,2.880958,-1.617548,0.885344,-0.095294,0.174707,-1.047022
2026-01-18T19:39:57.521785,2.388036,-1.483550,1.153340,-0.098960,-0.031764,-0.934623
2026-01-18T19:39:57.531785,2.397608,-1.239482,1.052841,-0.133168,-0.254119,-0.806341
2026-01-18T19:39:57.541785,2.727817,-1.048056,1.115055,-0.168598,-0.433714,-0.702494
2026-01-18T19:39:57.550785,3.182454,-1.062413,1.191625,-0.218689,-0.500909,-0.615752
2026-01-18T19:39:57.560785,3.570091,-1.158126,1.177268,-0.250454,-0.470366,-0.543669
2026-01-18T19:39:57.570785,3.732803,-1.411765,1.253839,-0.246789,-0.395840,-0.492357
2026-01-18T19:39:57.579785,3.694518,-1.555334,1.210768,-0.237015,-0.344527,-0.449596
2026-01-18T19:39:57.589785,3.814159,-1.942971,1.406979,-0.199142,-0.362853,-0.416610
2026-01-18T19:39:57.598785,4.211367,-2.163111,1.497906,-0.098960,-0.480139,-0.379958
2026-01-18T19:39:57.608785,5.034498,-2.330609,1.473978,0.072082,-0.671951,-0.350636
2026-01-18T19:39:57.618785,6.541976,-2.378465,1.555334,0.276111,-0.864984,-0.323758
2026-01-18T19:39:57.627785,8.049455,-2.282752,1.483550,0.485026,-0.961501,-0.304210
2026-01-18T19:39:57.637785,9.690931,-1.957328,1.110269,0.626747,-0.959058,-0.279776
2026-01-18T19:39:57.646785,11.203195,-1.751546,0.732203,0.652403,-0.878424,-0.244346
2026-01-18T19:39:57.656785,12.442677,-1.569691,0.756131,0.620638,-0.746477,-0.190589
2026-01-18T19:39:57.666785,13.332807,-1.402194,0.655633,0.577878,-0.564439,-0.108733
2026-01-18T19:39:57.675785,13.825728,-1.210768,0.521635,0.531452,-0.322536,-0.010995
2026-01-18T19:39:57.685785,13.859228,-0.966700,0.607776,0.464257,-0.017104,0.105068
2026-01-18T19:39:57.695785,13.064811,-0.770488,0.794417,0.384845,0.353080,0.252898
2026-01-18T19:39:57.704785,11.576475,-0.636490,1.177268,0.276111,0.731816,0.408057
2026-01-18T19:39:57.714785,9.695717,-0.689132,1.416550,0.146607,0.996931,0.598647
2026-01-18T19:39:57.723785,7.810172,-0.914058,1.473978,0.067195,1.086118,0.801455
2026-01-18T19:39:57.733785,6.259623,-0.957129,2.033899,0.098960,1.033583,0.965166
2026-01-18T19:39:57.743785,5.130211,-1.143769,2.292324,0.195476,0.882089,1.109331
2026-01-18T19:39:57.752785,4.532006,-1.325623,2.115255,0.327423,0.662177,1.240056
2026-01-18T19:39:57.762785,4.560719,-1.430907,2.014756,0.513126,0.442266,1.323133
2026-01-18T19:39:57.771785,5.106283,-1.349551,1.684547,0.717155,0.298102,1.376889
2026-01-18T19:39:57.781785,5.781059,-1.100698,1.272981,0.863763,0.274889,1.407433
2026-01-18T19:39:57.791785,6.235695,-0.813559,1.009771,0.935845,0.370184,1.414763
2026-01-18T19:39:57.800785,6.532405,-0.497707,1.287338,0.945619,0.504574,1.419650
2026-01-18T19:39:57.810785,6.719045,-0.076570,1.426122,0.869871,0.612086,1.451415
2026-01-18T19:39:57.820785,6.680760,-0.071784,1.320838,0.729372,0.695164,1.499062
2026-01-18T19:39:57.829785,6.752545,-0.133998,1.186840,0.571769,0.764803,1.550375
2026-01-18T19:39:57.839785,6.719045,-0.507278,1.100698,0.406836,0.807563,1.634675
2026-01-18T19:39:57.848785,6.685546,-0.751346,1.196411,0.289550,0.831998,1.727526
2026-01-18T19:39:57.858785,6.661618,-0.842273,1.445264,0.239459,0.872315,1.822821
2026-01-18T19:39:57.868785,6.647261,-0.856630,1.205982,0.174707,0.915075,1.930333
2026-01-18T19:39:57.877785,6.532405,-1.124626,0.861416,0.097738,0.961501,2.036624
2026-01-18T19:39:57.887785,6.484549,-1.454836,0.660419,0.048869,1.006705,2.141693
2026-01-18T19:39:57.896785,6.417550,-1.904686,0.488135,0.041538,1.020144,2.255313
2026-01-18T19:39:57.906785,6.422335,-2.493321,0.334995,0.096516,0.999375,2.366491
2026-01-18T19:39:57.916785,6.623332,-2.995813,0.516849,0.240680,0.956614,2.465451
2026-01-18T19:39:57.925785,6.920042,-3.311666,0.818345,0.447153,0.899193,2.557081
2026-01-18T19:39:57.935785,7.312465,-3.579662,0.689132,0.670729,0.831998,2.648711
2026-01-18T19:39:57.945785,7.690531,-3.570091,0.320638,0.908967,0.792902,2.731788
2026-01-18T19:39:57.954785,7.982456,-3.345165,-0.086141,1.104444,0.805120,2.801427
2026-01-18T19:39:57.964785,8.049455,-3.038884,-0.478564,1.204625,0.829554,2.878396
2026-01-18T19:39:57.973785,8.011170,-2.761317,-0.531206,1.193630,0.825889,2.965139
2026-01-18T19:39:57.983785,8.030312,-2.478964,-0.373280,1.082452,0.773355,3.073873
2026-01-18T19:39:57.993785,8.197810,-2.526820,-0.263210,0.885754,0.669508,3.198489
2026-01-18T19:39:58.002785,8.599804,-3.096312,-0.392422,0.667064,0.543669,3.308445
2026-01-18T19:39:58.012785,9.154939,-4.039084,-0.468993,0.544891,0.459370,3.395188
2026-01-18T19:39:58.021785,9.628718,-4.905286,-0.138783,0.588873,0.452040,3.431840
2026-01-18T19:39:58.031785,9.939785,-5.647061,-0.416351,0.759916,0.515570,3.447722
2026-01-18T19:39:58.041785,10.054640,-6.144768,-0.736989,1.058018,0.597426,3.435505
2026-01-18T19:39:58.050785,9.901499,-6.307480,-0.636490,1.412320,0.660956,3.395188
2026-01-18T19:39:58.060785,9.824929,-5.972485,-0.181854,1.685987,0.663399,3.403740
2026-01-18T19:39:58.070785,9.863214,-5.134997,-0.028713,1.787391,0.590095,3.464826
2026-01-18T19:39:58.079785,9.973284,-4.015156,-0.023928,1.663996,0.477696,3.554013
2026-01-18T19:39:58.089785,10.198209,-3.005385,-0.143569,1.329242,0.398284,3.651751
2026-01-18T19:39:58.098785,10.528419,-2.431107,-0.220139,0.784350,0.362853,3.753155
2026-01-18T19:39:58.108785,10.777272,-2.904886,-0.047856,0.123394,0.361632,3.854558
2026-01-18T19:39:58.118785,11.002198,-4.694717,-0.334995,-0.411723,0.431270,3.905871
2026-01-18T19:39:58.127785,10.868200,-6.809973,-0.315852,-0.649960,0.570548,3.902206
2026-01-18T19:39:58.137785,10.423135,-8.681160,-0.105284,-0.529009,0.703716,3.848450
2026-01-18T19:39:58.146785,9.930213,-9.973284,0.445065,-0.053756,0.739146,3.767816
2026-01-18T19:39:58.156785,9.494720,-10.298708,1.344766,0.615752,0.665842,3.672521
2026-01-18T19:39:58.166785,9.379864,-9.973284,2.000399,1.238834,0.533896,3.589443
2026-01-18T19:39:58.175785,9.537790,-9.044869,2.115255,1.720196,0.389731,3.558900
2026-01-18T19:39:58.185785,9.863214,-7.623532,1.976471,1.980424,0.302989,3.541795
2026-01-18T19:39:58.195785,10.064211,-6.010770,1.727617,1.903455,0.333532,3.582113
2026-01-18T19:39:58.204785,10.006784,-4.919643,1.521835,1.464854,0.481361,3.673742
2026-01-18T19:39:58.214785,9.590432,-4.924428,1.249053,0.725707,0.689055,3.781255
2026-01-18T19:39:58.223785,8.796015,-6.364908,0.813559,-0.196698,0.840550,3.953518
2026-01-18T19:39:58.233785,8.006384,-8.379664,0.693918,-0.908967,0.845437,4.074470
2026-01-18T19:39:58.243785,7.446463,-10.590632,1.076770,-1.204625,0.713490,4.108678
2026-01-18T19:39:58.252785,7.168896,-12.198609,2.325823,-0.992044,0.507018,4.025601
2026-01-18T19:39:58.262785,7.116254,-13.012169,3.756731,-0.394618,0.302989,3.847228
2026-01-18T19:39:58.271785,7.341179,-13.265808,4.474578,0.339641,0.155159,3.656638
2026-01-18T19:39:58.281785,7.628318,-13.055240,4.259224,0.970053,0.112399,3.450166
2026-01-18T19:39:58.291785,7.939385,-12.318250,3.952942,1.392772,0.180816,3.258354
2026-01-18T19:39:58.300785,7.853243,-11.174481,3.665804,1.463632,0.348193,3.116633
2026-01-18T19:39:58.310785,7.365107,-10.174281,3.584448,1.211956,0.577878,2.995682
2026-01-18T19:39:58.320785,6.412764,-9.389435,3.522234,0.844215,0.791681,2.858848
2026-01-18T19:39:58.329785,5.245067,-8.944370,3.512663,0.397062,0.885754,2.717128
2026-01-18T19:39:58.339785,4.244867,-9.399007,3.862015,-0.105068,0.818559,2.557081
2026-01-18T19:39:58.348785,3.646661,-10.423135,4.900500,-0.415388,0.651182,2.365269
2026-01-18T19:39:58.358785,3.699303,-11.394621,6.044269,-0.464257,0.452040,2.156353
2026-01-18T19:39:58.368785,4.072584,-12.222537,7.164110,-0.256563,0.300545,1.894903
2026-01-18T19:39:58.377785,4.675575,-12.796815,7.178467,0.106290,0.259006,1.611462
2026-01-18T19:39:58.387785,5.187639,-12.873385,6.972685,0.533896,0.362853,1.273042
2026-01-18T19:39:58.396785,5.431707,-12.279965,6.695117,0.840550,0.560774,0.937067
2026-01-18T19:39:58.406785,5.197210,-11.375478,6.704688,0.955393,0.795346,0.636521
2026-01-18T19:39:58.416785,4.603790,-10.250852,6.546762,0.921184,1.015257,0.321315
2026-01-18T19:39:58.425785,3.751945,-9.332008,5.728417,0.663399,1.183856,0.035430
2026-01-18T19:39:58.435785,2.785245,-9.006584,4.469792,0.343306,1.270599,-0.272445
2026-01-18T19:39:58.445785,1.808973,-8.920442,3.661018,0.002443,1.211956,-0.625525
2026-01-18T19:39:58.454785,1.354337,-9.662217,3.550948,-0.478918,0.968832,-0.951727
2026-01-18T19:39:58.464785,1.579262,-11.413763,3.775874,-0.957836,0.591317,-1.232725
2026-01-18T19:39:58.473785,2.507678,-13.170095,4.053441,-1.134987,0.195476,-1.502728
2026-01-18T19:39:58.483785,3.732803,-14.098510,4.354937,-0.860098,-0.089186,-1.841147
2026-01-18T19:39:58.493785,4.709074,-13.840085,4.144368,-0.318871,-0.222354,-2.195449
2026-01-18T19:39:58.502785,5.388636,-12.667602,3.474378,0.174707,-0.217467,-2.524094
2026-01-18T19:39:58.512785,5.599204,-11.418549,3.158525,0.445931,-0.116064,-2.818531
2026-01-18T19:39:58.521785,5.446064,-10.394421,2.967100,0.439822,-0.012217,-3.073873
2026-01-18T19:39:58.531785,5.312066,-9.997212,2.608176,0.149051,-0.026878,-3.242472
2026-01-18T19:39:58.541785,5.240281,-9.801001,2.067398,-0.058643,-0.186924,-3.452609
2026-01-18T19:39:58.550785,5.402993,-9.475577,1.694118,-0.040317,-0.425162,-3.726277
2026-01-18T19:39:58.560785,5.972485,-9.317651,1.866401,-0.006108,-0.675616,-3.979175
2026-01-18T19:39:58.570785,6.757331,-9.341579,2.249253,0.052534,-0.882089,-4.164878
2026-01-18T19:39:58.579785,7.724031,-9.054440,2.593819,0.107512,-1.015257,-4.309042
2026-01-18T19:39:58.589785,8.628518,-8.891728,2.775674,0.031764,-1.051909,-4.414111
2026-01-18T19:39:58.598785,9.135796,-8.365307,2.751745,0.000000,-0.972497,-4.537506
2026-01-18T19:39:58.608785,9.073583,-7.609175,2.737389,-0.073303,-0.825889,-4.643796
2026-01-18T19:39:58.618785,8.953942,-7.154539,2.804388,-0.543669,-0.800233,-4.643796
2026-01-18T19:39:58.627785,9.054440,-7.058826,2.622533,-1.069013,-0.919962,-4.659679
2026-01-18T19:39:58.637785,9.403792,-7.350751,1.478764,-1.502728,-1.112996,-4.656013
2026-01-18T19:39:58.646785,10.341779,-9.001798,0.574277,-1.974316,-1.387885,-4.552166
2026-01-18T19:39:58.656785,11.877971,-11.160124,1.277767,-2.061058,-1.620014,-4.504519
2026-01-18T19:39:58.666785,13.462019,-12.643674,1.603191,-1.734856,-1.639561,-4.444654
2026-01-18T19:39:58.675785,14.356935,-13.462019,1.411765,-1.152091,-1.402546,-4.386011
2026-01-18T19:39:58.685785,14.189438,-13.045668,1.325623,-0.398284,-0.960279,-4.375015
2026-01-18T19:39:58.695785,12.830314,-11.365907,1.268195,0.279776,-0.499687,-4.335920
2026-01-18T19:39:58.704785,10.825129,-8.810372,1.186840,0.701273,-0.222354,-4.284607
2026-01-18T19:39:58.714785,8.815158,-6.317051,1.253839,0.844215,-0.239459,-4.244290
2026-01-18T19:39:58.723785,7.269395,-4.005585,1.330409,0.766024,-0.507018,-4.256508
2026-01-18T19:39:58.733785,6.393621,-2.029113,1.287338,0.555887,-0.954171,-4.300490
2026-01-18T19:39:58.743785,6.652046,-0.406779,2.340180,0.205250,-1.541823,-4.362798
2026-01-18T19:39:58.752785,8.188238,0.440279,3.110669,-0.423940,-2.202779,-4.339585
2026-01-18T19:39:58.762785,10.652846,-0.119641,2.081755,-1.155756,-2.736675,-4.178317
2026-01-18T19:39:58.771785,13.481162,-1.239482,1.019342,-1.725083,-2.918713,-4.085465
2026-01-18T19:39:58.781785,16.113268,-2.507678,0.918843,-2.086715,-2.603507,-4.070805
2026-01-18T19:39:58.791785,17.434105,-3.814159,1.517049,-2.202779,-1.915672,-4.015827
2026-01-18T19:39:58.800785,17.094324,-4.675575,1.550549,-2.105041,-1.103222,-3.936414
2026-01-18T19:39:58.810785,15.328421,-5.173282,1.454836,-1.902233,-0.393397,-3.864332
2026-01-18T19:39:58.820785,12.854243,-5.355136,1.268195,-1.576031,0.031764,-3.808133
2026-01-18T19:39:58.829785,10.628917,-4.938785,0.794417,-1.178969,0.056199,-3.754376
2026-01-18T19:39:58.839785,9.221938,-4.527220,0.334995,-0.766024,-0.300545,-3.716503
2026-01-18T19:39:58.848785,9.011369,-3.665804,0.971485,-0.294436,-0.874758,-3.676186
2026-01-18T19:39:58.858785,9.906285,-2.187039,1.301695,0.068416,-1.455080,-3.582113
2026-01-18T19:39:58.868785,11.605189,-1.215553,1.076770,0.128281,-1.864360,-3.417179
2026-01-18T19:39:58.877785,13.533804,-0.899701,0.847059,0.017104,-1.949881,-3.255911
2026-01-18T19:39:58.887785,14.849857,-0.918843,0.981057,-0.119729,-1.654222,-3.088534
2026-01-18T19:39:58.896785,14.979069,-1.105484,0.914058,-0.234572,-1.097113,-2.897944
2026-01-18T19:39:58.906785,13.883156,-1.502692,0.799202,-0.324980,-0.480139,-2.704910
2026-01-18T19:39:58.916785,12.011969,-1.808973,0.847059,-0.346971,0.001221,-2.524094
2026-01-18T19:39:58.925785,10.064211,-2.187039,0.923629,-0.283441,0.237015,-2.351830
2026-01-18T19:39:58.935785,8.403592,-2.201396,0.813559,-0.156381,0.216246,-2.199114
2026-01-18T19:39:58.945785,7.341179,-2.019542,0.741775,0.024434,-0.008552,-2.074497
2026-01-18T19:39:58.954785,7.092326,-1.674975,0.861416,0.212581,-0.365297,-1.969429
2026-01-18T19:39:58.964785,7.594818,-1.172483,0.813559,0.375071,-0.753807,-1.869247
2026-01-18T19:39:58.973785,8.772087,-0.837487,1.009771,0.532674,-1.047022,-1.765400
2026-01-18T19:39:58.983785,10.001998,-0.229710,0.985842,0.690277,-1.102000,-1.665218
2026-01-18T19:39:58.993785,10.825129,0.488135,1.028913,0.766024,-0.856432,-1.577253
2026-01-18T19:39:59.002785,10.648060,1.129412,0.990628,0.690277,-0.390953,-1.483180
2026-01-18T19:39:59.012785,9.542576,1.751546,0.564706,0.509461,0.131946,-1.386663
2026-01-18T19:39:59.021785,7.786244,1.995614,-0.143569,0.208915,0.555887,-1.286481
2026-01-18T19:39:59.031785,5.785845,1.971685,-0.349352,-0.180816,0.739146,-1.183856
2026-01-18T19:39:59.041785,4.273581,1.622333,-0.200997,-0.542448,0.646295,-1.073900
2026-01-18T19:39:59.050785,3.369094,1.148554,-0.086141,-0.851545,0.344527,-0.962723
2026-01-18T19:39:59.060785,3.397808,0.421136,0.143569,-1.062905,-0.068416,-0.857654
2026-01-18T19:39:59.070785,4.120440,-0.210568,0.162711,-1.095892,-0.448374,-0.752585
2026-01-18T19:39:59.079785,5.221138,-0.397208,0.224925,-0.951727,-0.665842,-0.681725
2026-01-18T19:39:59.089785,6.221338,-0.301495,0.665204,-0.735481,-0.630412,-0.658512
2026-01-18T19:39:59.098785,6.671189,0.153140,0.468993,-0.537561,-0.389731,-0.618195
2026-01-18T19:39:59.108785,6.259623,0.784845,0.167497,-0.436157,-0.037873,-0.579100
2026-01-18T19:39:59.118785,5.216353,1.014556,0.143569,-0.453261,0.294436,-0.533896
2026-01-18T19:39:59.127785,3.914657,0.985842,0.311066,-0.518013,0.497244,-0.467922
2026-01-18T19:39:59.137785,2.770888,0.837487,0.416351,-0.552222,0.525343,-0.390953
2026-01-18T19:39:59.146785,2.076970,0.674775,0.521635,-0.530230,0.373849,-0.309097
2026-01-18T19:39:59.156785,1.952543,0.459421,0.459421,-0.454483,0.091629,-0.227241
2026-01-18T19:39:59.166785,2.608176,0.454636,0.095712,-0.309097,-0.237015,-0.156381
2026-01-18T19:39:59.175785,3.818944,0.789631,0.095712,-0.134390,-0.524122,-0.118507
2026-01-18T19:39:59.185785,5.321637,1.253839,0.244067,0.013439,-0.696386,-0.090408
2026-01-18T19:39:59.195785,6.714260,1.871187,0.086141,0.111177,-0.704938,-0.065973
2026-01-18T19:39:59.204785,7.709674,2.402393,0.095712,0.129503,-0.533896,-0.068416
2026-01-18T19:39:59.214785,8.078169,2.852244,0.138783,0.037873,-0.255341,-0.062308
2026-01-18T19:39:59.223785,7.704888,3.048455,0.129212,-0.111177,0.047647,-0.047647
2026-01-18T19:39:59.233785,6.924828,2.919243,0.334995,-0.272445,0.283441,-0.032986
2026-01-18T19:39:59.243785,6.010770,2.459821,0.387637,-0.401949,0.360410,0.001221
2026-01-18T19:39:59.252785,5.484349,1.789831,0.526420,-0.432492,0.237015,0.042760
2026-01-18T19:39:59.262785,5.632704,1.339980,0.727418,-0.376292,-0.035430,0.103847
2026-01-18T19:39:59.271785,6.589833,0.995414,0.947557,-0.277332,-0.353080,0.186924
2026-01-18T19:39:59.281785,8.068597,0.823130,1.000199,-0.211359,-0.585208,0.285884
2026-01-18T19:39:59.291785,9.580861,0.660419,1.052841,-0.221133,-0.654847,0.410501
2026-01-18T19:39:59.300785,10.901699,0.301495,1.167697,-0.280997,-0.574213,0.560774
2026-01-18T19:39:59.310785,11.777472,0.028713,1.339980,-0.356745,-0.377514,0.737925
2026-01-18T19:39:59.320785,12.179467,-0.507278,1.368694,-0.443488,-0.098960,0.939510
2026-01-18T19:39:59.329785,11.892328,-0.875773,1.564905,-0.470366,0.226020,1.127656
2026-01-18T19:39:59.339785,10.935199,-1.167697,1.732403,-0.408057,0.519235,1.308473
2026-01-18T19:39:59.348785,9.705288,-1.363908,1.847259,-0.289550,0.703716,1.468519
2026-01-18T19:39:59.358785,8.465806,-1.406979,2.019542,-0.150272,0.750142,1.617570
2026-01-18T19:39:59.368785,7.637889,-1.272981,2.062613,0.003665,0.689055,1.751961
2026-01-18T19:39:59.377785,7.097111,-0.976271,2.239681,0.123394,0.603534,1.872912
2026-01-18T19:39:59.387785,6.824330,-0.837487,1.895115,0.164933,0.585208,1.985311
2026-01-18T19:39:59.396785,6.431907,-0.827916,1.631905,0.149051,0.645073,2.089158
2026-01-18T19:39:59.406785,5.986842,-0.894915,1.488335,0.107512,0.731816,2.182010
2026-01-18T19:39:59.416785,5.364708,-1.129412,1.378265,0.046425,0.775798,2.267531
2026-01-18T19:39:59.425785,4.780859,-1.540977,1.497906,0.012217,0.744033,2.346943
2026-01-18T19:39:59.435785,4.522434,-2.029113,1.674975,0.070860,0.623082,2.412917
2026-01-18T19:39:59.445785,4.747360,-2.579462,1.832902,0.235793,0.427605,2.476447
2026-01-18T19:39:59.454785,5.536991,-2.919243,1.976471,0.497244,0.239459,2.531425
2026-01-18T19:39:59.464785,6.431907,-2.890529,1.775474,0.828333,0.151494,2.575407
2026-01-18T19:39:59.473785,7.264609,-2.478964,1.416550,1.145982,0.202807,2.619389
2026-01-18T19:39:59.483785,7.757530,-1.727617,1.368694,1.343903,0.356745,2.670702
2026-01-18T19:39:59.493785,7.800601,-1.134197,1.115055,1.351233,0.558330,2.757445
2026-01-18T19:39:59.502785,7.523034,-0.918843,0.866201,1.200960,0.741590,2.872287
2026-01-18T19:39:59.512785,7.101897,-1.177268,0.406779,0.974940,0.846659,3.004234
2026-01-18T19:39:59.521785,6.666403,-1.933400,-0.177068,0.811228,0.830776,3.121520
2026-01-18T19:39:59.531785,6.685546,-2.703889,-0.588634,0.814894,0.680503,3.193602
2026-01-18T19:39:59.541785,7.101897,-3.421736,-0.727418,0.970053,0.433714,3.235141
2026-01-18T19:39:59.550785,7.920242,-3.847658,-0.861416,1.229060,0.182037,3.262019
2026-01-18T19:39:59.560785,8.958727,-3.670589,-0.808774,1.539380,0.031764,3.269350
2026-01-18T19:39:59.570785,9.911071,-2.986242,-0.612562,1.769065,0.025656,3.284010
2026-01-18T19:39:59.579785,10.456634,-1.981257,-0.320638,1.804495,0.153938,3.303558
2026-01-18T19:39:59.589785,10.451849,-1.019342,-0.267996,1.589471,0.345749,3.359758
2026-01-18T19:39:59.598785,9.978070,-0.411565,-0.071784,1.120326,0.524122,3.456274
2026-01-18T19:39:59.608785,9.260223,-0.468993,0.282353,0.504574,0.643851,3.579669
2026-01-18T19:39:59.618785,8.551947,-1.186840,0.320638,-0.124616,0.646295,3.728720
2026-01-18T19:39:59.627785,8.011170,-2.067398,0.143569,-0.656069,0.518013,3.881436
2026-01-18T19:39:59.637785,7.834101,-3.225524,0.076570,-0.998153,0.316428,3.985283
2026-01-18T19:39:59.646785,7.891528,-4.369294,-0.272781,-1.136209,0.103847,4.067139
2026-01-18T19:39:59.656785,8.221738,-5.245067,-0.497707,-1.088561,-0.103847,4.095239
2026-01-18T19:39:59.666785,8.724231,-6.058626,-0.411565,-0.941954,-0.282219,4.089131
2026-01-18T19:39:59.675785,9.284151,-6.762116,-0.349352,-0.744033,-0.401949,4.080578
2026-01-18T19:39:59.685785,9.844072,-7.288537,0.349352,-0.430049,-0.421496,4.028044
2026-01-18T19:39:59.695785,10.384850,-7.379464,1.689332,-0.057421,-0.355523,3.938858
2026-01-18T19:39:59.704785,10.648060,-7.302894,2.019542,0.207694,-0.254119,3.902206
2026-01-18T19:39:59.714785,10.758130,-7.288537,1.555334,0.423940,-0.146607,3.871663
2026-01-18T19:39:59.723785,10.581061,-6.876972,1.225125,0.538783,-0.029321,3.859445
2026-01-18T19:39:59.733785,10.193424,-6.460621,0.928415,0.445931,0.091629,3.887545
2026-01-18T19:39:59.743785,9.533005,-6.221338,0.569491,0.276111,0.199142,3.922975
2026-01-18T19:39:59.752785,8.623732,-6.326622,0.430708,0.107512,0.266337,3.907093
2026-01-18T19:39:59.762785,7.948956,-7.302894,0.344566,-0.081855,0.244346,3.878993
2026-01-18T19:39:59.771785,7.475177,-8.642875,0.349352,-0.072082,0.135612,3.803246
2026-01-18T19:39:59.781785,7.101897,-9.868000,0.478564,0.215024,-0.012217,3.659082
2026-01-18T19:39:59.791785,7.068397,-10.882557,0.358923,0.603534,-0.193033,3.538130
2026-01-18T19:39:59.800785,7.197610,-11.050054,0.512064,1.112996,-0.376292,3.414735
2026-01-18T19:39:59.810785,7.451249,-10.236495,0.636490,1.563814,-0.516791,3.323106
2026-01-18T19:39:59.820785,7.700103,-9.336793,-0.066999,1.657887,-0.582765,3.315775
2026-01-18T19:39:59.829785,7.685746,-8.508877,-0.162711,1.591914,-0.538783,3.298671
2026-01-18T19:39:59.839785,7.494320,-7.814958,-0.023928,1.320690,-0.452040,3.273015
2026-01-18T19:39:59.848785,7.269395,-8.475377,-0.272781,0.814894,-0.354301,3.286454
2026-01-18T19:39:59.858785,6.742974,-9.963713,0.196211,0.588873,-0.254119,3.198489
2026-01-18T19:39:59.868785,6.269195,-11.605189,0.378065,0.572991,-0.251676,3.105638
2026-01-18T19:39:59.877785,6.130411,-13.509876,0.607776,0.730594,-0.339641,2.974913
2026-01-18T19:39:59.887785,6.417550,-14.988640,1.311266,1.266934,-0.470366,2.725680
2026-01-18T19:39:59.896785,6.920042,-15.562918,1.751546,1.979202,-0.564439,2.444682
2026-01-18T19:39:59.906785,7.427321,-15.601203,0.851844,2.487442,-0.531452,2.287078
2026-01-18T19:39:59.916785,7.465606,-14.510076,0.344566,2.933374,-0.339641,2.210109
2026-01-18T19:39:59.925785,6.853043,-12.102896,0.468993,3.127629,-0.080634,2.128254
2026-01-18T19:39:59.935785,5.776273,-10.179067,0.488135,2.762332,0.112399,2.149023
2026-01-18T19:39:59.945785,4.771288,-8.925228,1.186840,2.010967,0.182037,2.225992
2026-01-18T19:39:59.954785,4.077369,-8.805587,2.780459,0.955393,0.070860,2.331061
2026-01-18T19:39:59.964785,4.005585,-10.088140,4.761716,-0.183259,-0.212581,2.487442
2026-01-18T19:39:59.973785,4.991427,-12.169895,6.111268,-0.775798,-0.538783,2.531425
2026-01-18T19:39:59.983785,6.474977,-13.758729,6.719045,-0.729372,-0.744033,2.460564
2026-01-18T19:39:59.993785,7.934599,-14.720644,6.647261,-0.274889,-0.701273,2.313957
2026-01-18T19:40:00.002785,8.824729,-14.601003,5.953342,0.542448,-0.356745,2.062280
2026-01-18T19:40:00.012785,8.781658,-13.284951,4.694717,1.299920,0.200363,1.797165
2026-01-18T19:40:00.021785,7.853243,-11.911470,3.680161,1.694539,0.834441,1.521054
2026-01-18T19:40:00.031785,6.163911,-10.581061,3.282952,1.833817,1.402546,1.203404
2026-01-18T19:40:00.041785,3.905086,-9.317651,3.120240,1.745852,1.786169,0.851545
2026-01-18T19:40:00.050785,1.708475,-8.595018,3.249453,1.485623,1.893681,0.448374
2026-01-18T19:40:00.060785,-0.110069,-8.360522,4.278366,1.281595,1.717752,-0.061086
2026-01-18T19:40:00.070785,-0.880558,-8.121239,4.934000,1.076344,1.269377,-0.566882
2026-01-18T19:40:00.079785,-0.612562,-8.260023,4.709074,0.711046,0.671951,-0.965166
2026-01-18T19:40:00.089785,0.617348,-8.575876,4.508077,0.343306,0.151494,-1.352455
2026-01-18T19:40:00.098785,2.033899,-8.604590,4.067798,0.041538,-0.168598,-1.721417
2026-01-18T19:40:00.108785,3.450450,-8.609375,3.527020,-0.310319,-0.296880,-2.034180
2026-01-18T19:40:00.118785,4.407579,-8.456235,3.144168,-0.619417,-0.250454,-2.355495
2026-01-18T19:40:00.127785,4.694717,-8.221738,2.770888,-0.874758,-0.090408,-2.682919
2026-01-18T19:40:00.137785,4.532006,-7.996813,2.871387,-1.067792,0.094073,-3.039664
2026-01-18T19:40:00.146785,4.292723,-8.063812,3.493520,-1.093448,0.199142,-3.489261
2026-01-18T19:40:00.156785,4.268795,-8.867800,3.115455,-1.125213,0.169820,-3.880215
2026-01-18T19:40:00.166785,4.737788,-10.628917,2.110469,-1.274264,-0.039095,-4.125782
2026-01-18T19:40:00.175785,5.943771,-13.021740,1.239482,-1.490510,-0.392175,-4.195421
2026-01-18T19:40:00.185785,7.422535,-14.998212,1.272981,-1.310916,-0.757472,-4.316372
2026-01-18T19:40:00.195785,9.049655,-15.170495,2.038684,-0.629191,-0.970053,-4.550945
2026-01-18T19:40:00.204785,9.920642,-13.696516,2.622533,0.188146,-0.959058,-4.715878
2026-01-18T19:40:00.214785,9.982855,-11.016555,2.526820,0.756251,-0.800233,-4.789182
2026-01-18T19:40:00.223785,9.580861,-8.303094,2.703889,0.882089,-0.620638,-4.864929
2026-01-18T19:40:00.233785,9.025726,-6.221338,3.062812,0.614530,-0.508239,-4.980994
2026-01-18T19:40:00.243785,8.575876,-5.058426,3.196810,0.086742,-0.527787,-5.082397
2026-01-18T19:40:00.252785,8.575876,-5.158925,2.550748,-0.665842,-0.741590,-5.088506
2026-01-18T19:40:00.262785,9.221938,-6.647261,1.292124,-1.346346,-1.103222,-5.105610
2026-01-18T19:40:00.271785,10.537990,-8.767302,-0.215354,-1.822821,-1.496619,-5.079954
2026-01-18T19:40:00.281785,12.232109,-11.327622,-0.449850,-2.021963,-1.864360,-4.976107
2026-01-18T19:40:00.291785,14.534004,-12.461820,1.885544,-1.639561,-2.103819,-4.976107
2026-01-18T19:40:00.300785,16.558332,-12.126824,3.493520,-1.185078,-2.080606,-4.835608
2026-01-18T19:40:00.310785,17.563316,-11.471191,3.000599,-0.979827,-1.720196,-4.517958
2026-01-18T19:40:00.320785,17.132608,-10.389635,2.431107,-0.890641,-1.062905,-4.277277
2026-01-18T19:40:00.329785,15.266208,-9.202795,2.550748,-0.962723,-0.340862,-4.094017
2026-01-18T19:40:00.339785,12.677174,-8.283951,2.100898,-1.117883,0.118507,-3.936414
2026-01-18T19:40:00.348785,10.179067,-7.556533,1.593619,-1.161865,0.153938,-3.872884
2026-01-18T19:40:00.358785,8.441878,-6.585047,0.937986,-1.125213,-0.151494,-3.900984
2026-01-18T19:40:00.368785,7.628318,-5.637490,-0.100498,-1.029918,-0.652403,-3.999944
2026-01-18T19:40:00.377785,7.628318,-4.790430,-1.292124,-0.796568,-1.202182,-4.142887
2026-01-18T19:40:00.387785,8.580661,-3.881158,-1.153340,-0.529009,-1.688431,-4.267503
2026-01-18T19:40:00.396785,10.174281,-2.967100,-0.033499,-0.430049,-2.039067,-4.310264
2026-01-18T19:40:00.406785,11.997612,-1.986042,1.143769,-0.509461,-2.207666,-4.301712
2026-01-18T19:40:00.416785,13.864014,-1.129412,1.832902,-0.879645,-2.127032,-4.200308
2026-01-18T19:40:00.425785,15.079568,-1.368694,1.631905,-1.530827,-1.802052,-3.976731
2026-01-18T19:40:00.435785,15.266208,-2.565105,0.861416,-2.090380,-1.295034,-3.749490
2026-01-18T19:40:00.445785,14.179866,-3.909872,0.732203,-2.301739,-0.739146,-3.578447
2026-01-18T19:40:00.454785,12.595818,-5.087140,0.923629,-2.214996,-0.361632,-3.459939
2026-01-18T19:40:00.464785,11.083554,-5.905486,0.875773,-1.839925,-0.280997,-3.380527
2026-01-18T19:40:00.473785,9.958927,-6.101697,0.732203,-1.235169,-0.444709,-3.347540
2026-01-18T19:40:00.483785,9.561719,-5.824130,0.794417,-0.574213,-0.741590,-3.320662
2026-01-18T19:40:00.493785,9.915856,-5.283352,0.732203,0.074525,-1.051909,-3.280345
2026-01-18T19:40:00.502785,10.786844,-4.441078,0.837487,0.698829,-1.263269,-3.235141
2026-01-18T19:40:00.512785,11.796615,-3.393022,1.110269,1.224173,-1.274264,-3.172833
2026-01-18T19:40:00.521785,12.433106,-2.244467,0.870987,1.500284,-1.042135,-3.034777
2026-01-18T19:40:00.531785,12.270394,-1.234696,0.425922,1.494176,-0.647517,-2.829527
2026-01-18T19:40:00.541785,11.308479,-0.368494,0.081355,1.276708,-0.204028,-2.594954
2026-01-18T19:40:00.550785,9.705288,0.593420,-0.224925,0.902858,0.163711,-2.350608
2026-01-18T19:40:00.560785,7.925028,1.430907,-0.124426,0.410501,0.310319,-2.140471
2026-01-18T19:40:00.570785,6.613761,1.962114,0.181854,-0.191811,0.167377,-1.952324
2026-01-18T19:40:00.579785,5.967699,1.899901,0.416351,-0.833220,-0.201585,-1.770287
2026-01-18T19:40:00.589785,6.312266,1.440479,0.669990,-1.384220,-0.662177,-1.620014
2026-01-18T19:40:00.598785,7.360322,0.703489,0.555134,-1.751961,-1.060461,-1.490510
2026-01-18T19:40:00.608785,8.748159,0.000000,0.612562,-1.888794,-1.246164,-1.413541
2026-01-18T19:40:00.618785,9.963713,-0.689132,1.024128,-1.833817,-1.163087,-1.386663
2026-01-18T19:40:00.627785,10.571490,-1.272981,1.215553,-1.643227,-0.862541,-1.356120
2026-01-18T19:40:00.637785,10.332207,-1.823330,0.918843,-1.347568,-0.423940,-1.306029
2026-01-18T19:40:00.646785,9.083154,-2.091326,0.703489,-0.954171,0.073303,-1.252273
2026-01-18T19:40:00.656785,7.159325,-1.942971,0.588634,-0.572991,0.507018,-1.166752
2026-01-18T19:40:00.666785,4.852644,-1.732403,0.473778,-0.252898,0.788015,-1.040914
2026-01-18T19:40:00.675785,2.617747,-1.282552,0.660419,0.003665,0.901636,-0.918741
2026-01-18T19:40:00.685785,0.741775,-0.823130,0.842273,0.158824,0.844215,-0.799011
2026-01-18T19:40:00.695785,-0.669990,-0.512064,0.775274,0.238237,0.609643,-0.676838
2026-01-18T19:40:00.704785,-1.363908,-0.191425,0.760917,0.301767,0.232128,-0.586430
2026-01-18T19:40:00.714785,-1.148554,0.038285,1.024128,0.345749,-0.235793,-0.525343
2026-01-18T19:40:00.723785,-0.110069,0.272781,1.162911,0.354301,-0.693942,-0.466700
2026-01-18T19:40:00.733785,1.588834,0.636490,1.153340,0.349414,-1.018923,-0.421496
2026-01-18T19:40:00.743785,3.292523,0.966700,1.272981,0.262671,-1.109331,-0.388510
2026-01-18T19:40:00.752785,4.771288,1.086341,1.220339,0.094073,-0.955393,-0.353080
2026-01-18T19:40:00.762785,5.675775,1.057627,0.976271,-0.089186,-0.645073,-0.332310
2026-01-18T19:40:00.771785,6.044269,0.870987,0.890130,-0.316428,-0.323758,-0.296880
2026-01-18T19:40:00.781785,6.130411,0.234496,0.990628,-0.555887,-0.124616,-0.239459
2026-01-18T19:40:00.791785,6.273980,-0.559920,1.009771,-0.700051,-0.095294,-0.147829
2026-01-18T19:40:00.800785,6.680760,-1.263410,1.043270,-0.726929,-0.205250,-0.051312
2026-01-18T19:40:00.810785,7.465606,-1.832902,0.976271,-0.657290,-0.377514,0.039095
2026-01-18T19:40:00.820785,8.604590,-2.277967,1.086341,-0.500909,-0.549778,0.114842
2026-01-18T19:40:00.829785,9.968498,-2.359323,1.196411,-0.301767,-0.696386,0.190589
2026-01-18T19:40:00.839785,11.504691,-2.239681,1.301695,-0.112399,-0.758694,0.290771
2026-01-18T19:40:00.848785,12.844671,-2.139183,1.172483,0.030543,-0.665842,0.390953
2026-01-18T19:40:00.858785,13.840085,-2.072184,1.038485,0.117286,-0.384845,0.515570
2026-01-18T19:40:00.868785,13.988440,-1.976471,1.004985,0.171042,0.056199,0.691499
2026-01-18T19:40:00.877785,13.103096,-1.708475,0.990628,0.195476,0.587652,0.894306
2026-01-18T19:40:00.887785,11.217552,-1.478764,1.086341,0.177150,1.077566,1.117883
2026-01-18T19:40:00.896785,9.011369,-1.215553,1.268195,0.107512,1.379333,1.356120
2026-01-18T19:40:00.906785,6.991827,-1.119840,1.488335,0.004886,1.431867,1.605353
2026-01-18T19:40:00.916785,5.517848,-0.976271,1.995614,-0.083077,1.258382,1.828930
2026-01-18T19:40:00.925785,4.809573,-1.014556,2.225325,-0.184481,0.939510,2.045176
2026-01-18T19:40:00.935785,4.934000,-1.129412,2.196611,-0.301767,0.579100,2.238209
2026-01-18T19:40:00.945785,5.723631,-1.392622,2.124826,-0.377514,0.306654,2.384817
2026-01-18T19:40:00.954785,6.738188,-1.746760,1.837687,-0.394618,0.212581,2.482555
2026-01-18T19:40:00.964785,7.451249,-2.086541,1.435693,-0.381179,0.313984,2.543642
2026-01-18T19:40:00.973785,7.609175,-2.411965,1.335195,-0.305432,0.549778,2.579072
2026-01-18T19:40:00.983785,7.192824,-2.632104,1.387837,-0.169820,0.807563,2.624276
2026-01-18T19:40:00.993785,6.412764,-2.746960,1.536192,0.014660,0.992044,2.682919
2026-01-18T19:40:01.002785,5.532205,-2.770888,1.488335,0.224798,1.051909,2.759888
2026-01-18T19:40:01.012785,4.886143,-2.675175,1.325623,0.463035,0.981049,2.838079
2026-01-18T19:40:01.021785,4.565505,-2.445464,1.272981,0.764803,0.831998,2.875952
2026-01-18T19:40:01.031785,4.675575,-2.115255,0.899701,1.039692,0.646295,2.911383
2026-01-18T19:40:01.041785,5.168496,-1.828116,0.459421,1.254716,0.481361,2.943148
2026-01-18T19:40:01.050785,5.723631,-1.593619,0.023928,1.418428,0.406836,2.963917
2026-01-18T19:40:01.060785,6.116054,-1.450050,-0.602991,1.538158,0.438601,2.978578
2026-01-18T19:40:01.070785,6.470192,-1.277767,-0.732203,1.638340,0.521678,2.983465
2026-01-18T19:40:01.079785,6.656832,-1.383051,-0.512064,1.695761,0.585208,2.983465
2026-01-18T19:40:01.089785,6.929614,-1.545763,-0.315852,1.720196,0.585208,3.007899
2026-01-18T19:40:01.098785,7.465606,-1.655833,0.138783,1.743409,0.516791,3.042108
2026-01-18T19:40:01.108785,8.078169,-1.631905,0.325423,1.723861,0.419053,3.095864
2026-01-18T19:40:01.118785,8.944370,-1.344766,0.258424,1.672548,0.340862,3.185050
2026-01-18T19:40:01.127785,9.662217,-0.957129,0.143569,1.563814,0.337197,3.258354
2026-01-18T19:40:01.137785,10.207781,-0.588634,0.339780,1.307251,0.405614,3.321884
2026-01-18T19:40:01.146785,10.590632,-0.727418,0.315852,0.928514,0.488692,3.409849
2026-01-18T19:40:01.156785,10.815558,-1.339980,0.344566,0.561995,0.548556,3.510030
2026-01-18T19:40:01.166785,11.112268,-2.177468,0.665204,0.283441,0.601091,3.568673
2026-01-18T19:40:01.175785,11.255837,-3.627519,0.602991,0.134390,0.691499,3.599217
2026-01-18T19:40:01.185785,11.169695,-4.838287,0.086141,0.205250,0.845437,3.621208
2026-01-18T19:40:01.195785,10.992627,-5.848058,-0.038285,0.432492,0.985936,3.640756
2026-01-18T19:40:01.204785,10.676774,-6.484549,0.105284,0.684168,1.059240,3.678629
2026-01-18T19:40:01.214785,10.523633,-6.920042,0.387637,0.967610,1.073900,3.728720
2026-01-18T19:40:01.223785,10.375278,-6.833901,0.751346,1.215621,1.040914,3.793472
2026-01-18T19:40:01.233785,10.341779,-6.427121,1.057627,1.277929,0.959058,3.893654
2026-01-18T19:40:01.243785,10.456634,-6.139982,0.842273,1.144761,0.858876,4.008496
2026-01-18T19:40:01.252785,10.657631,-6.436692,0.665204,0.913854,0.770911,4.114787
2026-01-18T19:40:01.262785,10.796415,-7.264609,0.732203,0.681725,0.691499,4.185647
2026-01-18T19:40:01.271785,10.987841,-8.236095,1.220339,0.548556,0.620638,4.251621
2026-01-18T19:40:01.281785,11.174481,-9.169296,1.253839,0.590095,0.586430,4.298046
2026-01-18T19:40:01.291785,11.035697,-9.810572,0.933200,0.818559,0.619417,4.301712
2026-01-18T19:40:01.300785,10.762916,-9.982855,0.722632,1.138652,0.718377,4.277277
2026-01-18T19:40:01.310785,10.207781,-9.600004,0.689132,1.500284,0.861319,4.251621
2026-01-18T19:40:01.320785,9.379864,-8.575876,0.473778,1.770287,0.992044,4.258951
2026-01-18T19:40:01.329785,8.494520,-7.264609,0.904486,1.882686,1.066570,4.277277
2026-01-18T19:40:01.339785,7.680960,-5.728417,1.517049,1.776395,1.072679,4.289494
2026-01-18T19:40:01.348785,6.857829,-4.637290,1.856830,1.318246,0.996931,4.339585
2026-01-18T19:40:01.358785,6.259623,-4.431507,2.656033,0.714712,0.856432,4.350581
2026-01-18T19:40:01.368785,6.111268,-5.015356,3.675375,0.081855,0.682947,4.323703
2026-01-18T19:40:01.377785,6.307480,-6.623332,4.426721,-0.460592,0.522900,4.306599
2026-01-18T19:40:01.387785,6.642475,-8.666803,4.862215,-0.675616,0.431270,4.218634
2026-01-18T19:40:01.396785,6.905686,-10.542776,4.354937,-0.697607,0.434935,4.134335
2026-01-18T19:40:01.406785,6.843472,-11.710473,3.632304,-0.449596,0.553443,4.012162
2026-01-18T19:40:01.416785,6.202196,-11.605189,2.392822,0.017104,0.750142,3.803246
2026-01-18T19:40:01.425785,4.924428,-11.083554,1.464407,0.384845,0.926071,3.551569
2026-01-18T19:40:01.435785,3.393022,-10.671988,1.445264,0.493579,0.981049,3.292562
2026-01-18T19:40:01.445785,2.120040,-10.384850,2.450250,0.466700,0.862541,3.092199
2026-01-18T19:40:01.454785,1.110269,-9.954142,4.187439,0.389731,0.552222,2.900387
2026-01-18T19:40:01.464785,0.813559,-9.820143,5.867201,0.177150,0.064751,2.786766
2026-01-18T19:40:01.473785,1.473978,-10.356136,6.608976,-0.183259,-0.431270,2.698802
2026-01-18T19:40:01.483785,2.708675,-11.523833,7.044469,-0.527787,-0.718377,2.592511
2026-01-18T19:40:01.493785,3.909872,-12.854243,6.982256,-0.756251,-0.708603,2.471560
2026-01-18T19:40:01.502785,4.465006,-14.017154,6.484549,-0.747698,-0.438601,2.351830
2026-01-18T19:40:01.512785,4.249652,-14.562718,5.417350,-0.518013,-0.042760,2.230879
2026-01-18T19:40:01.521785,3.168097,-14.395220,4.819144,-0.178372,0.323758,2.116036
2026-01-18T19:40:01.531785,1.694118,-13.572089,4.383651,0.282219,0.552222,1.935220
2026-01-18T19:40:01.541785,0.258424,-12.366107,3.967299,0.673173,0.585208,1.687209
2026-01-18T19:40:01.550785,-0.890130,-11.514262,4.168296,0.858876,0.455705,1.406211
2026-01-18T19:40:01.560785,-1.574477,-10.911271,5.082355,1.007927,0.229685,1.027475
2026-01-18T19:40:01.570785,-1.540977,-10.475777,6.125625,1.073900,-0.070860,0.645073
2026-01-18T19:40:01.579785,-0.665204,-10.250852,6.728617,1.081231,-0.371405,0.234572
2026-01-18T19:40:01.589785,0.679561,-9.801001,6.671189,1.062905,-0.582765,-0.186924
2026-01-18T19:40:01.598785,2.091326,-9.322436,6.340979,0.927293,-0.652403,-0.560774
2026-01-18T19:40:01.608785,3.373879,-8.915657,5.632704,0.630412,-0.576656,-0.873537
2026-01-18T19:40:01.618785,4.244867,-8.891728,4.508077,0.144164,-0.403170,-1.119104
2026-01-18T19:40:01.627785,4.685146,-9.446863,2.813959,-0.537561,-0.191811,-1.314581
2026-01-18T19:40:01.637785,4.670789,-10.600204,1.574477,-1.176526,0.042760,-1.536936
2026-01-18T19:40:01.646785,4.240081,-11.849257,1.062413,-1.499062,0.268780,-1.879021
2026-01-18T19:40:01.656785,3.603590,-12.868599,1.588834,-1.479515,0.366519,-2.247983
2026-01-18T19:40:01.666785,3.206382,-13.663017,3.235096,-1.144761,0.289550,-2.636493
2026-01-18T19:40:01.675785,3.436093,-13.840085,4.819144,-0.499687,0.103847,-3.071429
2026-01-18T19:40:01.685785,4.015156,-12.892528,5.843272,0.320093,-0.101403,-3.521026
2026-01-18T19:40:01.695785,4.953142,-11.581261,5.268995,0.878424,-0.279776,-3.909536
2026-01-18T19:40:01.704785,6.053841,-10.633703,4.259224,0.928514,-0.399505,-4.120896
2026-01-18T19:40:01.714785,7.106683,-9.906285,4.077369,0.812450,-0.449596,-4.322481
2026-01-18T19:40:01.723785,7.910671,-9.470791,3.230310,0.324980,-0.482583,-4.399450
2026-01-18T19:40:01.733785,8.513662,-9.934999,2.096112,-0.379958,-0.521678,-4.361576
2026-01-18T19:40:01.743785,8.819944,-9.911071,1.655833,-0.709825,-0.514348,-4.492302
2026-01-18T19:40:01.752785,8.709874,-9.279366,2.148754,-0.841772,-0.432492,-4.685335
2026-01-18T19:40:01.762785,8.216952,-9.044869,2.857030,-0.959058,-0.357966,-4.803843
2026-01-18T19:40:01.771785,7.877171,-9.030512,3.306880,-0.976162,-0.372627,-4.910133
2026-01-18T19:40:01.781785,7.657032,-9.178867,3.235096,-0.955393,-0.475253,-5.038415
2026-01-18T19:40:01.791785,7.719245,-9.303294,3.115455,-0.945619,-0.647517,-5.134931
2026-01-18T19:40:01.800785,8.035098,-9.523433,3.048455,-0.877202,-0.842993,-5.220453
2026-01-18T19:40:01.810785,8.805587,-9.868000,3.225524,-0.961501,-1.094670,-5.210679
2026-01-18T19:40:01.820785,9.930213,-10.126425,3.493520,-1.029918,-1.382998,-5.189909
2026-01-18T19:40:01.829785,11.112268,-9.719645,2.967100,-0.990823,-1.582140,-5.130044
2026-01-18T19:40:01.839785,12.203395,-9.480363,2.368894,-1.073900,-1.644448,-4.974885
2026-01-18T19:40:01.848785,13.371092,-9.863214,2.402393,-1.268155,-1.589471,-4.740313
2026-01-18T19:40:01.858785,14.227723,-10.671988,2.282752,-1.397659,-1.391550,-4.504519
2026-01-18T19:40:01.868785,14.428720,-11.351550,2.359323,-1.348790,-1.045801,-4.328590
2026-01-18T19:40:01.877785,13.701302,-11.504691,2.254038,-1.065348,-0.635299,-4.230851
2026-01-18T19:40:01.887785,12.184252,-10.633703,2.311466,-0.602312,-0.306654,-4.181982
2026-01-18T19:40:01.896785,10.408778,-8.796015,2.172682,-0.184481,-0.178372,-4.131891
2026-01-18T19:40:01.906785,8.638089,-6.632904,1.703689,0.056199,-0.268780,-4.102570
2026-01-18T19:40:01.916785,7.460820,-4.594219,1.014556,0.125838,-0.507018,-4.100126
2026-01-18T19:40:01.925785,6.652046,-2.742174,-0.282353,0.068416,-0.814894,-4.144108
2026-01-18T19:40:01.935785,6.575476,-1.598405,-0.823130,-0.233350,-1.235169,-4.123339
2026-01-18T19:40:01.945785,7.542176,-1.296909,-0.397208,-0.796568,-1.764178,-4.054922
2026-01-18T19:40:01.954785,9.475577,-1.761117,-0.196211,-1.390328,-2.258979,-3.930306
2026-01-18T19:40:01.964785,11.633903,-2.388036,-0.574277,-1.817934,-2.533868,-3.811798
2026-01-18T19:40:01.973785,13.725230,-2.746960,0.047856,-2.067167,-2.519207,-3.759263
2026-01-18T19:40:01.983785,15.500704,-2.799602,1.741974,-2.213775,-2.256535,-3.718946
2026-01-18T19:40:01.993785,16.376476,-3.249453,2.182254,-2.372600,-1.836260,-3.577226
2026-01-18T19:40:02.002785,16.299908,-4.465006,1.785045,-2.397034,-1.364672,-3.462383
2026-01-18T19:40:02.012785,15.586846,-5.589633,1.789831,-2.114815,-0.918741,-3.391523
2026-01-18T19:40:02.021785,14.294722,-6.216553,2.005185,-1.556484,-0.577878,-3.362201
2026-01-18T19:40:02.031785,12.758530,-6.178267,1.148554,-0.823446,-0.335975,-3.376862
2026-01-18T19:40:02.041785,11.203195,-5.493920,-0.066999,-0.029321,-0.202807,-3.371975
2026-01-18T19:40:02.050785,9.853643,-4.436293,-0.138783,0.615752,-0.213802,-3.357314
2026-01-18T19:40:02.060785,9.016155,-3.694518,0.076570,0.994488,-0.346971,-3.273015
2026-01-18T19:40:02.070785,8.690731,-3.196810,0.009571,1.210734,-0.552222,-3.121520
2026-01-18T19:40:02.079785,8.724231,-2.507678,0.133998,1.318246,-0.745255,-2.955365
2026-01-18T19:40:02.089785,9.040083,-1.794616,0.205782,1.299920,-0.866206,-2.759888
2026-01-18T19:40:02.098785,9.284151,-1.014556,0.205782,1.156978,-0.896749,-2.533868
2026-01-18T19:40:02.108785,9.360722,-0.224925,0.440279,0.916297,-0.856432,-2.296852
2026-01-18T19:40:02.118785,9.169296,0.526420,0.512064,0.565661,-0.770911,-2.062280
2026-01-18T19:40:02.127785,8.690731,0.976271,0.751346,0.145385,-0.663399,-1.848477
2026-01-18T19:40:02.137785,8.054240,1.249053,1.196411,-0.271224,-0.560774,-1.711644
2026-01-18T19:40:02.146785,7.590033,1.158126,1.445264,-0.689055,-0.496022,-1.611462
2026-01-18T19:40:02.156785,7.164110,0.507278,1.378265,-1.071457,-0.464257,-1.517388
2026-01-18T19:40:02.166785,7.068397,-0.224925,1.057627,-1.337794,-0.415388,-1.423315
2026-01-18T19:40:02.175785,6.786044,-0.861416,0.631705,-1.437976,-0.294436,-1.332907
2026-01-18T19:40:02.185785,6.278766,-1.225125,0.287138,-1.431867,-0.098960,-1.244943
2026-01-18T19:40:02.195785,5.388636,-1.526620,0.143569,-1.411098,0.114842,-1.131322
2026-01-18T19:40:02.204785,4.393222,-1.593619,0.167497,-1.369559,0.267558,-0.993266
2026-01-18T19:40:02.214785,3.345165,-1.440479,0.320638,-1.343903,0.320093,-0.834441
2026-01-18T19:40:02.223785,2.368894,-1.263410,0.521635,-1.335351,0.271224,-0.679282
2026-01-18T19:40:02.233785,1.732403,-0.981057,0.555134,-1.309694,0.145385,-0.546113
2026-01-18T19:40:02.243785,1.402194,-0.746560,0.722632,-1.298699,-0.028099,-0.442266
2026-01-18T19:40:02.252785,1.402194,-0.617348,0.875773,-1.281595,-0.218689,-0.354301
2026-01-18T19:40:02.262785,1.674975,-0.579063,1.134197,-1.226617,-0.395840,-0.288328
2026-01-18T19:40:02.271785,2.220539,-0.760917,1.435693,-1.138652,-0.507018,-0.252898
2026-01-18T19:40:02.281785,2.976671,-1.043270,1.469193,-1.001818,-0.548556,-0.229685
2026-01-18T19:40:02.291785,3.852444,-1.349551,1.464407,-0.797789,-0.540004,-0.212581
2026-01-18T19:40:02.300785,4.555934,-1.612762,1.320838,-0.559552,-0.489913,-0.193033
2026-01-18T19:40:02.310785,5.288137,-1.612762,0.947557,-0.304210,-0.420275,-0.162490
2026-01-18T19:40:02.320785,5.833701,-1.579262,0.531206,-0.039095,-0.361632,-0.133168
2026-01-18T19:40:02.329785,6.484549,-1.282552,0.301495,0.210137,-0.359188,-0.116064
2026-01-18T19:40:02.339785,7.173682,-0.875773,0.267996,0.408057,-0.420275,-0.114842
2026-01-18T19:40:02.348785,8.149953,-0.516849,0.177068,0.552222,-0.529009,-0.109955
2026-01-18T19:40:02.358785,9.250652,-0.100498,0.000000,0.640186,-0.659734,-0.107512
2026-01-18T19:40:02.368785,10.662417,0.196211,-0.047856,0.690277,-0.766024,-0.114842
2026-01-18T19:40:02.377785,11.978469,0.531206,0.019142,0.698829,-0.806341,-0.092851
2026-01-18T19:40:02.387785,13.241880,0.784845,0.000000,0.663399,-0.746477,-0.050090
2026-01-18T19:40:02.396785,14.208580,0.985842,0.373280,0.590095,-0.561995,0.017104
2026-01-18T19:40:02.406785,14.476576,1.004985,0.641276,0.487470,-0.224798,0.149051
2026-01-18T19:40:02.416785,13.782658,0.918843,0.612562,0.361632,0.243124,0.313984
2026-01-18T19:40:02.425785,12.045468,0.713061,0.890130,0.226020,0.726929,0.508239
2026-01-18T19:40:02.435785,10.011569,0.263210,1.153340,0.116064,1.045801,0.737925
2026-01-18T19:40:02.445785,8.111668,-0.119641,1.215553,0.056199,1.108109,0.995710
2026-01-18T19:40:02.454785,6.790830,-0.531206,1.292124,0.063529,0.963945,1.226617
2026-01-18T19:40:02.464785,6.149554,-0.904486,1.445264,0.166155,0.717155,1.412320
2026-01-18T19:40:02.473785,6.096911,-1.014556,1.354337,0.327423,0.445931,1.558927
2026-01-18T19:40:02.483785,6.642475,-1.033699,1.718046,0.541226,0.208915,1.633453
2026-01-18T19:40:02.493785,7.628318,-0.665204,2.158325,0.753807,0.048869,1.679879
2026-01-18T19:40:02.502785,8.695517,-0.258424,2.258824,0.884532,-0.003665,1.721417
2026-01-18T19:40:02.512785,9.714859,0.272781,1.914258,0.885754,0.101403,1.739743
2026-01-18T19:40:02.521785,10.131210,0.674775,1.430907,0.755029,0.345749,1.759291
2026-01-18T19:40:02.531785,9.973284,0.803988,1.177268,0.520457,0.645073,1.772730
2026-01-18T19:40:02.541785,9.370293,0.679561,0.952343,0.219911,0.900415,1.797165
2026-01-18T19:40:02.550785,8.451449,0.086141,0.957129,-0.062308,1.050687,1.833817
2026-01-18T19:40:02.560785,7.551748,-0.703489,1.076770,-0.249232,1.076344,1.875355
2026-01-18T19:40:02.570785,6.776473,-1.517049,1.215553,-0.302989,1.006705,1.916894
2026-01-18T19:40:02.579785,6.326622,-2.206182,1.158126,-0.212581,0.890641,1.941329
2026-01-18T19:40:02.589785,5.953342,-2.656033,1.316052,0.015882,0.788015,1.944994
2026-01-18T19:40:02.598785,5.666203,-2.785245,1.622333,0.351858,0.723264,1.920559
2026-01-18T19:40:02.608785,5.383850,-2.598605,1.598405,0.692721,0.702494,1.896125
2026-01-18T19:40:02.618785,5.111069,-2.263610,1.172483,0.989601,0.713490,1.877799
2026-01-18T19:40:02.627785,4.905286,-1.885544,0.430708,1.213178,0.746477,1.868025
2026-01-18T19:40:02.637785,4.709074,-1.751546,-0.062213,1.328020,0.761137,1.886351
2026-01-18T19:40:02.646785,4.666004,-1.842473,-0.043070,1.370781,0.726929,1.947437
2026-01-18T19:40:02.656785,5.015356,-2.134397,-0.023928,1.385442,0.638964,2.074497
2026-01-18T19:40:02.666785,5.431707,-2.359323,0.181854,1.408654,0.546113,2.233322
2026-01-18T19:40:02.675785,6.029912,-2.550748,0.392422,1.479515,0.481361,2.381152
2026-01-18T19:40:02.685785,6.503691,-2.134397,0.535992,1.563814,0.450818,2.528981
2026-01-18T19:40:02.695785,6.867400,-1.569691,0.607776,1.547932,0.444709,2.687806
2026-01-18T19:40:02.704785,7.192824,-0.990628,0.574277,1.397659,0.459370,2.850296
2026-01-18T19:40:02.714785,7.503891,-0.550349,0.473778,1.117883,0.485026,3.005456
2026-01-18T19:40:02.723785,7.647461,-0.751346,0.282353,0.752585,0.524122,3.149620
2026-01-18T19:40:02.733785,7.881957,-1.488335,0.330209,0.442266,0.558330,3.248580
2026-01-18T19:40:02.743785,8.240881,-2.809173,-0.086141,0.244346,0.615752,3.309667
2026-01-18T19:40:02.752785,8.422735,-4.666004,-0.535992,0.239459,0.704938,3.345097
2026-01-18T19:40:02.762785,8.657232,-6.355336,-0.421136,0.442266,0.757472,3.363423
2026-01-18T19:40:02.771785,8.939585,-7.676174,-0.110069,0.858876,0.763581,3.356092
2026-01-18T19:40:02.781785,9.207581,-8.288737,-0.239282,1.458745,0.764803,3.336545
2026-01-18T19:40:02.791785,9.437292,-7.776673,-0.124426,2.172236,0.783129,3.281567
2026-01-18T19:40:02.800785,9.614361,-6.096911,-0.047856,2.713462,0.795346,3.260797
2026-01-18T19:40:02.810785,9.695717,-3.862015,0.516849,2.814866,0.806341,3.295006
2026-01-18T19:40:02.820785,9.839286,-2.009970,0.842273,2.300518,0.759916,3.458718
2026-01-18T19:40:02.829785,10.246066,-1.258624,1.115055,1.323133,0.631634,3.694512
2026-01-18T19:40:02.839785,10.930413,-1.952543,1.335195,0.243124,0.500909,3.919310
2026-01-18T19:40:02.848785,11.609975,-4.268795,1.952543,-0.615752,0.488692,4.085465
2026-01-18T19:40:02.858785,11.997612,-7.322037,1.904686,-1.039692,0.642630,4.159991
2026-01-18T19:40:02.868785,11.873185,-10.384850,1.617548,-0.974940,0.891863,4.214969
2026-01-18T19:40:02.877785,11.452048,-12.586246,1.182054,-0.392175,1.127656,4.236960
2026-01-18T19:40:02.887785,10.719845,-13.356735,0.885344,0.476474,1.274264,4.258951
2026-01-18T19:40:02.896785,9.810572,-12.945170,0.320638,1.281595,1.291368,4.305377
2026-01-18T19:40:02.906785,9.087940,-11.782258,0.315852,1.883908,1.164308,4.350581
2026-01-18T19:40:02.916785,8.762516,-9.949356,0.598205,2.228435,0.926071,4.364020
2026-01-18T19:40:02.925785,8.877371,-7.944171,0.937986,2.218662,0.629191,4.372572
2026-01-18T19:40:02.935785,9.355936,-6.336194,2.038684,2.086715,0.406836,4.300490
2026-01-18T19:40:02.945785,10.011569,-5.015356,3.273381,1.965763,0.261450,4.153882
2026-01-18T19:40:02.954785,10.849057,-4.244867,4.402793,1.516167,0.266337,4.159991
2026-01-18T19:40:02.964785,11.528619,-4.584648,4.522434,0.821002,0.450818,4.233295
2026-01-18T19:40:02.973785,11.547761,-5.527420,3.574876,0.136833,0.821002,4.249177
2026-01-18T19:40:02.983785,10.920842,-6.910471,2.837887,-0.463035,1.274264,4.244290
2026-01-18T19:40:02.993785,9.528219,-8.121239,2.230110,-0.775798,1.684765,4.205195
2026-01-18T19:40:03.002785,7.671389,-9.016155,1.775474,-0.821002,1.944994,4.125782
2026-01-18T19:40:03.012785,5.675775,-9.714859,1.947757,-0.729372,2.021963,4.004831
2026-01-18T19:40:03.021785,3.847658,-10.375278,2.167897,-0.563217,1.891238,3.881436
2026-01-18T19:40:03.031785,2.340180,-10.614561,2.416750,-0.230907,1.611462,3.723833
2026-01-18T19:40:03.041785,1.354337,-10.370493,2.833101,0.118507,1.218065,3.506365
2026-01-18T19:40:03.050785,0.976271,-10.126425,3.823730,0.329867,0.756251,3.285232
2026-01-18T19:40:03.060785,1.339980,-9.824929,5.015356,0.548556,0.301767,3.028669
2026-01-18T19:40:03.070785,2.349751,-9.446863,5.541777,0.642630,-0.057421,2.829527
2026-01-18T19:40:03.079785,3.531806,-9.408578,5.340780,0.695164,-0.213802,2.631606
2026-01-18T19:40:03.089785,4.268795,-9.202795,5.206781,0.853989,-0.097738,2.345722
2026-01-18T19:40:03.098785,4.402793,-8.767302,5.503491,0.842993,0.161268,2.144136
2026-01-18T19:40:03.108785,3.976871,-8.891728,5.632704,0.514348,0.459370,2.076941
2026-01-18T19:40:03.118785,3.000599,-9.561719,5.225924,0.130725,0.758694,1.986533
2026-01-18T19:40:03.127785,1.670190,-10.389635,5.498706,-0.196698,0.987158,1.858251
2026-01-18T19:40:03.137785,0.181854,-11.466405,6.508477,-0.406836,1.029918,1.700648
2026-01-18T19:40:03.146785,-1.043270,-12.093325,7.149753,-0.417831,0.864984,1.521054
2026-01-18T19:40:03.156785,-1.694118,-12.418749,7.527819,-0.268780,0.547335,1.291368
2026-01-18T19:40:03.166785,-1.402194,-12.284751,7.475177,-0.112399,0.169820,1.017701
2026-01-18T19:40:03.175785,-0.564706,-12.002398,6.934399,-0.058643,-0.151494,0.753807
2026-01-18T19:40:03.185785,0.488135,-11.734402,6.384050,-0.130725,-0.320093,0.518013
2026-01-18T19:40:03.195785,1.311266,-11.356336,5.824130,-0.186924,-0.298102,0.233350
2026-01-18T19:40:03.204785,1.574477,-10.920842,5.489135,-0.287106,-0.133168,-0.072082
2026-01-18T19:40:03.214785,1.521835,-10.959127,4.814359,-0.472809,0.064751,-0.351858
2026-01-18T19:40:03.223785,1.062413,-11.193624,4.412364,-0.582765,0.216246,-0.671951
2026-01-18T19:40:03.233785,0.727418,-11.605189,4.512863,-0.601091,0.257785,-1.051909
2026-01-18T19:40:03.243785,0.521635,-12.442677,4.364508,-0.662177,0.157603,-1.386663
2026-01-18T19:40:03.252785,0.861416,-13.232308,4.225724,-0.619417,-0.043982,-1.705535
2026-01-18T19:40:03.262785,1.497906,-13.452448,4.493720,-0.332310,-0.271224,-2.086715
2026-01-18T19:40:03.271785,2.407179,-12.973884,4.938785,0.084299,-0.469144,-2.506990
2026-01-18T19:40:03.281785,3.263810,-12.074182,5.000999,0.464257,-0.601091,-2.866179
2026-01-18T19:40:03.291785,3.962514,-10.738987,5.503491,0.797789,-0.652403,-3.225367
2026-01-18T19:40:03.300785,4.819144,-9.676574,5.867201,0.708603,-0.695164,-3.466048
2026-01-18T19:40:03.310785,5.790630,-9.097511,5.900700,0.362853,-0.722042,-3.586999
2026-01-18T19:40:03.320785,6.527620,-8.585447,5.058426,0.042760,-0.695164,-3.734829
2026-01-18T19:40:03.329785,7.097111,-8.231309,4.374079,-0.288328,-0.616973,-3.935193
2026-01-18T19:40:03.339785,7.322037,-8.293523,3.943371,-0.527787,-0.470366,-4.184426
2026-01-18T19:40:03.348785,7.302894,-8.499305,3.345165,-0.610865,-0.296880,-4.439767
2026-01-18T19:40:03.358785,7.116254,-9.178867,2.555534,-0.778242,-0.213802,-4.604701
2026-01-18T19:40:03.368785,7.307680,-10.533205,2.301895,-1.001818,-0.279776,-4.696330
2026-01-18T19:40:03.377785,7.848458,-12.064611,1.842473,-1.207069,-0.496022,-4.713435
2026-01-18T19:40:03.387785,8.685946,-13.710873,1.674975,-1.345124,-0.814894,-4.673118
2026-01-18T19:40:03.396785,9.796215,-14.380863,2.325823,-1.092226,-1.106887,-4.761083
2026-01-18T19:40:03.406785,10.619346,-13.509876,2.809173,-0.499687,-1.186300,-4.872260
2026-01-18T19:40:03.416785,10.695917,-11.490334,1.775474,0.114842,-1.032362,-4.911355
2026-01-18T19:40:03.425785,10.241280,-9.317651,1.665404,0.491135,-0.781907,-4.932125
2026-01-18T19:40:03.435785,9.571290,-7.609175,1.612762,0.492357,-0.577878,-4.904025
2026-01-18T19:40:03.445785,8.666803,-7.044469,1.115055,0.114842,-0.546113,-4.772078
2026-01-18T19:40:03.454785,8.097311,-7.379464,0.693918,-0.340862,-0.714712,-4.696330
2026-01-18T19:40:03.464785,7.992027,-7.843672,0.952343,-0.635299,-1.010370,-4.734204
2026-01-18T19:40:03.473785,8.638089,-7.948956,1.641476,-0.720820,-1.332907,-4.846603
2026-01-18T19:40:03.483785,9.772287,-7.800601,1.636690,-0.642630,-1.635896,-4.912577
2026-01-18T19:40:03.493785,11.227123,-7.001398,1.115055,-0.428827,-1.872912,-4.888142
2026-01-18T19:40:03.502785,12.892528,-6.513263,1.703689,-0.450818,-1.998750,-4.800178
2026-01-18T19:40:03.512785,14.964712,-7.068397,2.378465,-0.882089,-2.036624,-4.538727
2026-01-18T19:40:03.521785,16.644474,-8.303094,1.780260,-1.202182,-1.963320,-4.207638
2026-01-18T19:40:03.531785,17.434105,-9.389435,0.440279,-1.285260,-1.667661,-3.881436
2026-01-18T19:40:03.541785,17.218752,-10.269994,1.033699,-1.175304,-1.123991,-3.641977
2026-01-18T19:40:03.550785,15.591632,-10.121639,1.694118,-0.774576,-0.494800,-3.441614
2026-01-18T19:40:03.560785,12.825529,-8.556733,1.689332,-0.268780,-0.089186,-3.258354
2026-01-18T19:40:03.570785,10.183852,-6.580262,1.718046,0.078190,-0.040317,-3.125185
2026-01-18T19:40:03.579785,8.245666,-4.594219,1.756331,0.184481,-0.280997,-3.011564
2026-01-18T19:40:03.589785,7.221538,-2.900100,1.344766,0.067195,-0.657290,-2.929709
2026-01-18T19:40:03.598785,6.967899,-1.890329,0.765703,-0.172263,-1.054353,-2.894278
2026-01-18T19:40:03.608785,7.412964,-1.191625,0.646062,-0.467922,-1.381776,-2.863735
2026-01-18T19:40:03.618785,8.298308,-0.827916,0.981057,-0.750142,-1.610240,-2.839301
2026-01-18T19:40:03.627785,9.399007,-0.526420,1.617548,-1.058018,-1.740965,-2.794097
2026-01-18T19:40:03.637785,10.662417,-0.593420,2.072184,-1.424537,-1.733635,-2.735453
2026-01-18T19:40:03.646785,11.595618,-0.985842,1.607976,-1.792278,-1.538158,-2.636493
2026-01-18T19:40:03.656785,11.901899,-1.249053,1.301695,-2.045176,-1.177747,-2.560746
2026-01-18T19:40:03.666785,11.423335,-1.540977,1.004985,-2.254092,-0.756251,-2.492329
2026-01-18T19:40:03.675785,10.327422,-1.842473,0.492921,-2.397034,-0.410501,-2.420247
2026-01-18T19:40:03.685785,9.087940,-2.053041,0.282353,-2.421469,-0.248011,-2.366491
2026-01-18T19:40:03.695785,8.173882,-2.297109,0.492921,-2.388482,-0.299323,-2.322509
2026-01-18T19:40:03.704785,7.738388,-2.665604,0.521635,-2.294409,-0.504574,-2.260200
2026-01-18T19:40:03.714785,7.920242,-2.976671,0.416351,-2.061058,-0.766024,-2.214996
2026-01-18T19:40:03.723785,8.561519,-3.091526,0.885344,-1.683544,-0.990823,-2.193005
2026-01-18T19:40:03.733785,9.556933,-2.876172,1.071984,-1.244943,-1.089783,-2.162462
2026-01-18T19:40:03.743785,10.356136,-2.474178,1.153340,-0.792902,-0.988379,-2.142914
2026-01-18T19:40:03.752785,10.619346,-1.928615,0.598205,-0.466700,-0.718377,-2.098932
2026-01-18T19:40:03.762785,10.150353,-1.631905,0.066999,-0.305432,-0.401949,-2.031737
2026-01-18T19:40:03.771785,9.389435,-1.526620,-0.119641,-0.235793,-0.157603,-1.948659
2026-01-18T19:40:03.781785,8.331808,-1.564905,-0.090927,-0.211359,-0.031764,-1.854586
2026-01-18T19:40:03.791785,7.336394,-1.502692,0.071784,-0.175929,-0.024434,-1.764178
2026-01-18T19:40:03.800785,6.628118,-1.435693,0.224925,-0.141720,-0.113620,-1.685987
2026-01-18T19:40:03.810785,6.183053,-1.416550,0.416351,-0.111177,-0.254119,-1.609018
2026-01-18T19:40:03.820785,6.049055,-1.473978,0.885344,-0.018325,-0.399505,-1.544267
2026-01-18T19:40:03.829785,6.063412,-1.196411,1.354337,0.122173,-0.499687,-1.489289
2026-01-18T19:40:03.839785,6.202196,-0.904486,1.253839,0.205250,-0.497244,-1.426980
2026-01-18T19:40:03.848785,6.092126,-0.598205,1.048056,0.267558,-0.359188,-1.386663
2026-01-18T19:40:03.858785,5.608776,-0.315852,0.875773,0.257785,-0.124616,-1.345124
2026-01-18T19:40:03.868785,4.709074,-0.191425,0.899701,0.128281,0.097738,-1.292590
2026-01-18T19:40:03.877785,3.646661,-0.311066,0.904486,-0.074525,0.233350,-1.200960
2026-01-18T19:40:03.887785,2.746960,-0.636490,0.923629,-0.261450,0.241902,-1.086118
2026-01-18T19:40:03.896785,2.081755,-0.995414,1.048056,-0.371405,0.134390,-0.972497
2026-01-18T19:40:03.906785,1.875972,-1.249053,1.129412,-0.394618,-0.053756,-0.858876
2026-01-18T19:40:03.916785,2.100898,-1.363908,1.277767,-0.334754,-0.268780,-0.769690
2026-01-18T19:40:03.925785,2.646461,-1.383051,1.263410,-0.252898,-0.459370,-0.682947
2026-01-18T19:40:03.935785,3.407379,-1.301695,1.564905,-0.186924,-0.577878,-0.613308
2026-01-18T19:40:03.945785,4.302295,-1.330409,1.875972,-0.120951,-0.625525,-0.549778
2026-01-18T19:40:03.954785,5.216353,-1.316052,2.000399,-0.047647,-0.624304,-0.486248
2026-01-18T19:40:03.964785,6.178267,-1.521835,1.832902,0.024434,-0.597426,-0.445931
2026-01-18T19:40:03.973785,7.168896,-1.842473,1.483550,0.140498,-0.558330,-0.411723
2026-01-18T19:40:03.983785,8.173882,-1.942971,1.249053,0.317649,-0.542448,-0.384845
2026-01-18T19:40:03.993785,9.365507,-1.938186,1.004985,0.482583,-0.571769,-0.345749
2026-01-18T19:40:04.002785,10.671988,-1.746760,0.583848,0.599869,-0.620638,-0.293215
2026-01-18T19:40:04.012785,12.093325,-1.464407,0.344566,0.651182,-0.649960,-0.228463
2026-01-18T19:40:04.021785,13.418949,-1.043270,0.263210,0.612086,-0.592539,-0.102625
2026-01-18T19:40:04.031785,14.423934,-0.713061,0.358923,0.493579,-0.397062,0.061086
2026-01-18T19:40:04.041785,14.644074,-0.478564,0.588634,0.307876,-0.006108,0.248011
