Timestamp,Acceleration_X,Acceleration_Y,Acceleration_Z,Gyro_X,Gyro_Y,Gyro_Z
2025-12-31T16:23:43.960929,9.461220,-2.746960,2.268395,0.034208,-0.053756,-0.003665
2025-12-31T16:23:43.970929,9.418149,-2.708675,2.153540,0.064751,-0.030543,0.002443
2025-12-31T16:23:43.979929,9.384650,-2.574677,2.182254,0.075747,-0.024434,0.000000
2025-12-31T16:23:43.989929,9.379864,-2.565105,2.234896,0.068416,-0.031764,-0.001221
2025-12-31T16:23:43.998929,9.422935,-2.646461,2.234896,0.053756,-0.042760,0.000000
2025-12-31T16:23:44.008929,9.384650,-2.679961,2.196611,0.056199,-0.043982,-0.002443
2025-12-31T16:23:44.018929,9.403792,-2.703889,2.220539,0.080634,-0.040317,-0.006108
2025-12-31T16:23:44.027929,9.422935,-2.598605,2.301895,0.098960,-0.030543,-0.010995
2025-12-31T16:23:44.037929,9.518648,-2.593819,2.254038,0.096516,-0.020769,-0.013439
2025-12-31T16:23:44.047929,9.403792,-2.589034,2.215753,0.090408,-0.013439,-0.014660
2025-12-31T16:23:44.056929,9.384650,-2.608176,2.191825,0.092851,-0.009773,-0.019547
2025-12-31T16:23:44.066929,9.346365,-2.627319,2.244467,0.113620,-0.013439,-0.020769
2025-12-31T16:23:44.075929,9.308079,-2.589034,2.249253,0.145385,-0.017104,-0.017104
2025-12-31T16:23:44.085929,9.303294,-2.435893,2.297109,0.162490,-0.021991,-0.004886
2025-12-31T16:23:44.095929,9.274580,-2.325823,2.263610,0.157603,-0.028099,0.008552
2025-12-31T16:23:44.104929,9.250652,-2.239681,2.306680,0.131946,-0.031764,0.019547
2025-12-31T16:23:44.114929,9.231509,-2.210968,2.249253,0.087964,-0.040317,0.026878
2025-12-31T16:23:44.123929,9.293722,-2.239681,2.273181,0.039095,-0.052534,0.025656
2025-12-31T16:23:44.133929,9.370293,-2.378465,2.201396,0.003665,-0.056199,0.024434
2025-12-31T16:23:44.143929,9.432506,-2.517249,2.215753,-0.010995,-0.051312,0.026878
2025-12-31T16:23:44.152929,9.408578,-2.569891,2.220539,-0.003665,-0.043982,0.018325
2025-12-31T16:23:44.162929,9.432506,-2.522035,2.230110,0.017104,-0.035430,0.012217
2025-12-31T16:23:44.172929,9.513862,-2.493321,2.182254,0.034208,-0.026878,0.009773
2025-12-31T16:23:44.181929,9.489934,-2.421536,2.225325,0.031764,-0.028099,0.007330
2025-12-31T16:23:44.191929,9.504291,-2.445464,2.191825,0.017104,-0.031764,0.001221
2025-12-31T16:23:44.200929,9.523433,-2.421536,2.182254,0.003665,-0.029321,0.001221
2025-12-31T16:23:44.210929,9.518648,-2.459821,2.148754,-0.001221,-0.023212,0.000000
2025-12-31T16:23:44.220929,9.499505,-2.498106,2.215753,-0.002443,-0.009773,-0.001221
2025-12-31T16:23:44.229929,9.466006,-2.478964,2.234896,-0.001221,0.002443,-0.001221
2025-12-31T16:23:44.239929,9.403792,-2.517249,2.187039,0.001221,0.007330,0.001221
2025-12-31T16:23:44.248929,9.327222,-2.627319,2.187039,0.014660,0.008552,0.000000
2025-12-31T16:23:44.258929,9.279366,-2.665604,2.153540,0.034208,0.007330,0.002443
2025-12-31T16:23:44.268929,9.226723,-2.646461,2.158325,0.062308,0.000000,0.004886
2025-12-31T16:23:44.277929,9.198010,-2.593819,2.210968,0.094073,-0.014660,0.008552
2025-12-31T16:23:44.287929,9.260223,-2.502892,2.143969,0.113620,-0.030543,0.013439
2025-12-31T16:23:44.297929,9.293722,-2.335394,2.254038,0.117286,-0.046425,0.018325
2025-12-31T16:23:44.306929,9.288937,-2.316252,2.177468,0.095294,-0.058643,0.020769
2025-12-31T16:23:44.316929,9.375078,-2.292324,2.234896,0.062308,-0.065973,0.023212
2025-12-31T16:23:44.325929,9.446863,-2.402393,2.268395,0.036651,-0.069638,0.018325
2025-12-31T16:23:44.335929,9.466006,-2.407179,2.258824,0.021991,-0.064751,0.012217
2025-12-31T16:23:44.345929,9.537790,-2.469392,2.254038,0.023212,-0.054977,0.009773
2025-12-31T16:23:44.354929,9.523433,-2.560320,2.206182,0.034208,-0.039095,0.007330
2025-12-31T16:23:44.364929,9.489934,-2.526820,2.230110,0.057421,-0.023212,0.006108
2025-12-31T16:23:44.373929,9.461220,-2.498106,2.100898,0.089186,-0.004886,0.008552
2025-12-31T16:23:44.383929,9.341579,-2.311466,2.167897,0.106290,0.002443,0.015882
2025-12-31T16:23:44.393929,9.279366,-2.215753,2.187039,0.083077,-0.003665,0.025656
2025-12-31T16:23:44.402929,9.293722,-2.201396,2.249253,0.036651,-0.028099,0.029321
2025-12-31T16:23:44.412929,9.403792,-2.306680,2.234896,-0.010995,-0.046425,0.030543
2025-12-31T16:23:44.422929,9.442077,-2.359323,2.249253,-0.031764,-0.047647,0.032986
2025-12-31T16:23:44.431929,9.456434,-2.464607,2.263610,-0.028099,-0.032986,0.035430
2025-12-31T16:23:44.441929,9.432506,-2.512463,2.172682,-0.014660,-0.018325,0.036651
2025-12-31T16:23:44.450929,9.370293,-2.498106,2.124826,-0.003665,-0.012217,0.032986
2025-12-31T16:23:44.460929,9.403792,-2.507678,2.100898,0.001221,-0.021991,0.031764
2025-12-31T16:23:44.470929,9.408578,-2.507678,2.120040,0.009773,-0.030543,0.029321
2025-12-31T16:23:44.479929,9.456434,-2.474178,2.105683,0.031764,-0.026878,0.029321
2025-12-31T16:23:44.489929,9.413364,-2.416750,2.196611,0.056199,-0.018325,0.032986
2025-12-31T16:23:44.498929,9.355936,-2.287538,2.201396,0.053756,-0.018325,0.032986
2025-12-31T16:23:44.508929,9.418149,-2.273181,2.177468,0.025656,-0.023212,0.029321
2025-12-31T16:23:44.518929,9.437292,-2.306680,2.191825,-0.009773,-0.030543,0.034208
2025-12-31T16:23:44.527929,9.389435,-2.373680,2.230110,-0.031764,-0.030543,0.035430
2025-12-31T16:23:44.537929,9.394221,-2.411965,2.172682,-0.037873,-0.029321,0.034208
2025-12-31T16:23:44.547929,9.413364,-2.450250,2.187039,-0.032986,-0.025656,0.035430
2025-12-31T16:23:44.556929,9.317651,-2.383251,2.201396,-0.017104,-0.028099,0.032986
2025-12-31T16:23:44.566929,9.351150,-2.402393,2.230110,-0.003665,-0.030543,0.034208
2025-12-31T16:23:44.575929,9.346365,-2.340180,2.191825,0.003665,-0.031764,0.039095
2025-12-31T16:23:44.585929,9.284151,-2.268395,2.148754,-0.004886,-0.034208,0.042760
2025-12-31T16:23:44.595929,9.317651,-2.268395,2.172682,-0.021991,-0.042760,0.043982
2025-12-31T16:23:44.604929,9.379864,-2.344966,2.177468,-0.041538,-0.051312,0.048869
2025-12-31T16:23:44.614929,9.408578,-2.445464,2.134397,-0.053756,-0.063529,0.050090
2025-12-31T16:23:44.623929,9.437292,-2.464607,2.134397,-0.048869,-0.064751,0.050090
2025-12-31T16:23:44.633929,9.437292,-2.474178,2.115255,-0.025656,-0.067195,0.052534
2025-12-31T16:23:44.643929,9.418149,-2.440679,2.153540,-0.008552,-0.072082,0.050090
2025-12-31T16:23:44.652929,9.480363,-2.368894,2.206182,-0.007330,-0.075747,0.045204
2025-12-31T16:23:44.662929,9.446863,-2.416750,2.134397,-0.007330,-0.080634,0.042760
2025-12-31T16:23:44.672929,9.513862,-2.474178,2.115255,-0.004886,-0.090408,0.035430
2025-12-31T16:23:44.681929,9.619146,-2.407179,2.172682,0.003665,-0.086742,0.028099
2025-12-31T16:23:44.691929,9.690931,-2.378465,2.148754,0.008552,-0.070860,0.026878
2025-12-31T16:23:44.700929,9.647860,-2.277967,2.148754,0.001221,-0.054977,0.020769
2025-12-31T16:23:44.710929,9.619146,-2.273181,2.182254,-0.015882,-0.037873,0.017104
2025-12-31T16:23:44.720929,9.600004,-2.306680,2.263610,-0.042760,-0.021991,0.014660
2025-12-31T16:23:44.729929,9.542576,-2.364108,2.187039,-0.067195,-0.009773,0.007330
2025-12-31T16:23:44.739929,9.461220,-2.335394,2.201396,-0.084299,0.000000,0.000000
2025-12-31T16:23:44.748929,9.370293,-2.411965,2.191825,-0.090408,0.006108,-0.006108
2025-12-31T16:23:44.758929,9.403792,-2.435893,2.230110,-0.084299,0.008552,-0.012217
2025-12-31T16:23:44.768929,9.375078,-2.474178,2.244467,-0.073303,0.008552,-0.017104
2025-12-31T16:23:44.777929,9.346365,-2.536391,2.201396,-0.059864,0.009773,-0.013439
2025-12-31T16:23:44.787929,9.422935,-2.459821,2.220539,-0.052534,0.009773,-0.012217
2025-12-31T16:23:44.797929,9.389435,-2.435893,2.273181,-0.050090,0.009773,-0.008552
2025-12-31T16:23:44.806929,9.389435,-2.373680,2.234896,-0.058643,0.009773,-0.004886
2025-12-31T16:23:44.816929,9.327222,-2.421536,2.201396,-0.073303,0.013439,0.001221
2025-12-31T16:23:44.825929,9.231509,-2.445464,2.206182,-0.083077,0.007330,0.004886
2025-12-31T16:23:44.835929,9.183653,-2.569891,2.254038,-0.076969,-0.009773,0.006108
2025-12-31T16:23:44.845929,9.198010,-2.612962,2.201396,-0.054977,-0.032986,0.010995
2025-12-31T16:23:44.854929,9.250652,-2.579462,2.148754,-0.024434,-0.056199,0.017104
2025-12-31T16:23:44.864929,9.279366,-2.565105,2.139183,-0.001221,-0.080634,0.021991
2025-12-31T16:23:44.873929,9.351150,-2.493321,2.091326,0.018325,-0.096516,0.024434
2025-12-31T16:23:44.883929,9.427721,-2.402393,2.167897,0.026878,-0.095294,0.026878
2025-12-31T16:23:44.893929,9.513862,-2.364108,2.167897,0.035430,-0.081855,0.032986
2025-12-31T16:23:44.902929,9.432506,-2.368894,2.177468,0.036651,-0.068416,0.032986
2025-12-31T16:23:44.912929,9.418149,-2.325823,2.081755,0.032986,-0.068416,0.031764
2025-12-31T16:23:44.922929,9.370293,-2.340180,2.105683,0.018325,-0.085521,0.032986
2025-12-31T16:23:44.931929,9.489934,-2.316252,2.115255,-0.003665,-0.114842,0.023212
2025-12-31T16:23:44.941929,9.590432,-2.416750,2.139183,-0.020769,-0.131946,0.012217
2025-12-31T16:23:44.950929,9.810572,-2.440679,2.167897,-0.025656,-0.124616,0.000000
2025-12-31T16:23:44.960929,9.815358,-2.474178,2.187039,-0.017104,-0.081855,-0.018325
2025-12-31T16:23:44.970929,9.839286,-2.392822,2.220539,-0.006108,-0.017104,-0.036651
2025-12-31T16:23:44.979929,9.724431,-2.335394,2.239681,-0.013439,0.041538,-0.047647
2025-12-31T16:23:44.989929,9.442077,-2.297109,2.182254,-0.037873,0.076969,-0.059864
2025-12-31T16:23:44.998929,9.274580,-2.301895,2.177468,-0.065973,0.083077,-0.058643
2025-12-31T16:23:45.008929,9.126225,-2.292324,2.258824,-0.091629,0.057421,-0.052534
2025-12-31T16:23:45.018929,9.083154,-2.306680,2.311466,-0.109955,0.019547,-0.040317
2025-12-31T16:23:45.027929,9.126225,-2.359323,2.301895,-0.130725,-0.021991,-0.026878
2025-12-31T16:23:45.037929,9.183653,-2.411965,2.321037,-0.152716,-0.050090,-0.014660
2025-12-31T16:23:45.047929,9.274580,-2.517249,2.277967,-0.163711,-0.058643,-0.008552
2025-12-31T16:23:45.056929,9.355936,-2.636890,2.234896,-0.157603,-0.053756,-0.007330
2025-12-31T16:23:45.066929,9.451649,-2.775674,2.206182,-0.129503,-0.045204,-0.012217
2025-12-31T16:23:45.075929,9.432506,-2.857030,2.182254,-0.080634,-0.026878,-0.014660
2025-12-31T16:23:45.085929,9.375078,-2.823530,2.196611,-0.024434,-0.015882,-0.017104
2025-12-31T16:23:45.095929,9.322436,-2.742174,2.230110,0.021991,-0.015882,-0.018325
2025-12-31T16:23:45.104929,9.317651,-2.593819,2.215753,0.047647,-0.030543,-0.013439
2025-12-31T16:23:45.114929,9.346365,-2.488535,2.273181,0.050090,-0.050090,-0.004886
2025-12-31T16:23:45.123929,9.403792,-2.354537,2.244467,0.025656,-0.074525,0.002443
2025-12-31T16:23:45.133929,9.446863,-2.440679,2.239681,-0.008552,-0.095294,0.009773
2025-12-31T16:23:45.143929,9.590432,-2.493321,2.244467,-0.029321,-0.096516,0.015882
2025-12-31T16:23:45.152929,9.676574,-2.574677,2.187039,-0.024434,-0.069638,0.017104
2025-12-31T16:23:45.162929,9.614361,-2.622533,2.177468,-0.001221,-0.028099,0.017104
2025-12-31T16:23:45.172929,9.552147,-2.651247,2.177468,0.031764,0.013439,0.013439
2025-12-31T16:23:45.181929,9.451649,-2.560320,2.148754,0.057421,0.047647,0.014660
2025-12-31T16:23:45.191929,9.288937,-2.507678,2.182254,0.075747,0.058643,0.018325
2025-12-31T16:23:45.200929,9.226723,-2.464607,2.148754,0.090408,0.040317,0.019547
2025-12-31T16:23:45.210929,9.107082,-2.388036,2.182254,0.097738,0.009773,0.020769
2025-12-31T16:23:45.220929,9.169296,-2.311466,2.201396,0.091629,-0.025656,0.023212
2025-12-31T16:23:45.229929,9.221938,-2.201396,2.163111,0.067195,-0.053756,0.028099
2025-12-31T16:23:45.239929,9.346365,-2.230110,2.177468,0.028099,-0.073303,0.024434
2025-12-31T16:23:45.248929,9.408578,-2.297109,2.191825,-0.012217,-0.076969,0.020769
2025-12-31T16:23:45.258929,9.480363,-2.349751,2.148754,-0.035430,-0.068416,0.017104
2025-12-31T16:23:45.268929,9.537790,-2.402393,2.134397,-0.042760,-0.053756,0.009773
2025-12-31T16:23:45.277929,9.461220,-2.517249,2.143969,-0.040317,-0.040317,0.002443
2025-12-31T16:23:45.287929,9.470791,-2.612962,2.120040,-0.020769,-0.034208,0.000000
2025-12-31T16:23:45.297929,9.408578,-2.493321,2.129612,0.012217,-0.026878,-0.007330
2025-12-31T16:23:45.306929,9.384650,-2.455035,2.167897,0.029321,-0.028099,-0.002443
2025-12-31T16:23:45.316929,9.446863,-2.411965,2.182254,0.030543,-0.034208,0.004886
2025-12-31T16:23:45.325929,9.399007,-2.340180,2.187039,0.030543,-0.039095,0.013439
2025-12-31T16:23:45.335929,9.432506,-2.325823,2.134397,0.010995,-0.051312,0.020769
2025-12-31T16:23:45.345929,9.437292,-2.378465,2.143969,-0.018325,-0.061086,0.021991
2025-12-31T16:23:45.354929,9.509077,-2.431107,2.091326,-0.037873,-0.067195,0.019547
2025-12-31T16:23:45.364929,9.571290,-2.531606,2.158325,-0.029321,-0.059864,0.018325
2025-12-31T16:23:45.373929,9.547362,-2.560320,2.019542,0.006108,-0.041538,0.015882
2025-12-31T16:23:45.383929,9.466006,-2.469392,2.115255,0.045204,-0.018325,0.019547
2025-12-31T16:23:45.393929,9.418149,-2.325823,2.120040,0.053756,-0.006108,0.023212
2025-12-31T16:23:45.402929,9.375078,-2.230110,2.091326,0.024434,-0.023212,0.021991
2025-12-31T16:23:45.412929,9.461220,-2.287538,2.158325,-0.018325,-0.042760,0.021991
2025-12-31T16:23:45.422929,9.475577,-2.392822,2.143969,-0.043982,-0.051312,0.021991
2025-12-31T16:23:45.431929,9.547362,-2.421536,2.187039,-0.042760,-0.042760,0.013439
2025-12-31T16:23:45.441929,9.556933,-2.450250,2.210968,-0.029321,-0.021991,0.007330
2025-12-31T16:23:45.450929,9.537790,-2.455035,2.177468,-0.023212,-0.002443,0.006108
2025-12-31T16:23:45.460929,9.437292,-2.450250,2.148754,-0.020769,0.007330,0.009773
2025-12-31T16:23:45.470929,9.341579,-2.493321,2.076970,-0.017104,0.001221,0.009773
2025-12-31T16:23:45.479929,9.250652,-2.411965,2.029113,-0.008552,-0.010995,0.014660
2025-12-31T16:23:45.489929,9.193224,-2.455035,2.067398,0.009773,-0.030543,0.020769
2025-12-31T16:23:45.498929,9.198010,-2.421536,2.076970,0.019547,-0.064751,0.029321
2025-12-31T16:23:45.508929,9.236295,-2.464607,2.120040,0.014660,-0.096516,0.034208
2025-12-31T16:23:45.518929,9.355936,-2.450250,2.105683,0.013439,-0.107512,0.032986
2025-12-31T16:23:45.527929,9.499505,-2.388036,2.124826,0.019547,-0.103847,0.030543
2025-12-31T16:23:45.537929,9.580861,-2.435893,2.081755,0.032986,-0.084299,0.029321
2025-12-31T16:23:45.547929,9.580861,-2.411965,2.105683,0.046425,-0.051312,0.024434
2025-12-31T16:23:45.556929,9.494720,-2.431107,2.038684,0.051312,-0.019547,0.021991
2025-12-31T16:23:45.566929,9.370293,-2.368894,2.019542,0.045204,-0.003665,0.023212
2025-12-31T16:23:45.575929,9.274580,-2.344966,2.072184,0.037873,-0.020769,0.020769
2025-12-31T16:23:45.585929,9.265009,-2.311466,2.096112,0.019547,-0.057421,0.019547
2025-12-31T16:23:45.595929,9.265009,-2.373680,2.086541,0.000000,-0.100181,0.020769
2025-12-31T16:23:45.604929,9.456434,-2.483749,2.081755,-0.009773,-0.124616,0.023212
2025-12-31T16:23:45.614929,9.662217,-2.435893,2.081755,-0.001221,-0.119729,0.020769
2025-12-31T16:23:45.623929,9.671788,-2.407179,2.139183,0.013439,-0.086742,0.019547
2025-12-31T16:23:45.633929,9.657432,-2.478964,2.182254,0.029321,-0.042760,0.019547
2025-12-31T16:23:45.643929,9.533005,-2.431107,2.110469,0.040317,-0.003665,0.025656
2025-12-31T16:23:45.652929,9.351150,-2.474178,2.029113,0.053756,0.009773,0.026878
2025-12-31T16:23:45.662929,9.221938,-2.469392,2.076970,0.067195,-0.004886,0.030543
2025-12-31T16:23:45.672929,9.111868,-2.435893,2.043470,0.086742,-0.048869,0.035430
2025-12-31T16:23:45.681929,9.145367,-2.526820,2.024327,0.117286,-0.097738,0.041538
2025-12-31T16:23:45.691929,9.265009,-2.344966,2.053041,0.146607,-0.139277,0.050090
2025-12-31T16:23:45.700929,9.370293,-2.201396,1.971685,0.160046,-0.169820,0.053756
2025-12-31T16:23:45.710929,9.595218,-2.220539,2.009970,0.144164,-0.177150,0.048869
2025-12-31T16:23:45.720929,9.700502,-2.201396,2.081755,0.114842,-0.160046,0.041538
2025-12-31T16:23:45.729929,9.772287,-2.234896,2.163111,0.094073,-0.119729,0.034208
2025-12-31T16:23:45.739929,9.714859,-2.325823,2.105683,0.090408,-0.070860,0.021991
2025-12-31T16:23:45.748929,9.676574,-2.359323,2.105683,0.107512,-0.032986,0.013439
2025-12-31T16:23:45.758929,9.480363,-2.316252,2.033899,0.133168,-0.010995,0.012217
2025-12-31T16:23:45.768929,9.365507,-2.220539,2.129612,0.149051,-0.004886,0.017104
2025-12-31T16:23:45.777929,9.154939,-2.053041,2.062613,0.145385,-0.013439,0.030543
2025-12-31T16:23:45.787929,9.116654,-1.966900,2.091326,0.112399,-0.040317,0.045204
2025-12-31T16:23:45.797929,9.111868,-1.957328,2.067398,0.059864,-0.074525,0.054977
2025-12-31T16:23:45.806929,9.154939,-2.053041,1.976471,0.009773,-0.113620,0.053756
2025-12-31T16:23:45.816929,9.365507,-2.215753,2.038684,-0.019547,-0.145385,0.053756
2025-12-31T16:23:45.825929,9.552147,-2.340180,2.153540,-0.009773,-0.152716,0.051312
2025-12-31T16:23:45.835929,9.671788,-2.330609,2.115255,0.031764,-0.136833,0.052534
2025-12-31T16:23:45.845929,9.686145,-2.301895,2.005185,0.074525,-0.108733,0.051312
2025-12-31T16:23:45.854929,9.647860,-2.139183,2.000399,0.087964,-0.086742,0.048869
2025-12-31T16:23:45.864929,9.614361,-2.124826,2.009970,0.069638,-0.081855,0.047647
2025-12-31T16:23:45.873929,9.590432,-2.153540,1.962114,0.045204,-0.096516,0.040317
2025-12-31T16:23:45.883929,9.647860,-2.196611,2.005185,0.039095,-0.101403,0.035430
2025-12-31T16:23:45.893929,9.638289,-2.163111,2.100898,0.064751,-0.094073,0.032986
2025-12-31T16:23:45.902929,9.695717,-2.167897,2.196611,0.091629,-0.079412,0.029321
2025-12-31T16:23:45.912929,9.604789,-2.043470,2.143969,0.096516,-0.070860,0.031764
2025-12-31T16:23:45.922929,9.628718,-2.096112,2.124826,0.090408,-0.070860,0.031764
2025-12-31T16:23:45.931929,9.537790,-2.067398,2.124826,0.079412,-0.074525,0.024434
2025-12-31T16:23:45.941929,9.542576,-2.225325,2.000399,0.080634,-0.091629,0.015882
2025-12-31T16:23:45.950929,9.633503,-2.397608,1.957328,0.127059,-0.108733,0.006108
2025-12-31T16:23:45.960929,9.628718,-2.373680,1.990828,0.208915,-0.117286,-0.008552
2025-12-31T16:23:45.970929,9.657432,-2.254038,1.962114,0.300545,-0.112399,-0.018325
2025-12-31T16:23:45.979929,9.600004,-2.105683,1.990828,0.377514,-0.103847,-0.028099
2025-12-31T16:23:45.989929,9.604789,-1.890329,2.081755,0.411723,-0.106290,-0.042760
2025-12-31T16:23:45.998929,9.537790,-1.761117,2.053041,0.404392,-0.120951,-0.054977
2025-12-31T16:23:46.008929,9.556933,-1.670190,1.952543,0.389731,-0.138055,-0.061086
2025-12-31T16:23:46.018929,9.628718,-1.526620,1.938186,0.365297,-0.157603,-0.065973
2025-12-31T16:23:46.027929,9.595218,-1.545763,1.990828,0.305432,-0.163711,-0.067195
2025-12-31T16:23:46.037929,9.619146,-1.641476,1.919043,0.251676,-0.163711,-0.076969
2025-12-31T16:23:46.047929,9.542576,-1.789831,1.837687,0.240680,-0.141720,-0.087964
2025-12-31T16:23:46.056929,9.327222,-1.828116,1.727617,0.256563,-0.127059,-0.085521
2025-12-31T16:23:46.066929,9.092725,-1.904686,1.761117,0.283441,-0.140498,-0.087964
2025-12-31T16:23:46.075929,8.934799,-1.909472,1.655833,0.312762,-0.182037,-0.090408
2025-12-31T16:23:46.085929,8.858229,-1.942971,1.555334,0.342084,-0.238237,-0.079412
2025-12-31T16:23:46.095929,8.930013,-1.933400,1.598405,0.366519,-0.318871,-0.069638
2025-12-31T16:23:46.104929,9.001798,-1.952543,1.560120,0.403170,-0.409279,-0.067195
2025-12-31T16:23:46.114929,9.303294,-1.856830,1.540977,0.452040,-0.502131,-0.065973
2025-12-31T16:23:46.123929,9.695717,-1.708475,1.383051,0.466700,-0.560774,-0.078190
2025-12-31T16:23:46.133929,10.121639,-1.560120,1.205982,0.450818,-0.577878,-0.111177
2025-12-31T16:23:46.143929,10.595418,-1.349551,0.928415,0.398284,-0.508239,-0.152716
2025-12-31T16:23:46.152929,10.652846,-1.229910,0.976271,0.320093,-0.373849,-0.191811
2025-12-31T16:23:46.162929,10.437492,-1.186840,1.067198,0.217467,-0.211359,-0.216246
2025-12-31T16:23:46.172929,9.997212,-1.182054,1.091127,0.124616,-0.100181,-0.224798
2025-12-31T16:23:46.181929,9.489934,-1.244267,1.086341,0.046425,-0.069638,-0.218689
2025-12-31T16:23:46.191929,9.020941,-1.292124,1.119840,-0.006108,-0.122173,-0.194255
2025-12-31T16:23:46.200929,8.776873,-1.306481,1.153340,-0.052534,-0.226020,-0.149051
2025-12-31T16:23:46.210929,8.752945,-1.268195,1.258624,-0.116064,-0.359188,-0.084299
2025-12-31T16:23:46.220929,8.896514,-1.167697,1.239482,-0.213802,-0.480139,-0.040317
2025-12-31T16:23:46.229929,9.164510,-1.167697,1.052841,-0.327423,-0.568104,-0.017104
2025-12-31T16:23:46.239929,9.470791,-1.143769,0.875773,-0.460592,-0.601091,-0.006108
2025-12-31T16:23:46.248929,9.566504,-1.258624,0.703489,-0.630412,-0.604756,0.009773
2025-12-31T16:23:46.258929,9.657432,-1.325623,0.655633,-0.785572,-0.599869,0.015882
2025-12-31T16:23:46.268929,9.767501,-1.607976,0.669990,-0.932180,-0.591317,-0.004886
2025-12-31T16:23:46.277929,9.848857,-1.952543,0.674775,-1.042135,-0.602312,-0.021991
2025-12-31T16:23:46.287929,9.848857,-2.225325,0.626919,-1.087339,-0.614530,-0.021991
2025-12-31T16:23:46.297929,9.815358,-2.560320,0.564706,-1.065348,-0.635299,-0.026878
2025-12-31T16:23:46.306929,9.777073,-2.794816,0.598205,-1.000597,-0.647517,-0.043982
2025-12-31T16:23:46.316929,9.657432,-3.129811,0.607776,-0.901636,-0.645073,-0.083077
2025-12-31T16:23:46.325929,9.652646,-3.359522,0.478564,-0.751364,-0.631634,-0.152716
2025-12-31T16:23:46.335929,9.710074,-3.541377,0.588634,-0.533896,-0.601091,-0.227241
2025-12-31T16:23:46.345929,9.762716,-3.474378,0.631705,-0.289550,-0.568104,-0.282219
2025-12-31T16:23:46.354929,9.858429,-3.220739,0.526420,-0.064751,-0.521678,-0.315206
2025-12-31T16:23:46.364929,9.767501,-2.761317,0.459421,0.091629,-0.452040,-0.337197
2025-12-31T16:23:46.373929,9.600004,-2.268395,0.464207,0.151494,-0.371405,-0.349414
2025-12-31T16:23:46.383929,9.461220,-1.890329,0.626919,0.122173,-0.293215,-0.361632
2025-12-31T16:23:46.393929,9.355936,-1.775474,0.799202,0.047647,-0.206472,-0.357966
2025-12-31T16:23:46.402929,9.102297,-1.789831,0.937986,-0.064751,-0.151494,-0.353080
2025-12-31T16:23:46.412929,9.068797,-2.000399,1.076770,-0.151494,-0.131946,-0.337197
2025-12-31T16:23:46.422929,8.910871,-2.292324,1.220339,-0.175929,-0.145385,-0.304210
2025-12-31T16:23:46.431929,8.958727,-2.531606,1.359123,-0.119729,-0.168598,-0.277332
2025-12-31T16:23:46.441929,8.987441,-2.617747,1.435693,0.004886,-0.169820,-0.256563
2025-12-31T16:23:46.450929,8.982656,-2.522035,1.464407,0.161268,-0.150272,-0.241902
2025-12-31T16:23:46.460929,9.011369,-2.148754,1.507478,0.285884,-0.105068,-0.228463
2025-12-31T16:23:46.470929,8.944370,-1.689332,1.440479,0.326201,-0.050090,-0.232128
2025-12-31T16:23:46.479929,8.872586,-1.282552,1.493121,0.294436,0.017104,-0.248011
2025-12-31T16:23:46.489929,8.776873,-0.937986,1.531406,0.180816,0.069638,-0.265115
2025-12-31T16:23:46.498929,8.791230,-0.842273,1.359123,0.017104,0.127059,-0.315206
2025-12-31T16:23:46.508929,8.714659,-0.928415,1.531406,-0.144164,0.232128,-0.356745
2025-12-31T16:23:46.518929,8.379664,-1.124626,1.339980,-0.294436,0.334754,-0.381179
2025-12-31T16:23:46.527929,8.006384,-1.406979,1.105484,-0.377514,0.456927,-0.398284
2025-12-31T16:23:46.537929,7.389036,-1.727617,1.110269,-0.398284,0.610865,-0.401949
2025-12-31T16:23:46.547929,6.632904,-1.957328,1.296909,-0.367740,0.773355,-0.370184
2025-12-31T16:23:46.556929,5.771488,-2.316252,1.545763,-0.270002,0.928514,-0.296880
2025-12-31T16:23:46.566929,4.795216,-2.407179,1.856830,-0.123394,1.062905,-0.183259
2025-12-31T16:23:46.575929,3.871586,-2.244467,1.899901,0.045204,1.166752,-0.043982
2025-12-31T16:23:46.585929,3.120240,-1.885544,1.895115,0.194255,1.249830,0.098960
2025-12-31T16:23:46.595929,2.359323,-1.488335,1.832902,0.263893,1.313359,0.245567
2025-12-31T16:23:46.604929,1.727617,-1.105484,1.914258,0.252898,1.363450,0.406836
2025-12-31T16:23:46.614929,1.134197,-1.024128,1.933400,0.177150,1.404989,0.569326
2025-12-31T16:23:46.623929,0.837487,-1.076770,1.923829,0.062308,1.417207,0.725707
2025-12-31T16:23:46.633929,0.698704,-1.373480,1.962114,-0.065973,1.369559,0.882089
2025-12-31T16:23:46.643929,0.923629,-1.756331,1.962114,-0.227241,1.237612,1.047022
2025-12-31T16:23:46.652929,1.517049,-2.301895,1.631905,-0.368962,1.029918,1.218065
2025-12-31T16:23:46.662929,2.282752,-2.880958,1.507478,-0.447153,0.816115,1.375668
2025-12-31T16:23:46.672929,3.187239,-3.641875,1.555334,-0.442266,0.651182,1.481958
2025-12-31T16:23:46.681929,4.039084,-4.206582,1.789831,-0.270002,0.571769,1.536936
2025-12-31T16:23:46.691929,4.776073,-4.388436,2.378465,-0.001221,0.614530,1.546710
2025-12-31T16:23:46.700929,5.374279,-4.369294,2.986242,0.240680,0.753807,1.529606
2025-12-31T16:23:46.710929,5.699703,-4.072584,3.206382,0.511904,0.961501,1.497841
2025-12-31T16:23:46.720929,5.953342,-3.349951,3.144168,0.746477,1.215621,1.450193
2025-12-31T16:23:46.729929,6.015556,-2.794816,3.215953,0.724486,1.431867,1.398881
2025-12-31T16:23:46.739929,6.139982,-2.775674,2.909672,0.492357,1.582140,1.391550
2025-12-31T16:23:46.748929,6.211767,-3.053241,2.440679,0.243124,1.672548,1.448972
2025-12-31T16:23:46.758929,6.398407,-3.345165,2.574677,-0.059864,1.695761,1.563814
2025-12-31T16:23:46.768929,6.833901,-4.331008,3.048455,-0.449596,1.651779,1.696983
2025-12-31T16:23:46.777929,7.278966,-5.536991,3.483949,-0.658512,1.622457,1.841147
2025-12-31T16:23:46.787929,7.843672,-6.312266,3.885943,-0.572991,1.656666,1.979202
2025-12-31T16:23:46.797929,8.212167,-6.556333,4.063012,-0.342084,1.755626,2.096489
2025-12-31T16:23:46.806929,8.437092,-6.537191,3.895515,-0.085521,1.870468,2.161240
2025-12-31T16:23:46.816929,8.724231,-6.355336,4.115654,0.100181,1.977981,2.217440
2025-12-31T16:23:46.825929,8.963513,-6.163911,4.488935,0.204028,2.035402,2.302961
2025-12-31T16:23:46.835929,9.083154,-5.580062,4.833501,0.306654,2.061058,2.431243
2025-12-31T16:23:46.845929,9.178867,-5.029713,5.316851,0.153938,2.032959,2.582737
2025-12-31T16:23:46.854929,9.322436,-5.125426,5.871986,-0.254119,2.032959,2.750114
2025-12-31T16:23:46.864929,9.413364,-5.776273,6.326622,-0.673173,2.135584,2.930930
2025-12-31T16:23:46.873929,9.274580,-6.513263,6.192624,-0.941954,2.326174,3.084868
2025-12-31T16:23:46.883929,9.020941,-7.221538,6.652046,-1.178969,2.502103,3.207041
2025-12-31T16:23:46.893929,8.638089,-8.245666,6.814758,-1.308473,2.561968,3.292562
2025-12-31T16:23:46.902929,8.331808,-8.906085,6.915257,-1.110552,2.514320,3.359758
2025-12-31T16:23:46.912929,8.164310,-9.107082,7.087540,-0.880867,2.397034,3.459939
2025-12-31T16:23:46.922929,8.073383,-9.097511,7.776673,-0.670729,2.280970,3.562565
2025-12-31T16:23:46.931929,8.183453,-8.997012,8.614161,-0.427605,2.250427,3.649308
2025-12-31T16:23:46.941929,8.312665,-8.968299,8.307880,-0.177150,2.331061,3.706729
2025-12-31T16:23:46.950929,7.958527,-8.886943,7.834101,0.002443,2.554637,3.737272
2025-12-31T16:23:46.960929,7.542176,-9.403792,7.953742,-0.191811,2.794097,3.758042
2025-12-31T16:23:46.970929,6.910471,-10.447063,8.106882,-0.223576,3.003012,3.760485
2025-12-31T16:23:46.979929,6.001199,-10.839486,8.130811,0.213802,3.149620,3.705507
2025-12-31T16:23:46.989929,4.938785,-10.561918,8.461020,0.731816,3.178942,3.597995
2025-12-31T16:23:46.998929,4.053441,-9.958927,9.236295,1.337794,3.071429,3.420844
2025-12-31T16:23:47.008929,3.474378,-8.829515,9.978070,1.998750,2.836857,3.197267
2025-12-31T16:23:47.018929,3.292523,-7.322037,10.021141,2.393369,2.516764,2.972469
2025-12-31T16:23:47.027929,3.517449,-6.187839,9.576076,2.415360,2.197892,2.776992
2025-12-31T16:23:47.037929,3.996013,-5.388636,8.709874,2.235766,1.960877,2.596176
2025-12-31T16:23:47.047929,4.235296,-4.919643,8.441878,1.775174,1.841147,2.397034
2025-12-31T16:23:47.056929,4.153940,-5.393422,8.212167,1.067792,1.844812,2.161240
2025-12-31T16:23:47.066929,3.680161,-6.522834,8.949156,0.364075,1.949881,1.861916
2025-12-31T16:23:47.075929,2.904886,-8.130811,10.322636,-0.381179,2.032959,1.533271
2025-12-31T16:23:47.085929,2.134397,-10.336993,11.590832,-1.092226,1.969429,1.205847
2025-12-31T16:23:47.095929,1.555334,-12.662817,11.944970,-1.512502,1.737300,0.894306
2025-12-31T16:23:47.104929,1.234696,-14.639288,11.858828,-1.716530,1.418428,0.588873
2025-12-31T16:23:47.114929,1.201196,-16.433905,11.562118,-1.872912,1.072679,0.259006
2025-12-31T16:23:47.123929,1.182054,-17.845671,10.748559,-1.874134,0.764803,-0.146607
2025-12-31T16:23:47.133929,0.985842,-18.343378,10.045069,-1.765400,0.486248,-0.653625
2025-12-31T16:23:47.143929,0.674775,-18.137594,10.092925,-1.797165,0.169820,-1.233947
2025-12-31T16:23:47.152929,0.741775,-18.510876,10.858628,-2.197892,-0.265115,-1.795943
2025-12-31T16:23:47.162929,1.536192,-19.807785,11.337193,-2.687806,-0.841772,-2.185675
2025-12-31T16:23:47.172929,3.096312,-20.970697,10.853843,-2.624276,-1.396437,-2.389704
2025-12-31T16:23:47.181929,4.819144,-21.253050,10.939984,-2.023185,-1.767843,-2.492329
2025-12-31T16:23:47.191929,6.226124,-20.913269,11.452048,-1.102000,-1.832595,-2.557081
2025-12-31T16:23:47.200929,6.728617,-19.625931,11.590832,0.166155,-1.567479,-2.588846
2025-12-31T16:23:47.210929,6.020341,-16.261621,11.203195,1.572366,-1.150869,-2.555859
2025-12-31T16:23:47.220929,4.488935,-11.906685,10.351350,2.514320,-0.906523,-2.471560
2025-12-31T16:23:47.229929,3.115455,-8.307880,9.671788,2.543642,-0.996931,-2.371378
2025-12-31T16:23:47.239929,2.297109,-6.206981,9.370293,1.848477,-1.357342,-2.276083
2025-12-31T16:23:47.248929,2.086541,-4.651647,9.054440,1.098335,-1.844812,-2.204001
2025-12-31T16:23:47.258929,2.493321,-3.158525,8.508877,0.327423,-2.337169,-2.172236
2025-12-31T16:23:47.268929,3.426521,-2.517249,7.810172,-0.717155,-2.741562,-2.218662
2025-12-31T16:23:47.277929,4.527220,-3.316452,6.838686,-1.772730,-2.955365,-2.364047
2025-12-31T16:23:47.287929,5.575276,-4.800002,5.862415,-2.434908,-2.941926,-2.616946
2025-12-31T16:23:47.297929,6.417550,-6.709474,4.766502,-2.714684,-2.756223,-2.939482
2025-12-31T16:23:47.306929,7.331608,-9.145367,3.838087,-2.880839,-2.488664,-3.274236
2025-12-31T16:23:47.316929,8.298308,-12.696316,2.971885,-3.110525,-2.262644,-3.516139
2025-12-31T16:23:47.325929,9.422935,-16.357334,2.493321,-2.734232,-2.142914,-3.557678
2025-12-31T16:23:47.335929,10.188638,-18.142380,2.522035,-1.292590,-2.051285,-3.474600
2025-12-31T16:23:47.345929,10.255637,-17.309677,2.837887,0.768468,-1.875355,-3.458718
2025-12-31T16:23:47.354929,9.671788,-14.184652,3.512663,2.625498,-1.607796,-3.500257
2025-12-31T16:23:47.364929,8.432306,-10.317851,4.077369,3.897319,-1.391550,-3.473379
2025-12-31T16:23:47.373929,7.235895,-6.422335,3.871586,4.580266,-1.264490,-3.371975
2025-12-31T16:23:47.383929,6.053841,-3.206382,3.158525,4.542392,-1.248608,-3.290119
2025-12-31T16:23:47.393929,5.101497,-1.052841,2.364108,3.898541,-1.374446,-3.292562
2025-12-31T16:23:47.402929,4.599005,0.535992,2.507678,3.044551,-1.651779,-3.371975
2025-12-31T16:23:47.412929,4.522434,1.651047,2.909672,1.997528,-2.094045,-3.428175
2025-12-31T16:23:47.422929,5.115854,1.631905,3.637090,0.707381,-2.665815,-3.396410
2025-12-31T16:23:47.431929,6.321837,0.512064,3.512663,-0.463035,-3.292562,-3.337766
2025-12-31T16:23:47.441929,8.207381,-0.650847,2.665604,-1.141096,-3.821572,-3.302336
2025-12-31T16:23:47.450929,10.332207,-1.593619,2.407179,-1.514945,-4.075692,-3.287676
2025-12-31T16:23:47.460929,12.375678,-2.995813,2.254038,-1.720196,-3.988949,-3.362201
2025-12-31T16:23:47.470929,14.050654,-4.374079,1.938186,-1.617570,-3.522248,-3.491704
2025-12-31T16:23:47.479929,14.648859,-5.125426,1.588834,-1.237612,-2.776992,-3.560121
2025-12-31T16:23:47.489929,14.141581,-5.192425,1.574477,-0.745255,-1.997528,-3.530800
2025-12-31T16:23:47.498929,12.710673,-4.661218,1.976471,-0.298102,-1.403768,-3.461161
2025-12-31T16:23:47.508929,11.021340,-3.981656,2.191825,0.052534,-1.083674,-3.387857
2025-12-31T16:23:47.518929,9.403792,-3.134597,2.067398,0.313984,-1.049466,-3.309667
2025-12-31T16:23:47.527929,8.106882,-2.292324,2.139183,0.469144,-1.216843,-3.220480
2025-12-31T16:23:47.537929,7.355536,-1.646261,2.364108,0.497244,-1.483180,-3.115412
2025-12-31T16:23:47.547929,7.054041,-1.368694,2.349751,0.425162,-1.753182,-3.005456
2025-12-31T16:23:47.556929,7.082754,-1.220339,2.019542,0.351858,-1.963320,-2.901609
2025-12-31T16:23:47.566929,7.369893,-1.071984,1.665404,0.287106,-2.067167,-2.792875
2025-12-31T16:23:47.575929,7.623532,-0.823130,1.363908,0.161268,-2.064724,-2.698802
2025-12-31T16:23:47.585929,7.829315,-0.827916,1.277767,0.017104,-1.981646,-2.592511
2025-12-31T16:23:47.595929,7.972884,-0.765703,1.450050,-0.084299,-1.868025,-2.453234
2025-12-31T16:23:47.604929,8.059026,-0.904486,1.727617,-0.173485,-1.729969,-2.296852
2025-12-31T16:23:47.614929,8.044669,-1.210768,2.163111,-0.222354,-1.547932,-2.127032
2025-12-31T16:23:47.623929,7.867600,-1.612762,2.311466,-0.144164,-1.276708,-1.935220
2025-12-31T16:23:47.633929,7.331608,-1.674975,2.067398,0.091629,-0.894306,-1.766621
2025-12-31T16:23:47.643929,6.422335,-1.397408,2.009970,0.328645,-0.460592,-1.612683
2025-12-31T16:23:47.652929,5.345565,-0.990628,1.660618,0.529009,-0.098960,-1.442863
2025-12-31T16:23:47.662929,4.134797,-0.387637,1.138983,0.681725,0.129503,-1.302364
2025-12-31T16:23:47.672929,3.067598,0.411565,0.526420,0.670729,0.235793,-1.196073
2025-12-31T16:23:47.681929,2.129612,0.923629,0.612562,0.469144,0.233350,-1.093448
2025-12-31T16:23:47.691929,1.249053,1.091127,1.124626,0.174707,0.105068,-0.984714
2025-12-31T16:23:47.700929,0.713061,1.014556,1.406979,-0.084299,-0.134390,-0.907745
2025-12-31T16:23:47.710929,0.646062,0.693918,1.899901,-0.241902,-0.382401,-0.866206
2025-12-31T16:23:47.720929,0.957129,0.311066,2.210968,-0.340862,-0.610865,-0.807563
2025-12-31T16:23:47.729929,1.450050,0.009571,2.210968,-0.386066,-0.796568,-0.790459
2025-12-31T16:23:47.739929,2.273181,-0.191425,2.330609,-0.434935,-0.907745,-0.801455
2025-12-31T16:23:47.748929,3.134597,-0.421136,2.589034,-0.492357,-0.985936,-0.788015
2025-12-31T16:23:47.758929,4.106083,-0.631705,2.545963,-0.478918,-1.006705,-0.774576
2025-12-31T16:23:47.768929,4.914857,-0.550349,2.522035,-0.425162,-0.904080,-0.755029
2025-12-31T16:23:47.777929,5.517848,-0.583848,2.541177,-0.416610,-0.692721,-0.722042
2025-12-31T16:23:47.787929,5.915057,-0.713061,2.641676,-0.461814,-0.444709,-0.670729
2025-12-31T16:23:47.797929,6.029912,-0.957129,2.507678,-0.485026,-0.216246,-0.610865
2025-12-31T16:23:47.806929,6.082555,-1.196411,2.306680,-0.510683,-0.067195,-0.560774
2025-12-31T16:23:47.816929,6.326622,-1.545763,2.330609,-0.559552,-0.050090,-0.514348
2025-12-31T16:23:47.825929,6.704688,-1.928615,2.392822,-0.568104,-0.162490,-0.464257
2025-12-31T16:23:47.835929,7.456035,-1.971685,2.598605,-0.482583,-0.373849,-0.427605
2025-12-31T16:23:47.845929,8.618947,-1.703689,2.727817,-0.372627,-0.623082,-0.381179
2025-12-31T16:23:47.854929,10.131210,-1.148554,2.522035,-0.327423,-0.829554,-0.302989
2025-12-31T16:23:47.864929,11.787044,-0.464207,1.861615,-0.377514,-0.875980,-0.210137
2025-12-31T16:23:47.873929,13.270594,0.320638,1.277767,-0.581543,-0.700051,-0.085521
2025-12-31T16:23:47.883929,13.978869,0.803988,1.306481,-0.962723,-0.326201,0.069638
2025-12-31T16:23:47.893929,14.017154,0.650847,1.588834,-1.430646,0.152716,0.217467
2025-12-31T16:23:47.902929,13.155738,-0.105284,1.741974,-1.795943,0.647517,0.387288
2025-12-31T16:23:47.912929,11.830114,-1.067198,1.847259,-1.909564,1.047022,0.544891
2025-12-31T16:23:47.922929,10.289137,-1.986042,2.038684,-1.793499,1.285260,0.668286
2025-12-31T16:23:47.931929,8.891728,-2.699103,1.995614,-1.534493,1.336572,0.799011
2025-12-31T16:23:47.941929,7.700103,-3.196810,1.761117,-1.160643,1.247386,0.957836
2025-12-31T16:23:47.950929,6.867400,-3.330809,1.478764,-0.728151,1.087339,1.119104
2025-12-31T16:23:47.960929,6.216553,-3.077169,1.225125,-0.278554,0.910189,1.269377
2025-12-31T16:23:47.970929,5.781059,-2.761317,0.985842,0.120951,0.739146,1.368337
2025-12-31T16:23:47.979929,5.508277,-2.325823,0.890130,0.432492,0.605978,1.445306
2025-12-31T16:23:47.989929,5.249852,-1.981257,0.760917,0.704938,0.532674,1.508836
2025-12-31T16:23:47.998929,4.981856,-1.536192,0.746560,0.957836,0.499687,1.555262
2025-12-31T16:23:48.008929,4.637290,-0.942772,0.995414,1.161865,0.508239,1.566258
2025-12-31T16:23:48.018929,4.297509,-0.397208,1.277767,1.260825,0.557108,1.544267
2025-12-31T16:23:48.027929,3.952942,-0.062213,1.402194,1.273042,0.663399,1.523497
2025-12-31T16:23:48.037929,3.464807,0.454636,1.397408,1.227838,0.840550,1.534493
2025-12-31T16:23:48.047929,2.900100,0.851844,1.335195,1.075122,1.070235,1.577253
2025-12-31T16:23:48.056929,2.167897,0.942772,1.469193,0.807563,1.287703,1.633453
2025-12-31T16:23:48.066929,1.631905,0.736989,1.440479,0.497244,1.393994,1.711644
2025-12-31T16:23:48.075929,1.268195,0.291924,1.383051,0.217467,1.348790,1.813047
2025-12-31T16:23:48.085929,1.287338,-0.258424,1.191625,0.006108,1.178969,1.942551
2025-12-31T16:23:48.095929,1.627119,-0.923629,1.004985,-0.073303,0.973718,2.070832
2025-12-31T16:23:48.104929,2.201396,-1.397408,1.014556,0.031764,0.818559,2.166127
2025-12-31T16:23:48.114929,2.900100,-1.665404,1.071984,0.245567,0.753807,2.245540
2025-12-31T16:23:48.123929,3.608376,-1.588834,1.105484,0.442266,0.751364,2.339613
2025-12-31T16:23:48.133929,4.230510,-1.612762,1.244267,0.537561,0.784350,2.454456
2025-12-31T16:23:48.143929,4.828716,-1.430907,1.277767,0.520457,0.827111,2.583959
2025-12-31T16:23:48.152929,5.379065,-1.454836,1.354337,0.455705,0.884532,2.726901
2025-12-31T16:23:48.162929,5.919843,-1.464407,1.282552,0.386066,0.984714,2.856405
2025-12-31T16:23:48.172929,6.293123,-1.737189,1.459621,0.294436,1.105665,2.957808
2025-12-31T16:23:48.181929,6.800401,-2.120040,1.713260,0.219911,1.207069,3.068986
2025-12-31T16:23:48.191929,7.140182,-2.488535,1.741974,0.291993,1.295034,3.187494
2025-12-31T16:23:48.200929,7.470392,-2.493321,1.914258,0.379958,1.386663,3.320662
2025-12-31T16:23:48.210929,7.795816,-2.550748,2.282752,0.342084,1.452637,3.468492
2025-12-31T16:23:48.220929,8.059026,-2.651247,2.632104,0.237015,1.506393,3.619986
2025-12-31T16:23:48.229929,8.365307,-3.029313,2.732603,0.096516,1.598023,3.743381
2025-12-31T16:23:48.239929,8.618947,-3.632304,2.689532,0.009773,1.761734,3.787363
2025-12-31T16:23:48.248929,8.571090,-4.412364,2.359323,0.136833,2.017076,3.722611
2025-12-31T16:23:48.258929,8.465806,-5.192425,2.651247,0.458148,2.278526,3.584556
2025-12-31T16:23:48.268929,8.398807,-6.245266,4.096512,0.635299,2.439795,3.451387
2025-12-31T16:23:48.277929,8.484948,-7.714460,5.986842,0.747698,2.526538,3.348762
2025-12-31T16:23:48.287929,8.575876,-8.561519,7.417750,1.123991,2.592511,3.285232
2025-12-31T16:23:48.297929,8.437092,-7.939385,7.274180,1.769065,2.587624,3.246137
2025-12-31T16:23:48.306929,8.159525,-5.848058,6.144768,2.256535,2.438573,3.251024
2025-12-31T16:23:48.316929,7.867600,-3.608376,5.737988,2.190562,2.210109,3.296228
2025-12-31T16:23:48.325929,7.743173,-2.172682,5.685346,1.599244,2.047619,3.357314
2025-12-31T16:23:48.335929,7.872386,-1.607976,5.991627,0.766024,2.041511,3.411070
2025-12-31T16:23:48.345929,8.025527,-1.842473,6.900900,-0.311541,2.174679,3.446500
2025-12-31T16:23:48.354929,8.255237,-3.704089,8.216952,-1.659109,2.323730,3.474600
2025-12-31T16:23:48.364929,8.470592,-6.996613,8.963513,-2.761110,2.368934,3.519804
2025-12-31T16:23:48.373929,8.733802,-9.954142,9.030512,-3.095864,2.312735,3.616321
2025-12-31T16:23:48.383929,8.618947,-11.935399,8.623732,-2.791653,2.206444,3.734829
2025-12-31T16:23:48.393929,8.322237,-12.725030,7.992027,-2.193005,2.113593,3.822793
2025-12-31T16:23:48.402929,7.819744,-12.495319,7.312465,-1.500284,2.018298,3.838676
2025-12-31T16:23:48.412929,7.436892,-11.327622,6.699903,-0.806341,1.941329,3.820350
2025-12-31T16:23:48.422929,6.915257,-9.958927,5.642275,-0.362853,1.920559,3.808133
2025-12-31T16:23:48.431929,6.331408,-9.772287,4.465006,-0.510683,1.877799,3.756820
2025-12-31T16:23:48.441929,5.991627,-11.413763,4.278366,-0.941954,1.804495,3.640756
2025-12-31T16:23:48.450929,5.852844,-13.366307,5.355136,-0.908967,1.740965,3.479487
2025-12-31T16:23:48.460929,5.469992,-14.146367,6.618547,-0.306654,1.657887,3.260797
2025-12-31T16:23:48.470929,4.924428,-13.854442,7.604390,0.470366,1.518610,2.955365
2025-12-31T16:23:48.479929,4.465006,-12.409178,8.786444,1.199739,1.308473,2.630385
2025-12-31T16:23:48.489929,4.364508,-9.949356,9.547362,1.649335,1.040914,2.326174
2025-12-31T16:23:48.498929,4.670789,-7.800601,9.499505,1.378111,0.747698,2.076941
2025-12-31T16:23:48.508929,5.374279,-7.197610,9.054440,0.467922,0.538783,1.860695
2025-12-31T16:23:48.518929,5.962913,-8.082954,8.843872,-0.685390,0.527787,1.588249
2025-12-31T16:23:48.527929,6.388836,-10.829915,8.652446,-1.946216,0.752585,1.236390
2025-12-31T16:23:48.537929,6.283552,-14.859428,8.379664,-2.894278,1.161865,0.841772
2025-12-31T16:23:48.547929,5.312066,-18.635302,9.064012,-3.138624,1.577253,0.389731
2025-12-31T16:23:48.556929,3.737588,-21.343977,9.901499,-2.875952,1.820378,-0.120951
2025-12-31T16:23:48.566929,2.009970,-22.569101,10.001998,-2.372600,1.729969,-0.647517
2025-12-31T16:23:48.575929,0.440279,-22.315462,10.068997,-1.897347,1.295034,-1.159421
2025-12-31T16:23:48.585929,-0.440279,-21.434904,10.619346,-1.694539,0.609643,-1.681100
2025-12-31T16:23:48.595929,-0.052642,-20.530416,11.083554,-1.770287,-0.219911,-2.180788
2025-12-31T16:23:48.604929,1.698904,-20.214565,10.403992,-2.062280,-1.060461,-2.548529
2025-12-31T16:23:48.614929,4.350151,-21.300905,10.289137,-2.410473,-1.704313,-2.659706
2025-12-31T16:23:48.623929,7.188039,-23.808584,11.188838,-2.605950,-2.036624,-2.530203
2025-12-31T16:23:48.633929,9.667003,-26.565117,11.954541,-2.050063,-1.908342,-2.290744
2025-12-31T16:23:48.643929,10.963913,-28.326233,11.700902,-0.609643,-1.137430,-2.019520
2025-12-31T16:23:48.652929,10.054640,-27.661030,10.217352,1.275486,0.127059,-1.738522
2025-12-31T16:23:48.662929,7.240681,-25.081566,7.834101,3.331658,1.463632,-1.479515
2025-12-31T16:23:48.672929,3.177668,-20.372492,7.322037,4.927238,2.218662,-1.397659
2025-12-31T16:23:48.681929,-0.488135,-15.821343,7.886743,5.701814,2.089158,-1.521054
2025-12-31T16:23:48.691929,-2.833101,-11.820543,7.977670,5.997473,1.242499,-1.706757
2025-12-31T16:23:48.700929,-3.751945,-7.939385,7.173682,6.091546,0.102625,-1.839925
2025-12-31T16:23:48.710929,-3.321237,-4.259224,6.087340,5.700593,-1.029918,-1.915672
2025-12-31T16:23:48.720929,-2.115255,-1.421336,5.245067,4.594927,-2.043954,-1.940107
2025-12-31T16:23:48.729929,-0.363709,0.602991,5.053641,2.988352,-2.927265,-1.912007
2025-12-31T16:23:48.739929,1.617548,1.478764,5.249852,1.232725,-3.662747,-1.860695
2025-12-31T16:23:48.748929,4.168296,1.383051,5.000999,-0.427605,-4.161213,-1.811825
2025-12-31T16:23:48.758929,6.589833,-0.339780,4.445864,-2.032959,-4.291938,-1.890016
2025-12-31T16:23:48.768929,8.398807,-3.479164,3.565305,-3.089755,-4.075692,-2.207666
2025-12-31T16:23:48.777929,9.781858,-6.278766,2.474178,-3.227811,-3.597995,-2.750114
2025-12-31T16:23:48.787929,10.911271,-8.551947,2.014756,-2.875952,-2.828305,-3.242472
2025-12-31T16:23:48.797929,10.853843,-10.643274,1.521835,-1.986533,-1.921781,-3.572339
2025-12-31T16:23:48.806929,9.954142,-11.050054,1.320838,-0.587652,-1.171639,-3.825237
2025-12-31T16:23:48.816929,8.245666,-9.820143,0.827916,0.873537,-0.767246,-4.024379
2025-12-31T16:23:48.825929,6.632904,-7.623532,0.363709,2.128254,-0.796568,-4.203973
2025-12-31T16:23:48.835929,5.479563,-5.240281,0.143569,2.852740,-1.181413,-4.353024
2025-12-31T16:23:48.845929,4.828716,-3.239881,-0.607776,3.232698,-1.756848,-4.476419
2025-12-31T16:23:48.854929,4.666004,-1.119840,-1.335195,3.458718,-2.357939,-4.579044
2025-12-31T16:23:48.864929,5.044070,1.421336,-2.397608,3.214372,-2.950478,-4.662122
2025-12-31T16:23:48.873929,5.651846,2.234896,-0.703489,2.415360,-3.561343,-4.747643
2025-12-31T16:23:48.883929,7.264609,2.392822,1.651047,1.579697,-4.346916,-4.866151
2025-12-31T16:23:48.893929,10.241280,2.239681,2.909672,0.851545,-5.105610,-4.894251
2025-12-31T16:23:48.902929,13.964512,1.560120,2.426322,0.189368,-5.573533,-4.822168
2025-12-31T16:23:48.912929,17.529818,0.856630,1.804188,-0.199142,-5.624845,-4.783073
2025-12-31T16:23:48.922929,20.185850,0.263210,1.177268,-0.431270,-5.211901,-4.784295
2025-12-31T16:23:48.931929,20.827127,-0.631705,-0.205782,-0.679282,-4.405559,-4.732982
2025-12-31T16:23:48.941929,19.965712,-1.454836,-0.693918,-0.777020,-3.543017,-4.608366
2025-12-31T16:23:48.950929,17.989241,-1.909472,-0.244067,-0.729372,-2.811201,-4.464202
2025-12-31T16:23:48.960929,16.055840,-1.875972,-0.057427,-0.664621,-2.398256,-4.335920
2025-12-31T16:23:48.970929,14.610574,-2.072184,0.617348,-0.602312,-2.210109,-4.202751
2025-12-31T16:23:48.979929,13.375878,-2.287538,1.679761,-0.480139,-2.167349,-4.021935
2025-12-31T16:23:48.989929,12.519247,-2.565105,2.139183,-0.282219,-2.134362,-3.760485
2025-12-31T16:23:48.998929,11.629117,-2.622533,2.258824,0.021991,-1.955990,-3.434283
2025-12-31T16:23:49.008929,10.614561,-2.560320,2.474178,0.302989,-1.611462,-3.062877
2025-12-31T16:23:49.018929,9.312865,-2.550748,2.445464,0.505796,-1.149648,-2.669480
2025-12-31T16:23:49.027929,7.843672,-2.488535,2.096112,0.703716,-0.691499,-2.279748
2025-12-31T16:23:49.037929,6.082555,-2.062613,1.828116,0.924849,-0.333532,-1.892460
2025-12-31T16:23:49.047929,4.407579,-1.311266,1.722832,1.061683,-0.153938,-1.555262
2025-12-31T16:23:49.056929,2.880958,-0.550349,1.722832,1.028696,-0.149051,-1.295034
2025-12-31T16:23:49.066929,1.660618,0.133998,1.497906,0.860098,-0.273667,-1.083674
2025-12-31T16:23:49.075929,0.751346,0.732203,1.440479,0.592539,-0.456927,-0.872315
2025-12-31T16:23:49.085929,0.076570,1.775474,1.330409,0.173485,-0.703716,-0.665842
2025-12-31T16:23:49.095929,-0.133998,2.794816,1.550549,-0.460592,-0.981049,-0.505796
2025-12-31T16:23:49.104929,0.129212,2.794816,2.914457,-1.259603,-1.243721,-0.337197
2025-12-31T16:23:49.114929,1.124626,2.115255,3.239881,-1.944994,-1.436754,-0.254119
2025-12-31T16:23:49.123929,2.502892,1.043270,2.502892,-2.430021,-1.335351,-0.270002
2025-12-31T16:23:49.133929,3.378665,-0.334995,2.038684,-2.712241,-0.927293,-0.304210
2025-12-31T16:23:49.143929,3.383451,-1.445264,1.674975,-2.762332,-0.346971,-0.332310
2025-12-31T16:23:49.152929,2.746960,-2.536391,2.273181,-2.631606,0.265115,-0.367740
2025-12-31T16:23:49.162929,1.526620,-3.684946,2.804388,-2.298074,0.691499,-0.412944
2025-12-31T16:23:49.172929,0.454636,-4.173082,2.488535,-1.706757,0.868650,-0.444709
2025-12-31T16:23:49.181929,-0.526420,-3.866801,2.187039,-1.036027,0.845437,-0.454483
2025-12-31T16:23:49.191929,-1.028913,-3.249453,2.321037,-0.521678,0.566882,-0.474031
2025-12-31T16:23:49.200929,-0.890130,-2.440679,2.297109,-0.179594,0.061086,-0.493579
2025-12-31T16:23:49.210929,0.023928,-1.545763,2.043470,0.059864,-0.492357,-0.511904
2025-12-31T16:23:49.220929,1.311266,-0.550349,2.134397,0.092851,-0.928514,-0.558330
2025-12-31T16:23:49.229929,2.986242,0.138783,2.392822,-0.085521,-1.260825,-0.648738
2025-12-31T16:23:49.239929,4.948357,0.387637,2.723032,-0.329867,-1.500284,-0.748920
2025-12-31T16:23:49.248929,7.255038,0.535992,3.000599,-0.583987,-1.683544,-0.849102
2025-12-31T16:23:49.258929,9.925428,0.440279,2.799602,-0.845437,-1.871690,-0.926071
2025-12-31T16:23:49.268929,13.012169,0.315852,2.239681,-1.042135,-2.009746,-0.933401
2025-12-31T16:23:49.277929,15.964912,0.129212,1.464407,-1.249830,-1.871690,-0.891863
2025-12-31T16:23:49.287929,18.032310,-0.172283,1.426122,-1.455080,-1.379333,-0.812450
2025-12-31T16:23:49.297929,18.252451,-0.593420,1.957328,-1.535714,-0.572991,-0.731816
2025-12-31T16:23:49.306929,16.414762,-1.282552,2.474178,-1.490510,0.388510,-0.676838
2025-12-31T16:23:49.316929,13.667802,-1.885544,2.641676,-1.319468,1.178969,-0.587652
2025-12-31T16:23:49.325929,10.892128,-2.545963,3.220739,-1.058018,1.617570,-0.401949
2025-12-31T16:23:49.335929,8.585447,-3.335594,2.976671,-0.708603,1.670105,-0.184481
2025-12-31T16:23:49.345929,6.943971,-3.948157,1.923829,-0.189368,1.503949,0.051312
2025-12-31T16:23:49.354929,5.790630,-3.962514,1.182054,0.445931,1.233947,0.293215
2025-12-31T16:23:49.364929,5.111069,-3.354737,0.904486,1.044579,0.878424,0.486248
2025-12-31T16:23:49.373929,4.905286,-2.421536,0.885344,1.521054,0.470366,0.610865
2025-12-31T16:23:49.383929,5.235495,-1.383051,1.048056,1.811825,0.062308,0.709825
2025-12-31T16:23:49.393929,6.010770,-0.220139,1.062413,1.882686,-0.265115,0.808785
2025-12-31T16:23:49.402929,7.020541,0.674775,0.995414,1.744630,-0.421496,0.888197
2025-12-31T16:23:49.412929,8.188238,1.445264,1.110269,1.514945,-0.376292,0.951727
2025-12-31T16:23:49.422929,9.217152,1.962114,1.450050,1.159421,-0.189368,1.014036
2025-12-31T16:23:49.431929,9.786644,1.655833,1.402194,0.665842,0.041538,1.075122
2025-12-31T16:23:49.441929,10.030712,0.933200,0.971485,0.251676,0.342084,1.158200
2025-12-31T16:23:49.450929,9.571290,0.086141,0.775274,-0.002443,0.676838,1.244943
2025-12-31T16:23:49.460929,8.719445,-0.588634,0.387637,-0.114842,0.950506,1.313359
2025-12-31T16:23:49.470929,7.585247,-1.258624,0.263210,-0.087964,1.160643,1.413541
2025-12-31T16:23:49.479929,6.364908,-1.718046,0.315852,0.089186,1.242499,1.516167
2025-12-31T16:23:49.489929,5.173282,-1.928615,0.339780,0.342084,1.174082,1.611462
2025-12-31T16:23:49.498929,4.254438,-1.789831,0.296710,0.649960,0.998153,1.720196
2025-12-31T16:23:49.508929,3.570091,-1.282552,0.200997,0.971275,0.822224,1.813047
2025-12-31T16:23:49.518929,2.928814,-0.631705,-0.009571,1.194852,0.763581,1.857029
2025-12-31T16:23:49.527929,2.244467,0.177068,-0.181854,1.262047,0.835663,1.890016
2025-12-31T16:23:49.537929,1.253839,0.937986,-0.148355,1.221730,0.973718,1.953546
2025-12-31T16:23:49.547929,0.172283,1.584048,0.512064,1.062905,1.083674,2.018298
2025-12-31T16:23:49.556929,-0.751346,1.598405,1.210768,0.772133,1.094670,2.064724
2025-12-31T16:23:49.566929,-0.966700,1.052841,1.239482,0.536339,1.020144,2.070832
2025-12-31T16:23:49.575929,-0.689132,0.378065,1.526620,0.433714,0.915075,2.083050
2025-12-31T16:23:49.585929,0.038285,-0.100498,1.713260,0.389731,0.752585,2.113593
2025-12-31T16:23:49.595929,1.000199,-0.684347,1.354337,0.368962,0.551000,2.118480
2025-12-31T16:23:49.604929,2.029113,-1.009771,0.847059,0.470366,0.386066,2.086715
2025-12-31T16:23:49.614929,2.986242,-1.052841,0.684347,0.703716,0.335975,2.030515
2025-12-31T16:23:49.623929,4.034298,-0.880558,1.215553,0.971275,0.322536,1.909564
2025-12-31T16:23:49.633929,5.158925,-0.674775,2.129612,1.072679,0.211359,1.788613
2025-12-31T16:23:49.643929,6.829115,-0.650847,2.991028,1.076344,0.001221,1.728748
2025-12-31T16:23:49.652929,9.035298,-0.583848,2.957528,0.989601,-0.188146,1.753182
2025-12-31T16:23:49.662929,11.710473,-0.406779,2.191825,0.792902,-0.235793,1.888794
2025-12-31T16:23:49.672929,14.352149,-0.229710,1.794616,0.588873,-0.025656,2.111149
2025-12-31T16:23:49.681929,16.433905,0.229710,1.871187,0.365297,0.525343,2.329839
2025-12-31T16:23:49.691929,17.367105,0.334995,1.215553,0.013439,1.375668,2.508212
2025-12-31T16:23:49.700929,16.869398,0.004785,0.799202,-0.309097,2.361604,2.698802
2025-12-31T16:23:49.710929,15.074782,-0.354137,1.665404,-0.604756,3.204598,2.970026
2025-12-31T16:23:49.720929,12.954741,-1.048056,2.679961,-0.933401,3.720168,3.275458
2025-12-31T16:23:49.729929,11.102696,-1.818545,3.125026,-1.097113,3.877771,3.560121
2025-12-31T16:23:49.739929,9.604789,-2.268395,3.584448,-1.100778,3.753155,3.800802
2025-12-31T16:23:49.748929,8.580661,-2.641676,3.785445,-1.123991,3.441614,3.944966
2025-12-31T16:23:49.758929,8.288737,-3.397808,3.766302,-1.121548,3.067764,3.979175
2025-12-31T16:23:49.768929,8.475377,-4.340580,4.000799,-0.919962,2.724458,3.982840
2025-12-31T16:23:49.777929,9.001798,-5.115854,4.201796,-0.583987,2.416582,3.984062
2025-12-31T16:23:49.787929,9.820143,-5.958128,4.575076,-0.233350,2.152688,3.974288
2025-12-31T16:23:49.797929,10.729416,-6.867400,4.551148,0.097738,1.957211,3.951075
2025-12-31T16:23:49.806929,11.720045,-7.518248,4.742574,0.514348,1.883908,3.931527
2025-12-31T16:23:49.816929,12.318250,-7.858029,4.747360,0.976162,1.925446,3.919310
2025-12-31T16:23:49.825929,12.672388,-7.724031,4.622933,1.458745,2.042732,3.908314
2025-12-31T16:23:49.835929,12.528819,-7.288537,4.618147,1.915672,2.175901,3.863110
2025-12-31T16:23:49.845929,12.189038,-6.498906,4.862215,2.279748,2.293187,3.758042
2025-12-31T16:23:49.854929,11.734402,-5.733202,5.240281,2.535090,2.400699,3.640756
2025-12-31T16:23:49.864929,11.404192,-4.881358,5.647061,2.651154,2.483777,3.582113
2025-12-31T16:23:49.873929,11.121839,-4.225724,6.336194,2.403143,2.543642,3.618764
2025-12-31T16:23:49.883929,10.758130,-4.254438,6.384050,1.883908,2.587624,3.682294
2025-12-31T16:23:49.893929,10.246066,-4.335794,6.254838,1.343903,2.647489,3.695733
2025-12-31T16:23:49.902929,9.466006,-4.508077,6.111268,0.768468,2.695136,3.645642
2025-12-31T16:23:49.912929,8.437092,-4.948357,6.135197,0.185702,2.700023,3.546682
2025-12-31T16:23:49.922929,7.527819,-5.991627,6.695117,-0.405614,2.623054,3.415957
2025-12-31T16:23:49.931929,6.829115,-7.183253,7.336394,-0.896749,2.454456,3.293784
2025-12-31T16:23:49.941929,6.379265,-8.236095,7.762316,-1.177747,2.222327,3.182607
2025-12-31T16:23:49.950929,6.096911,-8.977870,7.819744,-1.260825,1.938885,3.032334
2025-12-31T16:23:49.960929,6.221338,-9.427721,7.891528,-1.191186,1.661553,2.871066
2025-12-31T16:23:49.970929,6.518048,-10.035497,8.331808,-1.227838,1.374446,2.761110
2025-12-31T16:23:49.979929,6.924828,-10.490134,8.245666,-1.254716,1.141096,2.704910
2025-12-31T16:23:49.989929,7.063612,-10.619346,7.767102,-1.273042,1.078787,2.626719
2025-12-31T16:23:49.998929,6.647261,-10.576275,7.925028,-1.407433,1.186300,2.433686
2025-12-31T16:23:50.008929,5.833701,-10.825129,9.351150,-1.710422,1.367116,2.076941
2025-12-31T16:23:50.018929,4.656432,-11.901899,10.442277,-2.100154,1.516167,1.610240
2025-12-31T16:23:50.027929,3.316452,-13.438091,10.509276,-2.455677,1.556484,1.099557
2025-12-31T16:23:50.037929,1.995614,-15.036497,10.025926,-2.803870,1.389107,0.554665
2025-12-31T16:23:50.047929,1.330409,-16.945969,9.518648,-3.108081,0.963945,-0.015882
2025-12-31T16:23:50.056929,1.373480,-18.754944,8.484948,-3.182607,0.320093,-0.598647
2025-12-31T16:23:50.066929,2.053041,-19.807785,8.202595,-2.998125,-0.466700,-1.139874
2025-12-31T16:23:50.075929,3.436093,-20.243279,8.910871,-2.775771,-1.242499,-1.585805
2025-12-31T16:23:50.085929,5.407779,-20.372492,9.911071,-2.682919,-1.876577,-1.925446
2025-12-31T16:23:50.095929,7.484749,-20.334206,10.657631,-2.634050,-2.256535,-2.153910
2025-12-31T16:23:50.104929,9.403792,-20.075781,11.021340,-2.591289,-2.337169,-2.246761
2025-12-31T16:23:50.114929,10.849057,-19.956141,10.796415,-2.603507,-2.098932,-2.261422
2025-12-31T16:23:50.123929,11.643474,-20.573488,10.193424,-2.680476,-1.610240,-2.277305
2025-12-31T16:23:50.133929,11.676974,-21.884754,9.418149,-2.636493,-1.021366,-2.280970
2025-12-31T16:23:50.143929,10.676774,-22.861027,8.068597,-1.833817,-0.443488,-2.289522
2025-12-31T16:23:50.152929,8.925228,-22.076181,6.742974,-0.279776,0.009773,-2.404365
2025-12-31T16:23:50.162929,7.054041,-19.745571,6.594619,1.369559,0.244346,-2.619389
2025-12-31T16:23:50.172929,5.345565,-17.070396,7.235895,2.477668,0.210137,-2.847853
2025-12-31T16:23:50.181929,4.230510,-15.041282,8.039883,2.918713,-0.161268,-2.995682
2025-12-31T16:23:50.191929,3.976871,-13.021740,8.571090,3.073873,-0.748920,-2.979800
2025-12-31T16:23:50.200929,4.259224,-10.097711,8.662017,3.270571,-1.375668,-2.866179
2025-12-31T16:23:50.210929,4.790430,-6.604190,8.221738,3.122742,-1.901012,-2.785544
2025-12-31T16:23:50.220929,5.541777,-3.675375,7.460820,2.349387,-2.249205,-2.751336
2025-12-31T16:23:50.229929,6.369693,-2.110469,5.934200,1.226617,-2.321287,-2.784323
2025-12-31T16:23:50.239929,6.996613,-1.607976,4.828716,-0.003665,-2.058615,-2.875952
2025-12-31T16:23:50.248929,7.130611,-2.632104,4.086941,-1.265712,-1.622457,-3.028669
2025-12-31T16:23:50.258929,6.943971,-5.067998,3.345165,-2.026850,-1.203404,-3.303558
2025-12-31T16:23:50.268929,6.719045,-7.724031,3.297309,-2.194227,-0.923628,-3.661525
2025-12-31T16:23:50.277929,6.781259,-10.327422,3.297309,-1.981646,-0.857654,-3.925419
2025-12-31T16:23:50.287929,6.881757,-12.500105,3.316452,-1.218065,-0.978605,-4.014605
2025-12-31T16:23:50.297929,7.073183,-12.806386,3.235096,0.149051,-1.224173,-4.036596
2025-12-31T16:23:50.306929,7.341179,-10.968698,3.005385,1.666440,-1.519832,-4.089131
2025-12-31T16:23:50.316929,7.680960,-8.006384,2.555534,2.791653,-1.769065,-4.123339
2025-12-31T16:23:50.325929,7.925028,-5.206781,2.057827,3.296228,-1.920559,-4.095239
2025-12-31T16:23:50.335929,8.173882,-3.029313,1.296909,3.269350,-1.958433,-4.050035
2025-12-31T16:23:50.345929,8.389236,-1.493121,0.650847,2.836857,-1.946216,-4.072026
2025-12-31T16:23:50.354929,8.705088,-0.727418,0.325423,2.064724,-1.960877,-4.146552
2025-12-31T16:23:50.364929,8.934799,-0.684347,0.421136,1.241277,-2.040289,-4.199086
2025-12-31T16:23:50.373929,9.064012,-0.961914,0.411565,0.612086,-2.191784,-4.207638
2025-12-31T16:23:50.383929,9.308079,-1.292124,0.081355,0.151494,-2.387260,-4.218634
2025-12-31T16:23:50.393929,9.595218,-1.655833,0.138783,-0.096516,-2.563190,-4.267503
2025-12-31T16:23:50.402929,10.092925,-1.832902,0.751346,-0.167377,-2.684141,-4.316372
2025-12-31T16:23:50.412929,10.691131,-1.928615,1.129412,-0.200363,-2.748893,-4.317594
2025-12-31T16:23:50.422929,11.370692,-1.923829,1.086341,-0.193033,-2.742784,-4.250399
2025-12-31T16:23:50.431929,11.882757,-1.521835,0.808774,-0.218689,-2.703688,-4.127004
2025-12-31T16:23:50.441929,12.447463,-1.119840,0.358923,-0.331088,-2.657263,-3.955962
2025-12-31T16:23:50.450929,12.868599,-0.813559,0.066999,-0.513126,-2.533868,-3.755598
2025-12-31T16:23:50.460929,12.863814,-0.698704,0.129212,-0.700051,-2.268753,-3.545461
2025-12-31T16:23:50.470929,12.442677,-0.870987,0.258424,-0.874758,-1.875355,-3.370753
2025-12-31T16:23:50.479929,11.547761,-1.263410,0.004785,-0.981049,-1.414763,-3.225367
2025-12-31T16:23:50.489929,10.284351,-1.660618,-0.062213,-0.928514,-0.966388,-3.059212
2025-12-31T16:23:50.498929,8.781658,-1.890329,0.526420,-0.846659,-0.619417,-2.836857
2025-12-31T16:23:50.508929,7.293323,-2.431107,1.100698,-0.777020,-0.372627,-2.572963
2025-12-31T16:23:50.518929,5.857629,-2.761317,1.253839,-0.594982,-0.174707,-2.293187
2025-12-31T16:23:50.527929,4.436293,-2.737389,1.239482,-0.329867,0.029321,-1.988976
2025-12-31T16:23:50.537929,2.900100,-2.340180,1.296909,-0.128281,0.250454,-1.681100
2025-12-31T16:23:50.547929,1.450050,-2.043470,1.392622,-0.045204,0.439822,-1.417207
2025-12-31T16:23:50.556929,-0.043070,-1.651047,1.450050,-0.008552,0.521678,-1.200960
2025-12-31T16:23:50.566929,-1.344766,-1.210768,1.612762,-0.020769,0.449596,-1.029918
2025-12-31T16:23:50.575929,-2.148754,-0.842273,1.584048,-0.134390,0.189368,-0.917519
2025-12-31T16:23:50.585929,-2.388036,-0.579063,1.531406,-0.300545,-0.211359,-0.853989
2025-12-31T16:23:50.595929,-1.866401,-0.397208,1.646261,-0.499687,-0.659734,-0.789237
2025-12-31T16:23:50.604929,-0.947557,-0.397208,1.942971,-0.759916,-1.039692,-0.703716
2025-12-31T16:23:50.614929,0.200997,-0.703489,2.383251,-0.970053,-1.260825,-0.626747
2025-12-31T16:23:50.623929,1.507478,-1.086341,2.770888,-1.116661,-1.291368,-0.594982
2025-12-31T16:23:50.633929,2.660818,-1.493121,2.713460,-1.199739,-1.125213,-0.580321
2025-12-31T16:23:50.643929,3.498306,-1.828116,2.737389,-1.197295,-0.762359,-0.551000
2025-12-31T16:23:50.652929,3.651447,-2.057827,2.723032,-1.187521,-0.304210,-0.469144
2025-12-31T16:23:50.662929,3.297309,-2.196611,2.435893,-1.164308,0.128281,-0.390953
2025-12-31T16:23:50.672929,2.589034,-2.249253,2.383251,-1.130100,0.450818,-0.324980
2025-12-31T16:23:50.681929,1.914258,-2.421536,2.632104,-1.097113,0.546113,-0.261450
2025-12-31T16:23:50.691929,1.698904,-2.589034,2.699103,-1.037248,0.351858,-0.216246
2025-12-31T16:23:50.700929,2.220539,-2.770888,2.541177,-0.891863,-0.048869,-0.195476
2025-12-31T16:23:50.710929,3.259024,-2.895315,2.435893,-0.747698,-0.505796,-0.194255
2025-12-31T16:23:50.720929,4.795216,-3.058027,2.483749,-0.632856,-0.934623,-0.201585
2025-12-31T16:23:50.729929,6.637689,-3.206382,2.536391,-0.505796,-1.321912,-0.217467
2025-12-31T16:23:50.739929,8.944370,-3.153740,2.100898,-0.370184,-1.649335,-0.252898
2025-12-31T16:23:50.748929,11.428120,-3.091526,1.737189,-0.250454,-1.836260,-0.311541
2025-12-31T16:23:50.758929,14.031511,-3.139383,1.440479,-0.111177,-1.853364,-0.332310
2025-12-31T16:23:50.768929,16.414762,-3.129811,1.234696,0.086742,-1.648114,-0.278554
2025-12-31T16:23:50.777929,17.496319,-2.904886,1.301695,0.318871,-1.104444,-0.238237
2025-12-31T16:23:50.787929,16.821543,-2.349751,1.785045,0.558330,-0.172263,-0.175929
2025-12-31T16:23:50.797929,14.356935,-1.804188,2.459821,0.750142,0.955393,-0.021991
2025-12-31T16:23:50.806929,10.844272,-1.215553,2.703889,0.869871,1.888794,0.166155
2025-12-31T16:23:50.816929,7.293323,-0.976271,2.675175,0.888197,2.397034,0.371405
2025-12-31T16:23:50.825929,4.311866,-1.115055,2.067398,0.829554,2.555859,0.618195
2025-12-31T16:23:50.835929,1.670190,-1.392622,1.402194,0.800233,2.547307,0.889419
2025-12-31T16:23:50.845929,-0.617348,-1.411765,0.851844,0.796568,2.450790,1.117883
2025-12-31T16:23:50.854929,-2.426322,-1.416550,0.301495,0.774576,2.188118,1.254716
2025-12-31T16:23:50.864929,-3.369094,-1.335195,-0.253639,0.747698,1.660331,1.292590
2025-12-31T16:23:50.873929,-3.239881,-1.167697,-0.277567,0.700051,0.902858,1.302364
2025-12-31T16:23:50.883929,-2.177468,-1.124626,-0.114855,0.569326,0.092851,1.341459
2025-12-31T16:23:50.893929,-0.555134,-1.172483,0.090927,0.395840,-0.524122,1.406211
2025-12-31T16:23:50.902929,1.292124,-1.071984,0.277567,0.285884,-0.790459,1.474628
2025-12-31T16:23:50.912929,2.890529,-0.923629,0.574277,0.175929,-0.704938,1.549153
2025-12-31T16:23:50.922929,4.134797,-0.837487,0.866201,-0.003665,-0.400727,1.639561
2025-12-31T16:23:50.931929,4.814359,-1.019342,0.808774,-0.204028,0.018325,1.754404
2025-12-31T16:23:50.941929,5.020141,-1.129412,0.818345,-0.354301,0.454483,1.908342
2025-12-31T16:23:50.950929,4.756931,-1.191625,0.847059,-0.518013,0.827111,2.084271
2025-12-31T16:23:50.960929,4.264009,-1.512263,0.823130,-0.671951,1.083674,2.256535
2025-12-31T16:23:50.970929,3.699303,-1.775474,0.933200,-0.723264,1.216843,2.420247
2025-12-31T16:23:50.979929,3.215953,-1.837687,1.000199,-0.764803,1.236390,2.588846
2025-12-31T16:23:50.989929,2.818745,-2.024327,0.966700,-0.758694,1.165530,2.775771
2025-12-31T16:23:50.998929,2.799602,-2.048256,0.937986,-0.520457,1.058018,2.930930
2025-12-31T16:23:51.008929,2.895315,-1.966900,1.201196,-0.252898,0.950506,3.026225
2025-12-31T16:23:51.018929,3.244667,-2.359323,1.344766,-0.174707,0.827111,3.133738
2025-12-31T16:23:51.027929,3.885943,-3.148954,1.320838,-0.103847,0.737925,3.315775
2025-12-31T16:23:51.037929,4.479363,-3.780659,1.435693,0.092851,0.696386,3.524691
2025-12-31T16:23:51.047929,5.091926,-4.220939,1.627119,0.338419,0.653625,3.689625
2025-12-31T16:23:51.056929,5.761916,-4.579862,1.703689,0.686612,0.616973,3.803246
2025-12-31T16:23:51.066929,6.355336,-4.421936,2.301895,1.222951,0.613308,3.860667
2025-12-31T16:23:51.075929,7.121040,-3.799802,3.378665,1.688431,0.676838,3.860667
2025-12-31T16:23:51.085929,7.877171,-3.469592,3.986442,1.881464,0.801455,3.781255
2025-12-31T16:23:51.095929,8.767302,-3.163311,3.857230,1.907120,0.979827,3.689625
2025-12-31T16:23:51.104929,9.446863,-2.550748,3.096312,1.879021,1.161865,3.645642
2025-12-31T16:23:51.114929,10.030712,-1.885544,2.536391,1.648114,1.244943,3.619986
2025-12-31T16:23:51.123929,10.858628,-1.904686,2.981456,0.950506,1.176526,3.594330
2025-12-31T16:23:51.133929,12.045468,-3.230310,3.790230,0.018325,1.043357,3.623651
2025-12-31T16:23:51.143929,13.447663,-5.235495,4.675575,-0.713490,0.996931,3.725055
2025-12-31T16:23:51.152929,14.773286,-7.527819,5.747559,-1.193630,1.076344,3.811798
2025-12-31T16:23:51.162929,16.242479,-10.169496,7.192824,-1.367116,1.251051,3.842341
2025-12-31T16:23:51.172929,17.601603,-12.801600,8.149953,-1.059240,1.495397,3.866776
2025-12-31T16:23:51.181929,18.539589,-14.538790,8.054240,-0.223576,1.789834,3.957184
2025-12-31T16:23:51.191929,18.539589,-14.610574,6.991827,0.890641,2.122145,4.095239
2025-12-31T16:23:51.200929,17.816957,-13.112667,5.570491,1.832595,2.428799,4.201530
2025-12-31T16:23:51.210929,16.548761,-10.983055,4.575076,2.445903,2.701245,4.254064
2025-12-31T16:23:51.220929,14.955141,-8.752945,4.565505,2.707354,2.973691,4.282164
2025-12-31T16:23:51.229929,13.265808,-6.996613,5.163711,2.566855,3.209485,4.287051
2025-12-31T16:23:51.239929,11.720045,-5.857629,6.187839,2.222327,3.368310,4.211304
2025-12-31T16:23:51.248929,10.356136,-5.111069,7.412964,1.780060,3.387857,4.047592
2025-12-31T16:23:51.258929,9.456434,-5.125426,8.054240,1.263269,3.241250,3.816685
2025-12-31T16:23:51.268929,8.700302,-6.173482,8.767302,0.675616,3.006678,3.583334
2025-12-31T16:23:51.277929,8.164310,-7.757530,9.384650,0.260228,2.750114,3.396410
2025-12-31T16:23:51.287929,7.690531,-8.757730,9.647860,0.059864,2.484999,3.235141
2025-12-31T16:23:51.297929,7.417750,-9.279366,9.269794,-0.119729,2.217440,3.068986
2025-12-31T16:23:51.306929,7.121040,-9.489934,8.489734,-0.290771,1.937664,2.933374
2025-12-31T16:23:51.316929,6.714260,-9.226723,7.795816,-0.552222,1.656666,2.816088
2025-12-31T16:23:51.325929,6.345765,-9.896714,7.637889,-1.248608,1.373224,2.640159
2025-12-31T16:23:51.335929,6.173482,-11.734402,8.930013,-2.076941,1.130100,2.360382
2025-12-31T16:23:51.345929,6.154339,-14.438291,10.916056,-2.722014,0.910189,2.013411
2025-12-31T16:23:51.354929,6.604190,-17.797813,11.767901,-3.172833,0.659734,1.632231
2025-12-31T16:23:51.364929,7.393821,-21.186050,11.595618,-3.134959,0.397062,1.197295
2025-12-31T16:23:51.373929,8.336593,-23.502302,11.040483,-2.615724,0.114842,0.664621
2025-12-31T16:23:51.383929,9.351150,-24.569502,9.710074,-1.914451,-0.182037,0.061086
2025-12-31T16:23:51.393929,10.078568,-24.071795,8.432306,-1.160643,-0.422718,-0.547335
2025-12-31T16:23:51.402929,10.461420,-21.860826,8.245666,-0.491135,-0.588873,-1.106887
2025-12-31T16:23:51.412929,10.380064,-18.884155,8.240881,-0.301767,-0.751364,-1.535714
2025-12-31T16:23:51.422929,10.327422,-16.668402,8.188238,-0.708603,-0.988379,-1.813047
2025-12-31T16:23:51.431929,10.700702,-15.850056,8.571090,-1.494176,-1.213178,-1.984089
2025-12-31T16:23:51.441929,11.609975,-16.950754,9.805787,-2.410473,-1.384220,-2.069610
2025-12-31T16:23:51.450929,12.820743,-19.692928,10.772487,-2.797762,-1.363450,-2.100154
2025-12-31T16:23:51.460929,13.399806,-22.037895,10.504491,-2.078163,-1.017701,-2.146580
2025-12-31T16:23:51.470929,13.026526,-22.703100,9.303294,-0.529009,-0.387288,-2.191784
2025-12-31T16:23:51.479929,11.538190,-22.071396,7.795816,0.983492,0.348193,-2.164905
2025-12-31T16:23:51.489929,9.131011,-20.736200,6.144768,2.386039,0.952949,-2.081828
2025-12-31T16:23:51.498929,6.197410,-17.903097,5.493920,3.858224,1.229060,-2.057393
2025-12-31T16:23:51.508929,3.503092,-14.036297,5.623133,4.922351,1.027475,-2.150245
2025-12-31T16:23:51.518929,1.746760,-10.719845,6.192624,5.161810,0.349414,-2.290744
2025-12-31T16:23:51.527929,1.038485,-8.298308,6.790830,4.916242,-0.623082,-2.355495
2025-12-31T16:23:51.537929,1.383051,-6.072983,7.101897,4.588818,-1.633453,-2.313957
2025-12-31T16:23:51.547929,2.617747,-3.905086,6.757331,3.963292,-2.532646,-2.202779
2025-12-31T16:23:51.556929,4.321437,-2.622533,5.938985,2.952921,-3.191159,-2.076941
2025-12-31T16:23:51.566929,6.020341,-2.359323,4.905286,1.762956,-3.483152,-1.993863
2025-12-31T16:23:51.575929,7.422535,-2.981456,3.866801,0.671951,-3.401296,-2.004859
2025-12-31T16:23:51.585929,8.240881,-3.890729,3.311666,-0.028099,-2.999347,-2.117258
2025-12-31T16:23:51.595929,8.413164,-4.613361,3.182454,-0.388510,-2.441016,-2.272418
2025-12-31T16:23:51.604929,7.810172,-5.111069,3.053241,-0.503352,-1.899790,-2.406808
2025-12-31T16:23:51.614929,6.652046,-5.206781,2.569891,-0.415388,-1.530827,-2.528981
2025-12-31T16:23:51.623929,5.335994,-4.833501,2.273181,-0.171042,-1.391550,-2.698802
2025-12-31T16:23:51.633929,4.235296,-4.292723,2.857030,0.076969,-1.466076,-2.911383
2025-12-31T16:23:51.643929,3.388236,-4.019941,3.943371,0.191811,-1.784947,-3.092199
2025-12-31T16:23:51.652929,3.249453,-3.742374,4.019941,0.273667,-2.312735,-3.194824
2025-12-31T16:23:51.662929,3.919443,-3.211167,3.125026,0.387288,-2.905274,-3.238806
2025-12-31T16:23:51.672929,5.053641,-2.545963,2.220539,0.328645,-3.439170,-3.284010
2025-12-31T16:23:51.681929,6.508477,-2.287538,1.660618,0.160046,-3.841119,-3.392744
2025-12-31T16:23:51.691929,8.006384,-2.354537,1.282552,0.087964,-4.028044,-3.528356
2025-12-31T16:23:51.700929,9.341579,-2.129612,0.957129,0.112399,-3.946188,-3.634647
2025-12-31T16:23:51.710929,10.193424,-1.837687,0.473778,0.124616,-3.649308,-3.707951
2025-12-31T16:23:51.720929,10.485348,-1.411765,-0.009571,0.063529,-3.221702,-3.783698
2025-12-31T16:23:51.729929,10.375278,-0.952343,-0.177068,-0.108733,-2.800205,-3.860667
2025-12-31T16:23:51.739929,9.963713,-0.760917,0.110069,-0.411723,-2.503325,-3.907093
2025-12-31T16:23:51.748929,9.355936,-0.813559,0.378065,-0.729372,-2.379930,-3.914423
2025-12-31T16:23:51.758929,8.901300,-0.842273,0.492921,-0.957836,-2.437351,-3.907093
2025-12-31T16:23:51.768929,8.695517,-0.741775,0.373280,-1.159421,-2.636493,-3.859445
2025-12-31T16:23:51.777929,8.877371,-0.789631,0.301495,-1.326799,-2.889391,-3.753155
2025-12-31T16:23:51.787929,9.389435,-0.847059,0.224925,-1.457524,-3.103194,-3.589443
2025-12-31T16:23:51.797929,10.107282,-0.981057,0.124426,-1.555262,-3.170389,-3.400075
2025-12-31T16:23:51.806929,10.767701,-0.990628,0.277567,-1.650557,-3.026225,-3.229032
2025-12-31T16:23:51.816929,11.260623,-1.244267,0.382851,-1.720196,-2.667037,-3.077538
2025-12-31T16:23:51.825929,11.298908,-1.560120,0.368494,-1.714087,-2.129475,-2.932152
2025-12-31T16:23:51.835929,10.638489,-1.789831,0.248853,-1.616349,-1.500284,-2.796540
2025-12-31T16:23:51.845929,9.389435,-1.895115,0.191425,-1.485623,-0.891863,-2.658484
2025-12-31T16:23:51.854929,7.814958,-2.019542,0.282353,-1.364672,-0.421496,-2.510655
2025-12-31T16:23:51.864929,6.178267,-2.091326,0.425922,-1.197295,-0.123394,-2.365269
2025-12-31T16:23:51.873929,4.737788,-2.277967,0.827916,-1.040914,0.017104,-2.219883
2025-12-31T16:23:51.883929,3.445664,-2.526820,1.043270,-0.879645,0.015882,-2.053728
2025-12-31T16:23:51.893929,2.517249,-2.813959,1.167697,-0.630412,-0.089186,-1.866803
2025-12-31T16:23:51.902929,1.871187,-2.612962,1.540977,-0.252898,-0.245567,-1.681100
2025-12-31T16:23:51.912929,1.588834,-2.306680,1.799402,0.109955,-0.403170,-1.557706
2025-12-31T16:23:51.922929,1.560120,-1.832902,1.392622,0.370184,-0.513126,-1.484402
2025-12-31T16:23:51.931929,1.536192,-1.134197,0.961914,0.586430,-0.559552,-1.375668
2025-12-31T16:23:51.941929,1.459621,-0.196211,1.062413,0.642630,-0.565661,-1.258382
2025-12-31T16:23:51.950929,1.301695,0.535992,1.828116,0.436157,-0.571769,-1.164308
2025-12-31T16:23:51.960929,1.167697,0.622133,2.536391,0.114842,-0.623082,-1.088561
2025-12-31T16:23:51.970929,1.220339,0.636490,3.134597,-0.161268,-0.681725,-1.016479
2025-12-31T16:23:51.979929,1.588834,0.368494,3.641875,-0.414166,-0.729372,-0.937067
2025-12-31T16:23:51.989929,2.201396,-0.167497,3.929014,-0.692721,-0.786794,-0.851545
2025-12-31T16:23:51.998929,3.110669,-0.947557,3.885943,-0.880867,-0.849102,-0.758694
2025-12-31T16:23:52.008929,4.158725,-1.579262,3.522234,-0.900415,-0.868650,-0.662177
2025-12-31T16:23:52.018929,5.158925,-2.143969,3.326023,-0.838106,-0.829554,-0.576656
2025-12-31T16:23:52.027929,6.173482,-2.579462,3.000599,-0.739146,-0.751364,-0.496022
2025-12-31T16:23:52.037929,6.886543,-2.794816,2.713460,-0.547335,-0.626747,-0.425162
2025-12-31T16:23:52.047929,7.556533,-2.775674,2.603390,-0.364075,-0.497244,-0.382401
2025-12-31T16:23:52.056929,8.154739,-2.684746,2.512463,-0.245567,-0.437379,-0.337197
2025-12-31T16:23:52.066929,8.886943,-2.531606,2.507678,-0.122173,-0.469144,-0.288328
2025-12-31T16:23:52.075929,9.805787,-2.287538,2.459821,-0.003665,-0.585208,-0.228463
2025-12-31T16:23:52.085929,10.901699,-1.962114,2.062613,0.085521,-0.713490,-0.162490
2025-12-31T16:23:52.095929,11.944970,-1.722832,2.100898,0.145385,-0.715933,-0.075747
2025-12-31T16:23:52.104929,12.557533,-1.497906,2.301895,0.173485,-0.486248,0.067195
2025-12-31T16:23:52.114929,12.413963,-1.349551,2.378465,0.193033,0.001221,0.260228
2025-12-31T16:23:52.123929,11.279765,-1.249053,2.431107,0.199142,0.647517,0.494800
2025-12-31T16:23:52.133929,9.384650,-1.220339,2.277967,0.206472,1.268155,0.745255
2025-12-31T16:23:52.143929,7.322037,-1.177268,2.316252,0.232128,1.734856,1.004262
2025-12-31T16:23:52.152929,5.091926,-1.354337,2.388036,0.282219,2.006081,1.260825
2025-12-31T16:23:52.162929,3.244667,-1.564905,2.244467,0.362853,2.135584,1.516167
2025-12-31T16:23:52.172929,1.689332,-1.689332,1.507478,0.469144,2.160019,1.753182
2025-12-31T16:23:52.181929,0.492921,-1.473978,0.741775,0.568104,2.067167,1.940107
2025-12-31T16:23:52.191929,-0.296710,-1.086341,0.267996,0.590095,1.847256,2.102597
2025-12-31T16:23:52.200929,-0.808774,-0.770488,0.267996,0.504574,1.529606,2.272418
2025-12-31T16:23:52.210929,-0.923629,-0.622133,0.521635,0.372627,1.193630,2.444682
2025-12-31T16:23:52.220929,-0.713061,-0.569491,1.076770,0.235793,0.937067,2.610837
2025-12-31T16:23:52.229929,-0.220139,-0.708275,1.354337,0.031764,0.807563,2.735453
2025-12-31T16:23:52.239929,0.512064,-1.191625,1.172483,-0.184481,0.810007,2.772105
2025-12-31T16:23:52.248929,1.320838,-1.526620,1.143769,-0.359188,0.885754,2.785544
2025-12-31T16:23:52.258929,1.875972,-1.976471,0.981057,-0.577878,0.908967,2.833192
2025-12-31T16:23:52.268929,2.354537,-2.699103,0.765703,-0.759916,0.875980,2.890613
2025-12-31T16:23:52.277929,2.713460,-3.225524,0.971485,-0.788015,0.861319,2.941926
2025-12-31T16:23:52.287929,2.876172,-3.464807,1.373480,-0.652403,0.874758,2.966360
2025-12-31T16:23:52.297929,2.900100,-3.397808,1.694118,-0.428827,0.910189,2.966360
2025-12-31T16:23:52.306929,3.024527,-2.890529,2.249253,-0.144164,0.963945,2.970026
2025-12-31T16:23:52.316929,3.192025,-2.230110,2.842673,-0.008552,1.023809,2.968804
2025-12-31T16:23:52.325929,3.699303,-2.086541,2.646461,-0.123394,1.076344,2.962695
2025-12-31T16:23:52.335929,4.264009,-2.569891,1.799402,-0.365297,1.159421,3.000569
2025-12-31T16:23:52.345929,4.785645,-3.259024,1.526620,-0.670729,1.235169,3.128851
2025-12-31T16:23:52.354929,5.249852,-4.436293,1.780260,-0.945619,1.233947,3.335323
2025-12-31T16:23:52.364929,5.618347,-5.694917,2.244467,-0.967610,1.138652,3.549126
2025-12-31T16:23:52.373929,6.254838,-6.556333,3.163311,-0.601091,0.978605,3.709172
2025-12-31T16:23:52.383929,7.278966,-6.915257,4.517649,0.000000,0.817337,3.770259
2025-12-31T16:23:52.393929,8.528019,-7.015755,4.919643,0.659734,0.731816,3.734829
2025-12-31T16:23:52.402929,9.911071,-6.608976,4.378865,1.384220,0.781907,3.695733
2025-12-31T16:23:52.412929,11.246266,-5.469992,3.795016,1.976759,0.967610,3.710394
2025-12-31T16:23:52.422929,12.241680,-4.369294,3.718446,2.134362,1.199739,3.759263
2025-12-31T16:23:52.431929,13.227523,-4.091726,4.005585,1.923003,1.417207,3.799580
2025-12-31T16:23:52.441929,14.289936,-4.345365,4.082155,1.595579,1.643227,3.835011
2025-12-31T16:23:52.450929,14.979069,-4.953142,3.929014,1.304807,1.890016,3.887545
2025-12-31T16:23:52.460929,15.309278,-5.757131,3.804587,1.061683,2.111149,3.922975
2025-12-31T16:23:52.470929,15.213566,-6.762116,4.259224,0.912632,2.317622,3.910758
2025-12-31T16:23:52.479929,14.811571,-7.877171,5.230710,0.861319,2.526538,3.878993
2025-12-31T16:23:52.489929,14.222937,-8.882157,5.972485,0.924849,2.679254,3.876549
2025-12-31T16:23:52.498929,13.476376,-9.159724,6.149554,1.205847,2.746449,3.938858
2025-12-31T16:23:52.508929,12.658031,-8.877371,6.125625,1.398881,2.691471,4.014605
2025-12-31T16:23:52.518929,12.198609,-8.757730,6.230910,1.314581,2.527759,4.023157
2025-12-31T16:23:52.527929,12.232109,-9.126225,6.025127,1.132543,2.294409,3.966958
2025-12-31T16:23:52.537929,12.495319,-9.485148,5.149354,1.069013,2.067167,3.913201
2025-12-31T16:23:52.547929,12.787243,-9.509077,4.211367,1.136209,1.915672,3.826459
2025-12-31T16:23:52.556929,12.863814,-9.403792,4.019941,1.115439,1.888794,3.682294
2025-12-31T16:23:52.566929,12.624532,-9.480363,4.450650,1.016479,2.012189,3.519804
2025-12-31T16:23:52.575929,11.978469,-9.389435,5.005784,0.937067,2.225992,3.374418
2025-12-31T16:23:52.585929,11.064411,-8.872586,5.685346,0.886976,2.406808,3.240028
2025-12-31T16:23:52.595929,9.901499,-8.307880,6.498906,0.675616,2.497216,3.088534
2025-12-31T16:23:52.604929,8.757730,-8.513662,7.345965,0.200363,2.487442,2.902831
2025-12-31T16:23:52.614929,7.566105,-9.317651,8.121239,-0.272445,2.416582,2.689028
2025-12-31T16:23:52.623929,6.589833,-10.226923,9.265009,-0.599869,2.302961,2.448347
2025-12-31T16:23:52.633929,5.694917,-11.495119,10.695917,-0.995710,2.100154,2.174679
2025-12-31T16:23:52.643929,5.398207,-13.442877,12.145967,-1.489289,1.780060,1.882686
2025-12-31T16:23:52.652929,5.704489,-16.103697,13.332807,-1.787391,1.361007,1.605353
2025-12-31T16:23:52.662929,6.628118,-18.501305,13.466805,-1.699426,0.901636,1.328020
2025-12-31T16:23:52.672929,7.747959,-20.233707,12.815957,-1.213178,0.546113,1.036027
2025-12-31T16:23:52.681929,8.298308,-20.678772,11.093125,-0.531452,0.430049,0.686612
2025-12-31T16:23:52.691929,7.977670,-20.219351,9.982855,-0.118507,0.444709,0.239459
2025-12-31T16:23:52.700929,7.168896,-19.501505,11.399406,-0.061086,0.445931,-0.291993
2025-12-31T16:23:52.710929,5.891129,-18.850657,14.146367,-0.295658,0.283441,-0.871093
2025-12-31T16:23:52.720929,5.120640,-18.496517,16.534405,-0.871093,-0.237015,-1.409876
2025-12-31T16:23:52.729929,6.077769,-19.305292,17.711672,-1.728748,-1.084896,-1.759291
2025-12-31T16:23:52.739929,8.968299,-21.262621,17.362320,-2.531425,-1.966985,-1.863138
2025-12-31T16:23:52.748929,12.323036,-23.267805,16.098909,-2.544864,-2.445903,-1.797165
2025-12-31T16:23:52.758929,14.821143,-23.770300,14.419148,-1.700648,-2.247983,-1.638340
2025-12-31T16:23:52.768929,15.495919,-22.942383,11.930613,-0.485026,-1.409876,-1.425759
2025-12-31T16:23:52.777929,13.811372,-20.855841,9.418149,0.831998,-0.224798,-1.175304
2025-12-31T16:23:52.787929,10.375278,-17.687744,7.685746,2.062280,0.874758,-0.941954
2025-12-31T16:23:52.797929,6.245266,-14.366506,6.747759,2.863735,1.461189,-0.840550
2025-12-31T16:23:52.806929,2.560320,-11.629117,5.953342,3.273015,1.375668,-0.939510
2025-12-31T16:23:52.816929,-0.320638,-9.174081,5.240281,3.497813,0.745255,-1.167974
2025-12-31T16:23:52.825929,-2.115255,-7.101897,4.316651,3.551569,-0.235793,-1.425759
2025-12-31T16:23:52.835929,-2.703889,-5.273781,3.158525,3.470935,-1.365894,-1.693318
2025-12-31T16:23:52.845929,-2.321037,-3.474378,2.593819,3.255911,-2.453234,-1.970650
2025-12-31T16:23:52.854929,-1.091127,-1.785045,3.244667,2.822196,-3.489261,-2.216218
2025-12-31T16:23:52.864929,1.000199,-0.751346,5.130211,2.045176,-4.498410,-2.381152
2025-12-31T16:23:52.873929,4.091726,-0.770488,6.288337,1.042135,-5.412264,-2.458121
2025-12-31T16:23:52.883929,8.149953,-1.703689,5.383850,0.133168,-5.991365,-2.483777
2025-12-31T16:23:52.893929,12.342178,-2.775674,3.517449,-0.529009,-5.936387,-2.511877
2025-12-31T16:23:52.902929,15.505490,-3.948157,1.670190,-1.023809,-5.194796,-2.593733
2025-12-31T16:23:52.912929,17.127825,-5.029713,0.349352,-1.306029,-3.918088,-2.745227
2025-12-31T16:23:52.922929,16.658831,-5.857629,-0.090927,-1.329242,-2.334726,-2.885726
2025-12-31T16:23:52.931929,14.232508,-6.120840,0.693918,-1.098335,-0.745255,-2.966360
2025-12-31T16:23:52.941929,10.762916,-5.627918,1.995614,-0.928514,0.403170,-3.065321
2025-12-31T16:23:52.950929,7.068397,-5.216353,2.622533,-0.882089,0.955393,-3.260797
2025-12-31T16:23:52.960929,3.890729,-5.034498,2.909672,-0.781907,0.910189,-3.514917
2025-12-31T16:23:52.970929,1.526620,-4.852644,3.282952,-0.707381,0.371405,-3.726277
2025-12-31T16:23:52.979929,0.143569,-4.728217,3.220739,-0.597426,-0.540004,-3.847228
2025-12-31T16:23:52.989929,-0.033499,-4.412364,2.469392,-0.445931,-1.678657,-3.904649
2025-12-31T16:23:52.998929,1.153340,-3.632304,1.402194,-0.268780,-2.838079,-3.958405
2025-12-31T16:23:53.008929,3.029313,-2.770888,0.894915,-0.197920,-3.813020,-4.008496
2025-12-31T16:23:53.018929,5.254638,-1.952543,0.942772,-0.262671,-4.504519,-4.053700
2025-12-31T16:23:53.027929,7.594818,-1.392622,1.048056,-0.340862,-4.851490,-4.114787
2025-12-31T16:23:53.037929,10.011569,-0.612562,1.277767,-0.444709,-4.823390,-4.150217
2025-12-31T16:23:53.047929,12.131610,-0.205782,0.856630,-0.720820,-4.421441,-4.138000
2025-12-31T16:23:53.056929,13.356735,-0.057427,0.229710,-1.081231,-3.717725,-4.135556
2025-12-31T16:23:53.066929,13.629517,-0.258424,0.162711,-1.514945,-2.919935,-4.183204
2025-12-31T16:23:53.075929,13.141381,-1.019342,0.607776,-1.920559,-2.234544,-4.216190
2025-12-31T16:23:53.085929,12.083754,-1.971685,1.009771,-2.118480,-1.749517,-4.206417
2025-12-31T16:23:53.095929,10.829915,-2.837887,1.091127,-2.092823,-1.479515,-4.170986
2025-12-31T16:23:53.104929,9.777073,-3.393022,0.885344,-1.931555,-1.389107,-4.102570
2025-12-31T16:23:53.114929,8.968299,-3.680161,0.717846,-1.695761,-1.424537,-4.001166
2025-12-31T16:23:53.123929,8.374879,-3.766302,0.454636,-1.404989,-1.527162,-3.839898
2025-12-31T16:23:53.133929,7.891528,-3.565305,0.320638,-1.038470,-1.604131,-3.619986
2025-12-31T16:23:53.143929,7.508677,-2.986242,0.646062,-0.685390,-1.582140,-3.374418
2025-12-31T16:23:53.152929,6.987041,-2.411965,1.253839,-0.464257,-1.446528,-3.121520
2025-12-31T16:23:53.162929,6.211767,-2.163111,2.033899,-0.366519,-1.209512,-2.862513
2025-12-31T16:23:53.172929,5.412564,-1.952543,2.455035,-0.354301,-0.917519,-2.602285
2025-12-31T16:23:53.181929,4.532006,-1.770688,2.354537,-0.382401,-0.656069,-2.348165
2025-12-31T16:23:53.191929,3.723231,-1.770688,2.005185,-0.444709,-0.509461,-2.102597
2025-12-31T16:23:53.200929,3.062812,-1.904686,1.971685,-0.508239,-0.486248,-1.860695
2025-12-31T16:23:53.210929,2.450250,-2.177468,2.354537,-0.505796,-0.537561,-1.643227
2025-12-31T16:23:53.220929,2.100898,-2.593819,2.976671,-0.365297,-0.619417,-1.475850
2025-12-31T16:23:53.229929,2.129612,-2.723032,3.201596,-0.140498,-0.697607,-1.342681
2025-12-31T16:23:53.239929,2.397608,-2.469392,2.775674,0.118507,-0.723264,-1.211956
2025-12-31T16:23:53.248929,2.593819,-1.837687,2.392822,0.301767,-0.668286,-1.081231
2025-12-31T16:23:53.258929,2.699103,-1.205982,2.464607,0.291993,-0.603534,-0.938288
2025-12-31T16:23:53.268929,2.799602,-0.837487,2.684746,0.158824,-0.564439,-0.789237
2025-12-31T16:23:53.277929,2.852244,-0.708275,3.163311,0.009773,-0.544891,-0.643851
2025-12-31T16:23:53.287929,3.024527,-0.837487,3.598805,-0.185702,-0.542448,-0.500909
2025-12-31T16:23:53.297929,3.474378,-1.225125,3.613162,-0.342084,-0.505796,-0.357966
2025-12-31T16:23:53.306929,3.967299,-1.684547,3.646661,-0.373849,-0.437379,-0.206472
2025-12-31T16:23:53.316929,4.522434,-1.981257,3.704089,-0.313984,-0.378736,-0.054977
2025-12-31T16:23:53.325929,5.091926,-2.206182,3.469592,-0.177150,-0.327423,0.069638
2025-12-31T16:23:53.335929,5.632704,-2.206182,3.230310,0.023212,-0.293215,0.161268
2025-12-31T16:23:53.345929,6.259623,-1.928615,2.938386,0.221133,-0.280997,0.244346
2025-12-31T16:23:53.354929,6.987041,-1.603191,2.632104,0.375071,-0.317649,0.309097
2025-12-31T16:23:53.364929,7.680960,-1.215553,2.445464,0.444709,-0.410501,0.350636
2025-12-31T16:23:53.373929,8.666803,-0.914058,2.359323,0.452040,-0.536339,0.371405
2025-12-31T16:23:53.383929,9.973284,-0.660419,1.952543,0.438601,-0.653625,0.376292
2025-12-31T16:23:53.393929,11.231909,-0.368494,1.593619,0.361632,-0.693942,0.389731
2025-12-31T16:23:53.402929,12.102896,-0.220139,1.483550,0.201585,-0.566882,0.393397
2025-12-31T16:23:53.412929,12.380464,-0.153140,1.684547,0.047647,-0.252898,0.417831
2025-12-31T16:23:53.422929,11.892328,-0.148355,1.871187,-0.092851,0.244346,0.498465
2025-12-31T16:23:53.431929,10.456634,-0.162711,1.976471,-0.240680,0.861319,0.597426
2025-12-31T16:23:53.441929,8.441878,-0.416351,1.818545,-0.372627,1.436754,0.700051
2025-12-31T16:23:53.450929,6.178267,-0.727418,1.737189,-0.453261,1.855808,0.836885
2025-12-31T16:23:53.460929,3.957728,-1.182054,1.560120,-0.482583,2.106262,1.026253
2025-12-31T16:23:53.470929,1.904686,-1.655833,1.210768,-0.420275,2.247983,1.258382
2025-12-31T16:23:53.479929,-0.081355,-1.914258,1.028913,-0.282219,2.320065,1.499062
2025-12-31T16:23:53.489929,-1.804188,-2.182254,0.617348,-0.130725,2.291965,1.698205
2025-12-31T16:23:53.498929,-3.019742,-2.277967,0.138783,0.032986,2.098932,1.854586
2025-12-31T16:23:53.508929,-3.560520,-2.153540,-0.114855,0.180816,1.668883,1.991420
2025-12-31T16:23:53.518929,-3.201596,-1.899901,-0.110069,0.234572,1.054353,2.130697
2025-12-31T16:23:53.527929,-2.067398,-1.756331,0.066999,0.177150,0.434935,2.280970
2025-12-31T16:23:53.537929,-0.488135,-1.799402,0.430708,0.080634,-0.026878,2.420247
2025-12-31T16:23:53.547929,1.119840,-1.780260,0.942772,-0.029321,-0.234572,2.554637
2025-12-31T16:23:53.556929,2.646461,-1.933400,1.564905,-0.162490,-0.196698,2.684141
2025-12-31T16:23:53.566929,3.852444,-2.143969,1.622333,-0.268780,0.056199,2.794097
2025-12-31T16:23:53.575929,4.689932,-2.258824,1.660618,-0.322536,0.448374,2.904052
2025-12-31T16:23:53.585929,5.149354,-2.330609,1.828116,-0.381179,0.867428,3.045773
2025-12-31T16:23:53.595929,5.130211,-2.445464,1.981257,-0.470366,1.202182,3.191159
2025-12-31T16:23:53.604929,4.996213,-2.598605,2.029113,-0.547335,1.434311,3.315775
2025-12-31T16:23:53.614929,4.871786,-2.660818,1.919043,-0.587652,1.562592,3.425731
2025-12-31T16:23:53.623929,4.800002,-2.603390,2.177468,-0.656069,1.602910,3.518583
2025-12-31T16:23:53.633929,4.790430,-2.823530,2.464607,-0.713490,1.567479,3.585778
2025-12-31T16:23:53.643929,5.034498,-3.110669,2.158325,-0.618195,1.492954,3.607769
2025-12-31T16:23:53.652929,5.580062,-3.302095,2.148754,-0.427605,1.424537,3.600438
2025-12-31T16:23:53.662929,6.441478,-3.713660,2.861815,-0.355523,1.356120,3.617543
2025-12-31T16:23:53.672929,7.427321,-4.728217,3.661018,-0.459370,1.282816,3.714059
2025-12-31T16:23:53.681929,8.547162,-6.015556,3.756731,-0.464257,1.266934,3.897319
2025-12-31T16:23:53.691929,9.485148,-6.943971,3.584448,-0.210137,1.353677,4.086687
2025-12-31T16:23:53.700929,10.360921,-7.207181,3.589233,0.266337,1.499062,4.192978
2025-12-31T16:23:53.710929,11.035697,-7.097111,3.665804,0.800233,1.661553,4.200308
2025-12-31T16:23:53.720929,11.514262,-6.953542,3.613162,1.229060,1.800830,4.157547
2025-12-31T16:23:53.729929,12.045468,-6.738188,3.732803,1.584584,1.944994,4.125782
2025-12-31T16:23:53.739929,12.576675,-6.460621,4.235296,1.707978,2.058615,4.131891
2025-12-31T16:23:53.748929,13.093525,-6.546762,4.421936,1.611462,2.111149,4.156326
2025-12-31T16:23:53.758929,13.653445,-6.809973,4.479363,1.470963,2.124588,4.158769
2025-12-31T16:23:53.768929,14.074582,-7.015755,4.646861,1.282816,2.095267,4.111122
2025-12-31T16:23:53.777929,14.385649,-7.532605,5.101497,1.082452,2.047619,4.028044
2025-12-31T16:23:53.787929,14.687145,-8.082954,5.536991,1.081231,2.040289,3.949853
2025-12-31T16:23:53.797929,14.849857,-8.073383,6.355336,1.297477,2.155132,3.905871
2025-12-31T16:23:53.806929,14.639288,-7.719245,7.149753,1.428202,2.392147,3.855780
2025-12-31T16:23:53.816929,14.141581,-7.925028,7.130611,1.358564,2.678032,3.795915
2025-12-31T16:23:53.825929,13.366307,-8.164310,6.283552,1.334129,2.899165,3.780033
2025-12-31T16:23:53.835929,12.433106,-8.087740,4.934000,1.376889,3.005456,3.821572
2025-12-31T16:23:53.845929,11.222337,-7.992027,3.866801,1.288925,3.000569,3.802024
2025-12-31T16:23:53.854929,10.078568,-8.274380,3.905086,1.029918,2.919935,3.649308
2025-12-31T16:23:53.864929,8.858229,-8.796015,5.321637,0.905302,2.862513,3.401296
2025-12-31T16:23:53.873929,7.542176,-8.551947,7.393821,1.034805,2.844187,3.133738
2025-12-31T16:23:53.883929,5.948556,-7.795816,8.551947,1.072679,2.778214,2.891835
2025-12-31T16:23:53.893929,4.522434,-7.097111,8.920442,0.922406,2.615724,2.678032
2025-12-31T16:23:53.902929,3.421736,-6.766902,9.829715,0.471587,2.324952,2.481334
2025-12-31T16:23:53.912929,3.034099,-7.355536,10.777272,-0.357966,1.880242,2.309070
2025-12-31T16:23:53.922929,3.292523,-9.083154,10.858628,-1.285260,1.354898,2.152688
2025-12-31T16:23:53.931929,4.130011,-11.413763,10.126425,-2.092823,0.866206,1.999972
2025-12-31T16:23:53.941929,5.211567,-14.203794,9.375078,-2.718349,0.496022,1.835038
2025-12-31T16:23:53.950929,5.972485,-17.223537,9.159724,-3.028669,0.328645,1.572366
2025-12-31T16:23:53.960929,6.360122,-20.137995,9.681360,-3.112968,0.324980,1.203404
2025-12-31T16:23:53.970929,6.321837,-22.870598,10.705488,-2.961474,0.357966,0.808785
2025-12-31T16:23:53.979929,5.982056,-24.741785,11.499905,-2.550972,0.296880,0.410501
2025-12-31T16:23:53.989929,6.063412,-25.708487,11.145767,-2.073276,0.000000,-0.075747
2025-12-31T16:23:53.998929,6.766902,-26.033909,11.006983,-1.712865,-0.470366,-0.665842
2025-12-31T16:23:54.008929,8.068597,-25.727629,11.126625,-1.403768,-0.988379,-1.236390
2025-12-31T16:23:54.018929,9.762716,-24.210579,10.600204,-0.944397,-1.411098,-1.662774
2025-12-31T16:23:54.027929,11.251051,-21.559332,9.504291,-0.536339,-1.626122,-1.921781
2025-12-31T16:23:54.037929,12.078968,-18.707087,8.743373,-0.460592,-1.639561,-2.047619
2025-12-31T16:23:54.047929,12.126824,-16.405191,8.437092,-0.547335,-1.391550,-2.097710
2025-12-31T16:23:54.056929,11.385049,-14.490933,7.934599,-0.663399,-0.926071,-2.156353
2025-12-31T16:23:54.066929,9.949356,-13.194023,7.322037,-0.773355,-0.425162,-2.268753
2025-12-31T16:23:54.075929,8.106882,-12.299108,6.900900,-0.779463,-0.058643,-2.470338
2025-12-31T16:23:54.085929,6.412764,-11.882757,7.030112,-0.698829,0.017104,-2.750114
2025-12-31T16:23:54.095929,5.254638,-12.232109,7.111468,-0.597426,-0.238237,-3.033556
2025-12-31T16:23:54.104929,5.130211,-13.016954,6.551548,-0.344527,-0.763581,-3.254689
2025-12-31T16:23:54.114929,5.857629,-13.916656,5.838487,0.054977,-1.411098,-3.404962
2025-12-31T16:23:54.123929,7.369893,-14.328221,5.527420,0.551000,-2.026850,-3.508809
2025-12-31T16:23:54.133929,9.044869,-13.624731,5.493920,1.323133,-2.430021,-3.563787
2025-12-31T16:23:54.143929,10.356136,-11.380264,5.790630,2.182010,-2.544864,-3.557678
2025-12-31T16:23:54.152929,10.959127,-8.618947,5.948556,2.663371,-2.395812,-3.479487
2025-12-31T16:23:54.162929,10.896914,-6.063412,5.264209,2.681697,-2.031737,-3.391523
2025-12-31T16:23:54.172929,9.982855,-3.991228,4.479363,2.368934,-1.578475,-3.387857
2025-12-31T16:23:54.181929,8.762516,-2.799602,3.503092,1.690874,-1.167974,-3.485596
2025-12-31T16:23:54.191929,7.566105,-3.014956,3.187239,0.653625,-0.927293,-3.618764
2025-12-31T16:23:54.200929,6.723831,-4.421936,3.670589,-0.339641,-0.888197,-3.696955
2025-12-31T16:23:54.210929,6.226124,-6.130411,4.359722,-0.799011,-1.044579,-3.712838
2025-12-31T16:23:54.220929,6.202196,-7.642675,4.211367,-0.722042,-1.312138,-3.728720
2025-12-31T16:23:54.229929,6.431907,-8.652446,3.708875,-0.261450,-1.557706,-3.792250
2025-12-31T16:23:54.239929,6.589833,-9.006584,3.383451,0.408057,-1.662774,-3.848450
2025-12-31T16:23:54.248929,6.642475,-8.561519,3.139383,1.148426,-1.622457,-3.846006
2025-12-31T16:23:54.258929,6.250052,-7.412964,2.900100,1.828930,-1.516167,-3.800802
2025-12-31T16:23:54.268929,5.513063,-5.666203,2.689532,2.313957,-1.472184,-3.781255
2025-12-31T16:23:54.277929,4.852644,-3.957728,2.627319,2.489886,-1.598023,-3.797137
2025-12-31T16:23:54.287929,4.426721,-2.435893,2.857030,2.386039,-1.921781,-3.800802
2025-12-31T16:23:54.297929,4.503292,-1.311266,3.048455,2.051285,-2.430021,-3.777589
2025-12-31T16:23:54.306929,5.216353,-0.416351,2.904886,1.587027,-3.039664,-3.733607
2025-12-31T16:23:54.316929,6.455835,0.239282,2.502892,1.122770,-3.630982,-3.682294
2025-12-31T16:23:54.325929,8.054240,0.799202,2.282752,0.602312,-4.098904,-3.613877
2025-12-31T16:23:54.335929,9.676574,0.870987,1.899901,0.000000,-4.334698,-3.540574
2025-12-31T16:23:54.345929,11.212766,0.751346,1.531406,-0.592539,-4.272390,-3.474600
2025-12-31T16:23:54.354929,12.294322,0.349352,1.220339,-1.160643,-3.932749,-3.425731
2025-12-31T16:23:54.364929,12.902099,-0.382851,0.990628,-1.665218,-3.411070,-3.397631
2025-12-31T16:23:54.373929,12.844671,-1.330409,1.138983,-1.971872,-2.833192,-3.365866
2025-12-31T16:23:54.383929,12.289536,-2.249253,1.627119,-2.062280,-2.321287,-3.297449
2025-12-31T16:23:54.393929,11.504691,-3.340380,1.852044,-1.902233,-1.897347,-3.221702
2025-12-31T16:23:54.402929,10.576275,-4.130011,2.029113,-1.474628,-1.511280,-3.141068
2025-12-31T16:23:54.412929,9.542576,-4.522434,1.947757,-0.966388,-1.150869,-3.012786
2025-12-31T16:23:54.422929,8.255237,-4.857429,1.612762,-0.432492,-0.818559,-2.820975
2025-12-31T16:23:54.431929,6.982256,-4.551148,1.282552,0.129503,-0.530230,-2.609615
2025-12-31T16:23:54.441929,5.498706,-3.665804,0.775274,0.621860,-0.310319,-2.411695
2025-12-31T16:23:54.450929,4.240081,-2.565105,0.229710,0.911410,-0.208915,-2.235766
2025-12-31T16:23:54.460929,2.986242,-1.617548,-0.129212,0.974940,-0.219911,-2.073276
2025-12-31T16:23:54.470929,1.933400,-0.803988,0.014356,0.874758,-0.323758,-1.915672
2025-12-31T16:23:54.479929,1.167697,-0.296710,0.521635,0.654847,-0.546113,-1.740965
2025-12-31T16:23:54.489929,0.827916,0.000000,1.124626,0.350636,-0.889419,-1.567479
2025-12-31T16:23:54.498929,1.000199,-0.023928,1.569691,0.048869,-1.263269,-1.400102
2025-12-31T16:23:54.508929,1.627119,-0.224925,1.990828,-0.191811,-1.534493,-1.248608
2025-12-31T16:23:54.518929,2.397608,-0.454636,2.684746,-0.376292,-1.605353,-1.116661
2025-12-31T16:23:54.527929,3.177668,-0.583848,2.933600,-0.466700,-1.439198,-1.027475
2025-12-31T16:23:54.537929,3.522234,-0.535992,2.928814,-0.456927,-1.029918,-0.973718
2025-12-31T16:23:54.547929,3.359522,-0.205782,2.656033,-0.529009,-0.491135,-0.897971
2025-12-31T16:23:54.556929,2.574677,-0.014356,2.507678,-0.729372,0.000000,-0.788015
2025-12-31T16:23:54.566929,1.497906,-0.062213,2.612962,-0.965166,0.323758,-0.687834
2025-12-31T16:23:54.575929,0.502492,-0.267996,2.775674,-1.208291,0.417831,-0.597426
2025-12-31T16:23:54.585929,-0.253639,-0.631705,2.746960,-1.393994,0.301767,-0.507018
2025-12-31T16:23:54.595929,-0.220139,-1.201196,2.675175,-1.480737,0.041538,-0.438601
2025-12-31T16:23:54.604929,0.334995,-1.842473,2.751745,-1.458745,-0.328645,-0.378736
2025-12-31T16:23:54.614929,1.497906,-2.426322,2.947957,-1.295034,-0.764803,-0.315206
2025-12-31T16:23:54.623929,3.168097,-2.847458,3.292523,-0.972497,-1.191186,-0.287106
2025-12-31T16:23:54.633929,5.197210,-3.067598,3.766302,-0.614530,-1.552819,-0.294436
2025-12-31T16:23:54.643929,7.503891,-3.306880,3.550948,-0.273667,-1.808160,-0.288328
2025-12-31T16:23:54.652929,9.915856,-3.211167,2.924029,0.128281,-1.863138,-0.239459
2025-12-31T16:23:54.662929,12.078968,-2.794816,2.368894,0.508239,-1.661553,-0.179594
2025-12-31T16:23:54.672929,13.820943,-2.368894,2.273181,0.747698,-1.274264,-0.116064
2025-12-31T16:23:54.681929,14.806786,-2.048256,2.292324,0.951727,-0.750142,-0.001221
2025-12-31T16:23:54.691929,14.787643,-1.478764,2.105683,1.141096,-0.147829,0.127059
2025-12-31T16:23:54.700929,13.663017,-0.789631,1.765903,1.229060,0.480139,0.273667
2025-12-31T16:23:54.710929,11.648260,-0.234496,1.785045,1.194852,1.076344,0.450818
2025-12-31T16:23:54.720929,9.365507,-0.038285,2.081755,1.088561,1.535714,0.626747
2025-12-31T16:23:54.729929,7.159325,-0.033499,2.258824,0.992044,1.787391,0.797789
2025-12-31T16:23:54.739929,5.216353,-0.086141,2.196611,0.926071,1.832595,0.963945
2025-12-31T16:23:54.748929,3.713660,-0.177068,2.215753,0.883310,1.750739,1.127656
2025-12-31T16:23:54.758929,2.627319,-0.267996,2.201396,0.846659,1.617570,1.282816
2025-12-31T16:23:54.768929,1.986042,-0.282353,1.885544,0.789237,1.456302,1.409876
2025-12-31T16:23:54.777929,1.737189,-0.119641,1.253839,0.731816,1.295034,1.512502
2025-12-31T16:23:54.787929,1.617548,0.234496,0.827916,0.654847,1.148426,1.609018
2025-12-31T16:23:54.797929,1.660618,0.488135,0.636490,0.480139,1.007927,1.676213
2025-12-31T16:23:54.806929,1.713260,0.435493,0.803988,0.265115,0.883310,1.721417
2025-12-31T16:23:54.816929,1.804188,0.239282,1.416550,0.107512,0.796568,1.780060
2025-12-31T16:23:54.825929,2.134397,-0.057427,2.167897,-0.020769,0.751364,1.838703
2025-12-31T16:23:54.835929,2.632104,-0.459421,2.148754,-0.081855,0.751364,1.855808
2025-12-31T16:23:54.845929,3.187239,-0.698704,1.986042,-0.030543,0.849102,1.875355
2025-12-31T16:23:54.854929,3.560520,-0.631705,1.818545,0.054977,1.040914,1.948659
2025-12-31T16:23:54.864929,3.780659,-0.435493,1.670190,0.103847,1.263269,2.045176
2025-12-31T16:23:54.873929,3.814159,-0.334995,1.459621,0.091629,1.480737,2.167349
2025-12-31T16:23:54.883929,3.689732,-0.334995,1.268195,0.025656,1.676213,2.307848
2025-12-31T16:23:54.893929,3.541377,-0.526420,1.186840,-0.107512,1.815491,2.463008
2025-12-31T16:23:54.902929,3.565305,-0.904486,1.378265,-0.265115,1.824043,2.625498
2025-12-31T16:23:54.912929,3.890729,-1.454836,1.909472,-0.433714,1.701870,2.792875
2025-12-31T16:23:54.922929,4.599005,-2.053041,2.167897,-0.543669,1.495397,2.937039
2025-12-31T16:23:54.931929,5.608776,-2.584248,1.938186,-0.529009,1.306029,3.066542
2025-12-31T16:23:54.941929,6.709474,-2.837887,1.641476,-0.466700,1.203404,3.202154
2025-12-31T16:23:54.950929,7.791030,-3.091526,1.718046,-0.416610,1.199739,3.357314
2025-12-31T16:23:54.960929,8.733802,-3.244667,1.832902,-0.345749,1.286481,3.494148
2025-12-31T16:23:54.970929,9.336793,-3.187239,1.737189,-0.218689,1.464854,3.571117
2025-12-31T16:23:54.979929,9.647860,-2.746960,1.890329,-0.064751,1.687209,3.618764
2025-12-31T16:23:54.989929,9.686145,-1.861615,2.187039,0.003665,1.875355,3.694512
2025-12-31T16:23:54.998929,9.643075,-0.981057,2.608176,-0.043982,2.003637,3.792250
2025-12-31T16:23:55.008929,9.365507,-0.191425,3.120240,-0.228463,2.116036,3.880215
2025-12-31T16:23:55.018929,9.131011,0.282353,3.455235,-0.594982,2.228435,3.926640
2025-12-31T16:23:55.027929,8.843872,0.076570,3.656232,-1.125213,2.343278,3.954740
2025-12-31T16:23:55.037929,8.513662,-0.593420,3.369094,-1.673770,2.415360,4.015827
2025-12-31T16:23:55.047929,8.054240,-1.402194,3.096312,-2.040289,2.397034,4.092796
2025-12-31T16:23:55.056929,7.881957,-2.770888,2.507678,-2.393369,2.261422,4.097683
2025-12-31T16:23:55.066929,7.948956,-5.115854,1.718046,-2.717128,2.061058,4.002388
2025-12-31T16:23:55.075929,8.154739,-8.097311,1.296909,-2.831970,1.822821,3.876549
2025-12-31T16:23:55.085929,8.681160,-11.313265,1.684547,-2.645045,1.523497,3.783698
2025-12-31T16:23:55.095929,9.298508,-14.309079,2.388036,-2.065945,1.181413,3.743381
2025-12-31T16:23:55.104929,9.963713,-16.314264,3.139383,-0.987158,0.807563,3.740937
2025-12-31T16:23:55.114929,10.858628,-16.386049,3.857230,0.505796,0.412944,3.743381
2025-12-31T16:23:55.123929,11.782258,-14.380863,4.570291,1.832595,0.050090,3.740937
2025-12-31T16:23:55.133929,12.983455,-12.078968,4.934000,2.495994,-0.163711,3.759263
2025-12-31T16:23:55.143929,13.974083,-10.351350,4.819144,2.550972,-0.085521,3.792250
2025-12-31T16:23:55.152929,14.581860,-9.202795,4.369294,2.232101,0.320093,3.821572
2025-12-31T16:23:55.162929,14.490933,-8.958727,3.952942,1.593136,0.935845,3.808133
2025-12-31T16:23:55.172929,13.682159,-9.954142,3.895515,0.783129,1.544267,3.727498
2025-12-31T16:23:55.181929,12.600603,-11.887542,4.455435,0.252898,1.990198,3.610212
2025-12-31T16:23:55.191929,11.045269,-13.481162,5.570491,0.241902,2.218662,3.555234
2025-12-31T16:23:55.200929,9.399007,-13.792229,6.001199,0.697607,2.206444,3.576004
2025-12-31T16:23:55.210929,7.881957,-12.308679,5.848058,1.303586,1.981646,3.573560
2025-12-31T16:23:55.220929,6.800401,-10.159924,6.221338,1.494176,1.640783,3.503922
2025-12-31T16:23:55.229929,6.527620,-9.116654,6.656832,0.935845,1.279151,3.395188
2025-12-31T16:23:55.239929,6.637689,-10.021141,6.723831,-0.010995,1.011592,3.270571
2025-12-31T16:23:55.248929,7.073183,-11.973684,6.795616,-0.796568,0.878424,3.127629
2025-12-31T16:23:55.258929,7.542176,-14.634503,7.283751,-1.481958,0.805120,2.956587
2025-12-31T16:23:55.268929,7.891528,-18.137594,8.207381,-1.883908,0.735481,2.781879
2025-12-31T16:23:55.277929,7.963313,-20.961124,9.044869,-1.572366,0.723264,2.620611
2025-12-31T16:23:55.287929,7.848458,-21.717257,9.145367,-0.651182,0.773355,2.453234
2025-12-31T16:23:55.297929,7.116254,-20.717058,8.666803,0.100181,0.851545,2.238209
2025-12-31T16:23:55.306929,6.183053,-19.922640,7.925028,0.219911,0.889419,1.947437
2025-12-31T16:23:55.316929,5.072783,-19.721643,7.484749,0.063529,0.864984,1.560149
2025-12-31T16:23:55.325929,4.206582,-19.597218,7.513462,-0.140498,0.752585,1.058018
2025-12-31T16:23:55.335929,3.455235,-19.482361,7.714460,-0.452040,0.502131,0.434935
2025-12-31T16:23:55.345929,3.282952,-19.271793,7.829315,-0.777020,0.146607,-0.270002
2025-12-31T16:23:55.354929,3.503092,-19.166510,8.212167,-0.952949,-0.263893,-0.972497
2025-12-31T16:23:55.364929,4.493720,-19.094725,9.245866,-0.941954,-0.658512,-1.572366
2025-12-31T16:23:55.373929,5.948556,-19.094725,9.734002,-0.748920,-0.983492,-2.040289
2025-12-31T16:23:55.383929,7.408178,-18.903297,9.250652,-0.226020,-1.108109,-2.365269
2025-12-31T16:23:55.393929,8.480163,-17.883957,8.891728,0.524122,-0.972497,-2.585181
2025-12-31T16:23:55.402929,8.920442,-16.390835,8.815158,1.136209,-0.674395,-2.712241
2025-12-31T16:23:55.412929,8.571090,-14.758929,8.173882,1.589471,-0.299323,-2.756223
2025-12-31T16:23:55.422929,7.436892,-12.849457,7.240681,1.938885,0.051312,-2.767218
2025-12-31T16:23:55.431929,5.886343,-10.877771,6.675975,2.036624,0.263893,-2.811201
2025-12-31T16:23:55.441929,4.158725,-9.107082,6.264409,1.926668,0.278554,-2.880839
2025-12-31T16:23:55.450929,2.641676,-7.288537,5.513063,1.758069,0.111177,-2.959030
2025-12-31T16:23:55.460929,1.493121,-5.522634,4.503292,1.496619,-0.222354,-3.044551
2025-12-31T16:23:55.470929,0.789631,-3.895515,3.622733,0.976162,-0.687834,-3.182607
2025-12-31T16:23:55.479929,0.502492,-3.220739,3.689732,0.171042,-1.244943,-3.382970
2025-12-31T16:23:55.489929,1.177268,-4.000799,4.431507,-0.856432,-1.897347,-3.604104
2025-12-31T16:23:55.498929,2.900100,-6.312266,4.948357,-1.836260,-2.537533,-3.744603
2025-12-31T16:23:55.508929,5.493920,-9.188438,5.082355,-2.158797,-2.979800,-3.831345
2025-12-31T16:23:55.518929,8.183453,-11.667402,5.216353,-1.629788,-3.110525,-4.006053
2025-12-31T16:23:55.527929,10.695917,-12.753744,4.345365,-0.390953,-2.863735,-4.191756
2025-12-31T16:23:55.537929,11.772687,-11.916256,2.780459,1.087339,-2.271196,-4.225964
2025-12-31T16:23:55.547929,11.222337,-9.561719,1.406979,2.301739,-1.497841,-4.113565
2025-12-31T16:23:55.556929,9.456434,-6.776473,0.957129,2.956587,-0.780685,-3.995057
2025-12-31T16:23:55.566929,7.192824,-4.584648,0.837487,3.076316,-0.356745,-3.977953
2025-12-31T16:23:55.575929,5.072783,-3.134597,1.177268,2.908939,-0.357966,-4.040261
2025-12-31T16:23:55.585929,3.684946,-2.469392,2.526820,2.268753,-0.828333,-4.074470
2025-12-31T16:23:55.595929,3.594019,-3.704089,3.469592,1.161865,-1.758069,-3.976731
2025-12-31T16:23:55.604929,5.158925,-5.929414,3.704089,0.625525,-2.950478,-3.819128
2025-12-31T16:23:55.614929,7.891528,-7.422535,4.474578,0.955393,-4.079357,-3.802024
2025-12-31T16:23:55.623929,11.590832,-8.547162,4.316651,1.620014,-4.844160,-3.907093
2025-12-31T16:23:55.633929,15.026925,-9.016155,2.823530,2.557081,-4.884477,-3.970623
2025-12-31T16:23:55.643929,16.615761,-7.805387,0.756131,3.638312,-4.107457,-3.897319
2025-12-31T16:23:55.652929,16.180265,-5.072783,-0.607776,4.313929,-2.967582,-3.742159
2025-12-31T16:23:55.662929,14.653645,-2.364108,-0.488135,4.301712,-1.924225,-3.534465
2025-12-31T16:23:55.672929,12.552747,-0.569491,1.105484,3.784920,-1.244943,-3.244915
2025-12-31T16:23:55.681929,10.375278,0.550349,3.177668,3.109303,-0.976162,-2.949256
2025-12-31T16:23:55.691929,7.872386,1.593619,4.608576,2.411695,-1.080009,-2.678032
2025-12-31T16:23:55.700929,5.814558,2.100898,2.560320,1.742187,-1.551597,-2.484999
2025-12-31T16:23:55.710929,4.847858,2.794816,2.057827,1.257160,-2.116036,-2.387260
2025-12-31T16:23:55.720929,4.230510,2.373680,4.445864,0.323758,-2.609615,-2.265087
2025-12-31T16:23:55.729929,4.594219,0.272781,5.934200,-0.516791,-3.252245,-2.131919
2025-12-31T16:23:55.739929,5.852844,-0.215354,5.182853,-0.453261,-3.655416,-1.975537
2025-12-31T16:23:55.748929,6.996613,1.502692,4.211367,-0.304210,-3.667634,-1.760513
2025-12-31T16:23:55.758929,7.786244,2.584248,2.928814,-0.827111,-3.396410,-1.567479
2025-12-31T16:23:55.768929,8.341379,2.402393,1.785045,-1.510058,-2.910161,-1.513723
2025-12-31T16:23:55.777929,8.504091,1.406979,1.598405,-2.114815,-2.296852,-1.495397
2025-12-31T16:23:55.787929,8.169096,-0.320638,1.138983,-2.615724,-1.711644,-1.393994
2025-12-31T16:23:55.797929,7.719245,-2.153540,0.119641,-2.733010,-1.222951,-1.310916
2025-12-31T16:23:55.806929,6.910471,-3.321237,-0.325423,-2.484999,-0.830776,-1.284038
2025-12-31T16:23:55.816929,5.871986,-4.168296,-0.229710,-2.015854,-0.581543,-1.291368
2025-12-31T16:23:55.825929,4.493720,-4.201796,0.057427,-1.317025,-0.475253,-1.326799
2025-12-31T16:23:55.835929,3.115455,-3.416950,0.646062,-0.533896,-0.491135,-1.353677
2025-12-31T16:23:55.845929,1.899901,-2.177468,1.225125,0.072082,-0.621860,-1.332907
2025-12-31T16:23:55.854929,1.172483,-0.765703,1.607976,0.370184,-0.805120,-1.249830
2025-12-31T16:23:55.864929,0.818345,0.545563,1.483550,0.360410,-0.972497,-1.125213
2025-12-31T16:23:55.873929,0.708275,1.349551,1.622333,0.052534,-1.083674,-1.011592
2025-12-31T16:23:55.883929,0.847059,1.354337,2.325823,-0.466700,-1.159421,-0.917519
2025-12-31T16:23:55.893929,1.383051,0.684347,3.024527,-0.948062,-1.220508,-0.792902
2025-12-31T16:23:55.902929,2.143969,-0.200997,2.545963,-1.242499,-1.225395,-0.689055
2025-12-31T16:23:55.912929,2.761317,-0.914058,2.143969,-1.340238,-1.082452,-0.649960
2025-12-31T16:23:55.922929,3.091526,-1.761117,2.464607,-1.285260,-0.853989,-0.648738
2025-12-31T16:23:55.931929,3.206382,-2.349751,2.627319,-1.050687,-0.652403,-0.654847
2025-12-31T16:23:55.941929,3.292523,-2.364108,2.258824,-0.689055,-0.514348,-0.646295
2025-12-31T16:23:55.950929,3.354737,-1.895115,1.981257,-0.361632,-0.465479,-0.627969
2025-12-31T16:23:55.960929,3.584448,-1.277767,2.167897,-0.185702,-0.520457,-0.612086
2025-12-31T16:23:55.970929,3.972085,-0.842273,2.809173,-0.216246,-0.665842,-0.590095
2025-12-31T16:23:55.979929,4.737788,-0.914058,3.239881,-0.290771,-0.864984,-0.553443
2025-12-31T16:23:55.989929,5.833701,-0.698704,3.187239,-0.229685,-0.956614,-0.494800
2025-12-31T16:23:55.998929,6.905686,-0.296710,3.005385,-0.239459,-0.907745,-0.419053
2025-12-31T16:23:56.008929,7.901100,-0.167497,2.732603,-0.428827,-0.789237,-0.353080
2025-12-31T16:23:56.018929,8.829515,-0.406779,2.636890,-0.615752,-0.675616,-0.304210
2025-12-31T16:23:56.027929,9.671788,-0.641276,2.699103,-0.783129,-0.602312,-0.273667
2025-12-31T16:23:56.037929,10.705488,-1.004985,2.986242,-0.987158,-0.632856,-0.232128
2025-12-31T16:23:56.047929,12.031112,-1.435693,3.125026,-1.160643,-0.763581,-0.116064
2025-12-31T16:23:56.056929,13.375878,-1.880758,2.708675,-1.265712,-0.868650,0.068416
2025-12-31T16:23:56.066929,14.514861,-2.311466,1.545763,-1.351233,-0.748920,0.277332
2025-12-31T16:23:56.075929,14.787643,-2.890529,0.827916,-1.404989,-0.256563,0.465479
2025-12-31T16:23:56.085929,13.749158,-3.914657,0.186640,-1.361007,0.553443,0.529009
2025-12-31T16:23:56.095929,11.787044,-5.264209,-0.071784,-0.791681,1.433089,0.417831
2025-12-31T16:23:56.104929,9.284151,-5.163711,1.234696,0.362853,2.183231,0.338419
2025-12-31T16:23:56.114929,6.273980,-3.909872,2.048256,1.358564,2.489886,0.428827
2025-12-31T16:23:56.123929,3.689732,-2.397608,1.306481,2.067167,2.345722,0.541226
2025-12-31T16:23:56.133929,1.813759,-0.478564,0.296710,2.493551,1.975537,0.581543
2025-12-31T16:23:56.143929,0.650847,1.220339,0.392422,2.442238,1.536936,0.618195
2025-12-31T16:23:56.152929,0.081355,2.009970,1.129412,2.030515,1.103222,0.728151
2025-12-31T16:23:56.162929,0.114855,2.550748,1.942971,1.546710,0.719599,0.915075
2025-12-31T16:23:56.172929,0.775274,2.971885,2.263610,0.974940,0.450818,1.150869
2025-12-31T16:23:56.181929,1.770688,2.847458,2.426322,0.217467,0.318871,1.393994
2025-12-31T16:23:56.191929,2.900100,2.143969,2.526820,-0.548556,0.340862,1.616349
2025-12-31T16:23:56.200929,3.818944,1.196411,2.349751,-1.128878,0.514348,1.776395
2025-12-31T16:23:56.210929,4.522434,0.344566,2.206182,-1.461189,0.829554,1.901012
2025-12-31T16:23:56.220929,4.704289,-0.334995,2.474178,-1.580918,1.231504,2.031737
2025-12-31T16:23:56.229929,4.474578,-0.808774,2.416750,-1.555262,1.611462,2.144136
2025-12-31T16:23:56.239929,4.034298,-1.148554,1.694118,-1.436754,1.905899,2.249205
2025-12-31T16:23:56.248929,3.402593,-1.430907,1.014556,-1.321912,2.070832,2.359161
2025-12-31T16:23:56.258929,2.857030,-1.761117,0.713061,-1.125213,2.108706,2.450790
2025-12-31T16:23:56.268929,2.636890,-1.962114,0.847059,-0.779463,2.025628,2.505768
2025-12-31T16:23:56.277929,2.723032,-2.009970,0.765703,-0.442266,1.831373,2.564411
2025-12-31T16:23:56.287929,3.345165,-2.115255,0.665204,-0.207694,1.653000,2.659706
2025-12-31T16:23:56.297929,3.943371,-2.177468,0.732203,0.000000,1.572366,2.784323
2025-12-31T16:23:56.306929,4.618147,-2.373680,1.617548,0.173485,1.572366,2.910161
2025-12-31T16:23:56.316929,5.364708,-2.679961,2.928814,0.254119,1.631009,3.015230
2025-12-31T16:23:56.325929,6.187839,-3.029313,2.914457,0.384845,1.734856,3.075094
2025-12-31T16:23:56.335929,6.886543,-2.890529,2.665604,0.591317,1.883908,3.112968
2025-12-31T16:23:56.345929,7.451249,-2.402393,3.091526,0.746477,2.006081,3.155729
2025-12-31T16:23:56.354929,8.049455,-1.847259,4.474578,0.763581,2.065945,3.158172
2025-12-31T16:23:56.364929,8.805587,-1.780260,3.651447,0.678060,2.075719,3.150842
2025-12-31T16:23:56.373929,9.556933,-1.679761,3.158525,0.536339,2.096489,3.210707
2025-12-31T16:23:56.383929,10.389635,-1.986042,4.407579,-0.036651,2.134362,3.338988
2025-12-31T16:23:56.393929,11.188838,-3.838087,5.374279,-0.769690,2.182010,3.488039
2025-12-31T16:23:56.402929,11.705688,-5.876772,5.484349,-1.037248,2.274861,3.584556
2025-12-31T16:23:56.412929,12.093325,-7.082754,5.685346,-0.745255,2.436130,3.623651
2025-12-31T16:23:56.422929,12.136396,-7.278966,5.948556,-0.270002,2.592511,3.624873
2025-12-31T16:23:56.431929,11.849257,-7.164110,5.268995,0.257785,2.740340,3.666412
2025-12-31T16:23:56.441929,11.337193,-6.398407,4.450650,0.791681,2.904052,3.771481
2025-12-31T16:23:56.450929,10.494919,-5.618347,4.388436,0.950506,3.060434,3.881436
2025-12-31T16:23:56.460929,9.614361,-5.757131,4.771288,0.733038,3.139846,3.949853
2025-12-31T16:23:56.470929,8.829515,-6.652046,5.158925,0.566882,3.170389,3.982840
2025-12-31T16:23:56.479929,8.092526,-7.427321,5.871986,0.604756,3.112968,3.986505
2025-12-31T16:23:56.489929,7.633104,-8.164310,6.221338,0.768468,2.952921,3.941301
2025-12-31T16:23:56.498929,7.365107,-8.705088,6.273980,1.038470,2.704910,3.855780
2025-12-31T16:23:56.508929,7.255038,-8.676374,6.489334,1.369559,2.409251,3.744603
2025-12-31T16:23:56.518929,7.714460,-8.035098,7.077969,1.620014,2.089158,3.637090
2025-12-31T16:23:56.527929,8.398807,-7.111468,7.345965,1.729969,1.792278,3.580891
2025-12-31T16:23:56.537929,9.236295,-6.029912,7.628318,1.613905,1.595579,3.562565
2025-12-31T16:23:56.547929,9.844072,-5.326423,8.159525,1.134987,1.565036,3.507587
2025-12-31T16:23:56.556929,10.049854,-5.742774,8.035098,0.474031,1.704313,3.417179
2025-12-31T16:23:56.566929,9.695717,-6.829115,7.341179,-0.145385,1.930333,3.376862
2025-12-31T16:23:56.575929,8.906085,-8.618947,7.680960,-0.737925,2.075719,3.329214
2025-12-31T16:23:56.585929,8.288737,-11.021340,9.001798,-1.059240,2.106262,3.192381
2025-12-31T16:23:56.595929,7.532605,-12.959527,10.332207,-0.802676,2.068389,3.079981
2025-12-31T16:23:56.604929,6.738188,-13.155738,10.705488,-0.073303,1.918116,3.060434
2025-12-31T16:23:56.614929,6.144768,-11.542976,11.002198,0.627969,1.715309,3.067764
2025-12-31T16:23:56.623929,6.025127,-9.700502,11.633903,0.784350,1.485623,3.017673
2025-12-31T16:23:56.633929,6.340979,-8.614161,11.806186,0.459370,1.329242,2.912604
2025-12-31T16:23:56.643929,6.752545,-8.925228,11.983255,-0.321315,1.297477,2.765997
2025-12-31T16:23:56.652929,7.173682,-11.279765,12.236894,-1.343903,1.324355,2.579072
2025-12-31T16:23:56.662929,7.475177,-14.730215,12.581461,-1.958433,1.406211,2.334726
2025-12-31T16:23:56.672929,7.398607,-17.836100,12.404392,-1.988976,1.507615,2.064724
2025-12-31T16:23:56.681929,6.987041,-19.582861,12.260823,-1.426980,1.611462,1.736078
2025-12-31T16:23:56.691929,6.101697,-19.377077,12.552747,-0.443488,1.690874,1.321912
2025-12-31T16:23:56.700929,4.862215,-17.060825,12.720244,0.453261,1.725083,0.894306
2025-12-31T16:23:56.710929,3.220739,-14.007583,12.557533,0.796568,1.682322,0.487470
2025-12-31T16:23:56.720929,1.536192,-11.638689,12.346964,0.409279,1.510058,0.042760
2025-12-31T16:23:56.729929,-0.177068,-10.504491,12.385249,-0.591317,1.227838,-0.456927
2025-12-31T16:23:56.739929,-1.966900,-10.839486,13.476376,-2.006081,0.890641,-0.967610
2025-12-31T16:23:56.748929,-3.220739,-12.916456,14.088939,-3.277902,0.367740,-1.523497
2025-12-31T16:23:56.758929,-2.861815,-15.357135,11.763115,-4.120896,-0.306654,-1.942551
2025-12-31T16:23:56.768929,-1.684547,-18.156736,10.490134,-4.420219,-0.963945,-2.168571
2025-12-31T16:23:56.777929,-0.023928,-20.611773,10.360921,-4.009718,-1.440419,-2.296852
2025-12-31T16:23:56.787929,1.387837,-22.229321,10.193424,-2.883283,-1.632231,-2.394591
2025-12-31T16:23:56.797929,2.076970,-21.736401,9.772287,-1.165530,-1.523497,-2.478890
2025-12-31T16:23:56.806929,1.799402,-18.434305,9.327222,0.640186,-1.309694,-2.522872
2025-12-31T16:23:56.816929,0.990628,-13.825728,9.102297,1.984089,-1.288925,-2.549750
2025-12-31T16:23:56.825929,0.291924,-9.662217,9.049655,2.398256,-1.577253,-2.590068
2025-12-31T16:23:56.835929,0.545563,-6.326622,7.886743,2.075719,-2.117258,-2.585181
2025-12-31T16:23:56.845929,1.540977,-5.034498,7.556533,1.023809,-2.652376,-2.554637
2025-12-31T16:23:56.854929,3.493520,-5.972485,8.063812,-0.376292,-3.187494,-2.585181
2025-12-31T16:23:56.864929,6.106483,-9.269794,7.384250,-1.655444,-3.652973,-2.656041
2025-12-31T16:23:56.873929,8.843872,-13.983655,6.561119,-1.951103,-3.808133,-2.928487
2025-12-31T16:23:56.883929,11.490334,-18.056238,6.058626,-0.915075,-3.316997,-3.301115
2025-12-31T16:23:56.893929,11.782258,-19.013369,4.666004,1.386663,-2.139249,-3.496591
2025-12-31T16:23:56.902929,9.710074,-15.012568,3.206382,4.123339,-0.703716,-3.497813
2025-12-31T16:23:56.912929,5.871986,-8.169096,3.177668,5.806884,0.221133,-3.423288
2025-12-31T16:23:56.922929,2.196611,-2.756531,3.799802,6.102542,0.299323,-3.378084
2025-12-31T16:23:56.931929,-0.703489,1.823330,4.345365,5.732358,-0.259006,-3.367088
2025-12-31T16:23:56.941929,-2.287538,7.666603,2.277967,4.172208,-1.214399,-3.349984
2025-12-31T16:23:56.950929,-2.636890,9.671788,4.977071,1.043357,-2.383595,-3.149620
2025-12-31T16:23:56.960929,0.100498,6.594619,5.044070,-2.260200,-3.770259,-2.729345
2025-12-31T16:23:56.970929,3.723231,1.182054,3.340380,-4.800178,-4.819726,-2.373821
2025-12-31T16:23:56.979929,6.987041,-4.125226,2.464607,-6.313901,-5.413486,-2.436130
2025-12-31T16:23:56.989929,11.882757,-10.475777,4.311866,-6.677977,-5.452581,-3.203376
2025-12-31T16:23:56.998929,16.491333,-16.931612,5.824130,-5.525885,-4.398228,-3.968179
2025-12-31T16:23:57.008929,17.831314,-19.434505,3.316452,-2.830748,-2.599841,-3.996279
2025-12-31T16:23:57.018929,15.773486,-15.424134,1.938186,0.620638,-0.618195,-3.433061
2025-12-31T16:23:57.027929,11.959327,-8.149953,3.766302,2.647489,0.631634,-2.999347
2025-12-31T16:23:57.037929,8.260023,-3.397808,2.560320,2.463008,0.897971,-2.908939
2025-12-31T16:23:57.047929,5.709274,-2.416750,0.401994,1.447750,0.698829,-2.916270
2025-12-31T16:23:57.056929,3.996013,-2.703889,1.698904,0.257785,0.250454,-2.755001
2025-12-31T16:23:57.066929,2.952743,-4.713860,2.622533,-0.874758,-0.498465,-2.504546
2025-12-31T16:23:57.075929,3.421736,-7.532605,1.631905,-1.175304,-1.309694,-2.470338
2025-12-31T16:23:57.085929,4.565505,-8.776873,0.923629,-0.500909,-1.902233,-2.652376
2025-12-31T16:23:57.095929,6.044269,-8.408378,0.976271,0.565661,-2.256535,-2.828305
2025-12-31T16:23:57.104929,7.197610,-6.896114,1.062413,1.533271,-2.423912,-2.888170
2025-12-31T16:23:57.114929,8.154739,-4.728217,1.095912,2.262644,-2.444682,-2.860070
2025-12-31T16:23:57.123929,8.657232,-2.258824,1.584048,2.548529,-2.359161,-2.795318
2025-12-31T16:23:57.133929,9.049655,-0.387637,2.431107,2.343278,-2.228435,-2.720793
2025-12-31T16:23:57.143929,9.126225,0.928415,2.861815,1.897347,-2.040289,-2.637715
2025-12-31T16:23:57.152929,8.915657,1.947757,2.895315,1.343903,-1.778839,-2.548529
2025-12-31T16:23:57.162929,8.322237,2.325823,2.962314,0.612086,-1.500284,-2.444682
2025-12-31T16:23:57.172929,7.604390,2.062613,2.742174,-0.207694,-1.271821,-2.305404
2025-12-31T16:23:57.181929,6.723831,1.363908,2.258824,-0.872315,-1.120326,-2.162462
2025-12-31T16:23:57.191929,5.852844,0.952343,1.789831,-1.334129,-1.022588,-2.036624
2025-12-31T16:23:57.200929,5.087140,0.540777,1.459621,-1.720196,-0.984714,-1.908342
2025-12-31T16:23:57.210929,4.536791,0.071784,1.234696,-2.008524,-0.990823,-1.747074
2025-12-31T16:23:57.220929,3.933800,0.043070,0.847059,-2.172236,-0.988379,-1.573588
2025-12-31T16:23:57.229929,3.326023,0.378065,0.497707,-2.282192,-0.957836,-1.418428
2025-12-31T16:23:57.239929,2.766102,0.751346,-0.110069,-2.381152,-0.915075,-1.313359
2025-12-31T16:23:57.248929,2.325823,0.655633,-0.674775,-2.516764,-0.817337,-1.299920
2025-12-31T16:23:57.258929,1.722832,-0.186640,0.253639,-2.678032,-0.676838,-1.273042
2025-12-31T16:23:57.268929,1.220339,-1.698904,1.086341,-2.729345,-0.619417,-1.227838
2025-12-31T16:23:57.277929,1.067198,-3.316452,1.569691,-2.464229,-0.649960,-1.218065
2025-12-31T16:23:57.287929,1.191625,-4.517649,1.832902,-1.901012,-0.722042,-1.247386
2025-12-31T16:23:57.297929,1.703689,-5.173282,1.890329,-1.080009,-0.810007,-1.248608
2025-12-31T16:23:57.306929,2.258824,-5.067998,2.206182,-0.156381,-0.899193,-1.218065
2025-12-31T16:23:57.316929,3.029313,-4.388436,2.469392,0.615752,-1.000597,-1.161865
2025-12-31T16:23:57.325929,3.747160,-3.536591,2.426322,1.188743,-1.078787,-1.086118
2025-12-31T16:23:57.335929,4.541577,-2.493321,2.129612,1.616349,-1.075122,-1.025031
2025-12-31T16:23:57.345929,5.178068,-1.287338,1.895115,1.815491,-1.007927,-0.970053
2025-12-31T16:23:57.354929,5.647061,-0.454636,1.962114,1.777617,-0.908967,-0.910189
2025-12-31T16:23:57.364929,6.005984,0.110069,2.239681,1.632231,-0.806341,-0.858876
2025-12-31T16:23:57.373929,6.355336,0.435493,2.512463,1.369559,-0.740368,-0.816115
2025-12-31T16:23:57.383929,6.747759,0.550349,2.407179,1.103222,-0.713490,-0.761137
2025-12-31T16:23:57.393929,7.355536,0.736989,2.593819,0.827111,-0.693942,-0.718377
2025-12-31T16:23:57.402929,7.896314,0.555134,2.746960,0.449596,-0.687834,-0.673173
2025-12-31T16:23:57.412929,8.585447,0.181854,2.718246,0.039095,-0.690277,-0.621860
2025-12-31T16:23:57.422929,9.231509,-0.325423,2.383251,-0.288328,-0.693942,-0.574213
2025-12-31T16:23:57.431929,9.834500,-0.713061,2.124826,-0.533896,-0.708603,-0.551000
2025-12-31T16:23:57.441929,10.557133,-1.081555,1.938186,-0.722042,-0.733038,-0.531452
2025-12-31T16:23:57.450929,11.064411,-1.459621,1.775474,-0.846659,-0.719599,-0.483805
2025-12-31T16:23:57.460929,11.337193,-1.674975,1.564905,-0.862541,-0.619417,-0.430049
2025-12-31T16:23:57.470929,11.021340,-1.909472,1.421336,-0.830776,-0.406836,-0.387288
2025-12-31T16:23:57.479929,10.437492,-2.325823,1.397408,-0.734259,-0.084299,-0.379958
2025-12-31T16:23:57.489929,9.288937,-2.751745,1.560120,-0.531452,0.291993,-0.367740
2025-12-31T16:23:57.498929,7.805387,-3.010170,1.813759,-0.210137,0.596204,-0.327423
2025-12-31T16:23:57.508929,6.245266,-3.182454,1.737189,0.128281,0.775798,-0.272445
2025-12-31T16:23:57.518929,4.843072,-3.206382,1.469193,0.472809,0.835663,-0.189368
